,subj_idx,rt,correct,response,stim,level,real_trial_number,trial,block,conditions,study_number,primer_time
,42.0,1.2473605999985011,1.0,8.0,neutral,141ms,8.0,7.0,0.0,141ms_neutral,study2,0.1491496999988157
,42.0,1.104278599999816,1.0,9.0,happy,25ms,10.0,9.0,0.0,25ms_happy,study2,0.0246083999991242
,42.0,1.3665065999994113,1.0,9.0,happy,141ms,11.0,10.0,0.0,141ms_happy,study2,0.1496788999993441
,42.0,1.189962899999955,1.0,7.0,sad,141ms,13.0,12.0,0.0,141ms_sad,study2,0.1497110000000248
,42.0,1.4077118999994127,1.0,9.0,happy,25ms,15.0,14.0,0.0,25ms_happy,study2,0.024650200000849
,42.0,1.01534779999929,1.0,8.0,neutral,25ms,17.0,16.0,0.0,25ms_neutral,study2,0.0244826999987708
,42.0,0.8858782999996038,1.0,8.0,neutral,141ms,18.0,17.0,0.0,141ms_neutral,study2,0.1493143999996391
,42.0,1.0964425000001938,1.0,9.0,happy,25ms,19.0,18.0,0.0,25ms_happy,study2,0.0247811999997793
,42.0,1.123208599999998,1.0,9.0,happy,141ms,20.0,19.0,0.0,141ms_happy,study2,0.1499518000001103
,42.0,1.043310000000929,1.0,9.0,happy,16ms,23.0,22.0,0.0,16ms_happy,study2,0.0160378999989347
,42.0,1.4225495999999112,0.0,9.0,sad,16ms,24.0,23.0,0.0,16ms_sad,study2,0.0165651000007187
,42.0,0.8262776999999915,1.0,9.0,happy,25ms,25.0,24.0,0.0,25ms_happy,study2,0.0244550999995567
,42.0,1.0591038999991724,0.0,8.0,sad,25ms,26.0,25.0,0.0,25ms_sad,study2,0.024472600000081
,42.0,1.2476557000009052,1.0,7.0,sad,141ms,29.0,28.0,0.0,141ms_sad,study2,0.1498989000010624
,42.0,0.8785227999997005,1.0,8.0,neutral,16ms,30.0,29.0,0.0,16ms_neutral,study2,0.016196000000491
,42.0,1.1898421999994753,1.0,8.0,neutral,25ms,34.0,33.0,0.0,25ms_neutral,study2,0.0244359999996959
,42.0,1.0735857999989094,1.0,9.0,happy,25ms,36.0,35.0,0.0,25ms_happy,study2,0.0246416999998473
,42.0,1.2194400999997017,1.0,8.0,neutral,16ms,37.0,36.0,0.0,16ms_neutral,study2,0.0162483000003703
,42.0,1.4288702000012563,0.0,8.0,sad,16ms,38.0,37.0,0.0,16ms_sad,study2,0.0160292000000481
,42.0,0.9424693000000844,1.0,9.0,happy,25ms,43.0,42.0,0.0,25ms_happy,study2,0.0248721999996632
,42.0,1.2500987999992503,1.0,7.0,sad,141ms,45.0,44.0,0.0,141ms_sad,study2,0.1498345999989396
,42.0,1.1238329999996497,1.0,9.0,happy,25ms,46.0,45.0,0.0,25ms_happy,study2,0.0249740999988716
,42.0,1.4576582999998209,0.0,9.0,neutral,8ms,48.0,47.0,0.0,8ms_neutral,study2,0.007705399999395
,42.0,1.4460995000008552,0.0,9.0,neutral,16ms,49.0,48.0,0.0,16ms_neutral,study2,0.0161218000012013
,42.0,1.3906936999992467,1.0,8.0,neutral,141ms,50.0,49.0,0.0,141ms_neutral,study2,0.1493810000010853
,42.0,0.954527699999744,1.0,9.0,happy,16ms,51.0,50.0,0.0,16ms_happy,study2,0.0164069999991625
,42.0,0.7776982000013959,1.0,8.0,neutral,16ms,53.0,52.0,0.0,16ms_neutral,study2,0.0163436999991972
,42.0,0.7830164999995759,1.0,9.0,happy,25ms,54.0,53.0,0.0,25ms_happy,study2,0.0244820999996591
,42.0,1.1873860999985482,1.0,7.0,sad,141ms,55.0,54.0,0.0,141ms_sad,study2,0.1494081000000733
,42.0,0.8759286000004067,1.0,8.0,neutral,141ms,56.0,55.0,0.0,141ms_neutral,study2,0.1495317999997496
,42.0,0.9475886000000172,1.0,9.0,happy,16ms,60.0,59.0,0.0,16ms_happy,study2,0.0159294999994017
,42.0,0.8976063999998587,1.0,8.0,neutral,25ms,61.0,60.0,0.0,25ms_neutral,study2,0.0245615999992878
,42.0,1.1240301999987423,1.0,8.0,neutral,25ms,62.0,61.0,0.0,25ms_neutral,study2,0.0244913999995333
,42.0,0.9370324999999866,1.0,8.0,neutral,141ms,64.0,63.0,0.0,141ms_neutral,study2,0.1494278999998641
,42.0,1.1037869000010687,0.0,9.0,sad,141ms,67.0,66.0,0.0,141ms_sad,study2,0.149667199999385
,42.0,1.24575250000089,1.0,9.0,happy,25ms,68.0,67.0,0.0,25ms_happy,study2,0.0244468000000779
,42.0,0.9899730000015552,0.0,9.0,sad,16ms,71.0,70.0,0.0,16ms_sad,study2,0.0163751000000047
,42.0,1.0297261999985494,1.0,9.0,happy,16ms,72.0,71.0,0.0,16ms_happy,study2,0.0165495000001101
,42.0,0.8101305999989563,1.0,8.0,neutral,25ms,74.0,73.0,0.0,25ms_neutral,study2,0.0245377000010194
,42.0,0.8653557999987243,1.0,9.0,happy,25ms,75.0,74.0,0.0,25ms_happy,study2,0.0249306000005162
,42.0,0.840472800000498,1.0,8.0,neutral,16ms,76.0,75.0,0.0,16ms_neutral,study2,0.0164012999994156
,42.0,1.1640500000012253,1.0,8.0,neutral,25ms,78.0,77.0,0.0,25ms_neutral,study2,0.0244435000004159
,42.0,0.8414669000012509,1.0,8.0,neutral,25ms,80.0,79.0,0.0,25ms_neutral,study2,0.0242711999999301
,42.0,1.273031800001263,0.0,8.0,sad,25ms,83.0,82.0,0.0,25ms_sad,study2,0.0247347000004083
,42.0,1.037774200000058,1.0,8.0,neutral,25ms,85.0,84.0,0.0,25ms_neutral,study2,0.0242710000002261
,42.0,1.3276432999991812,0.0,8.0,sad,16ms,86.0,85.0,0.0,16ms_sad,study2,0.0164696000010735
,42.0,0.6238969000005454,1.0,8.0,neutral,141ms,88.0,87.0,0.0,141ms_neutral,study2,0.149496399999407
,42.0,1.0991522000003895,1.0,9.0,happy,25ms,90.0,89.0,0.0,25ms_happy,study2,0.0243542999996861
,42.0,0.973736400001144,0.0,8.0,sad,25ms,91.0,90.0,0.0,25ms_sad,study2,0.0245553999993717
,42.0,1.051056399999652,1.0,8.0,neutral,141ms,93.0,92.0,0.0,141ms_neutral,study2,0.1494823999984191
,42.0,1.3518708999999944,1.0,7.0,sad,25ms,95.0,94.0,0.0,25ms_sad,study2,0.0242548000006763
,42.0,1.0153388999988238,1.0,8.0,neutral,141ms,96.0,95.0,0.0,141ms_neutral,study2,0.1493957999990698
,42.0,1.2683119000012084,1.0,9.0,happy,141ms,98.0,97.0,0.0,141ms_happy,study2,0.1492705000001706
,42.0,1.298497399999178,1.0,8.0,neutral,25ms,102.0,101.0,0.0,25ms_neutral,study2,0.0244071999985635
,42.0,1.0066618000000744,1.0,9.0,happy,25ms,103.0,102.0,0.0,25ms_happy,study2,0.0243150000007972
,42.0,1.104168899999422,1.0,9.0,happy,141ms,104.0,103.0,0.0,141ms_happy,study2,0.149876999999833
,42.0,1.163188700000319,0.0,9.0,sad,16ms,105.0,104.0,0.0,16ms_sad,study2,0.0165808000001561
,42.0,1.0915182999997342,1.0,7.0,sad,141ms,106.0,105.0,0.0,141ms_sad,study2,0.1497578999988036
,42.0,0.7849504999994679,1.0,8.0,neutral,25ms,107.0,106.0,0.0,25ms_neutral,study2,0.0243756999989273
,42.0,0.7978431999999884,1.0,9.0,happy,25ms,108.0,107.0,0.0,25ms_happy,study2,0.024420600000667
,42.0,0.9139490999987174,1.0,9.0,happy,16ms,111.0,110.0,0.0,16ms_happy,study2,0.0160431999992169
,42.0,0.944309800001065,1.0,9.0,happy,25ms,114.0,113.0,0.0,25ms_happy,study2,0.0245386999995389
,42.0,0.9029905000006692,1.0,8.0,neutral,141ms,116.0,115.0,0.0,141ms_neutral,study2,0.1493312999989484
,42.0,1.076799000000392,1.0,7.0,sad,141ms,119.0,118.0,0.0,141ms_sad,study2,0.1499382000001787
,42.0,1.459560799999963,1.0,7.0,sad,25ms,120.0,119.0,0.0,25ms_sad,study2,0.0249158000003717
,42.0,0.8851388000002771,1.0,8.0,neutral,16ms,122.0,1.0,1.0,16ms_neutral,study2,0.0160375000014028
,42.0,1.4497907000004489,1.0,9.0,happy,141ms,124.0,3.0,1.0,141ms_happy,study2,0.1498645000006035
,42.0,0.7347337000010157,1.0,8.0,neutral,141ms,125.0,4.0,1.0,141ms_neutral,study2,0.1493041000012454
,42.0,0.9638977000013256,1.0,7.0,sad,141ms,126.0,5.0,1.0,141ms_sad,study2,0.150357200000144
,42.0,1.0608897999991314,1.0,7.0,sad,141ms,127.0,6.0,1.0,141ms_sad,study2,0.1497544999999718
,42.0,0.9409603999993124,1.0,8.0,neutral,16ms,129.0,8.0,1.0,16ms_neutral,study2,0.01611800000137
,42.0,1.23422009999922,1.0,9.0,happy,25ms,132.0,11.0,1.0,25ms_happy,study2,0.0248288999991928
,42.0,1.082248000000618,0.0,8.0,sad,25ms,136.0,15.0,1.0,25ms_sad,study2,0.0241996000004292
,42.0,0.9293584000006376,1.0,9.0,happy,16ms,138.0,17.0,1.0,16ms_happy,study2,0.016275199999427
,42.0,0.7068932999991375,1.0,8.0,neutral,141ms,139.0,18.0,1.0,141ms_neutral,study2,0.149576400001024
,42.0,1.24942369999917,1.0,9.0,happy,16ms,141.0,20.0,1.0,16ms_happy,study2,0.0164368000005197
,42.0,0.7161775999993552,1.0,8.0,neutral,141ms,143.0,22.0,1.0,141ms_neutral,study2,0.1494472000013047
,42.0,0.7996978999999556,0.0,8.0,sad,16ms,144.0,23.0,1.0,16ms_sad,study2,0.0163906000000224
,42.0,0.7497920000005251,1.0,8.0,neutral,141ms,146.0,25.0,1.0,141ms_neutral,study2,0.1493780000000697
,42.0,1.389814899999692,0.0,9.0,neutral,25ms,147.0,26.0,1.0,25ms_neutral,study2,0.0243958000010025
,42.0,0.8183637999991333,1.0,9.0,happy,16ms,148.0,27.0,1.0,16ms_happy,study2,0.0160373000016988
,42.0,1.0854417999998986,1.0,7.0,sad,25ms,150.0,29.0,1.0,25ms_sad,study2,0.0243634000000838
,42.0,1.2826511000002938,1.0,8.0,neutral,25ms,154.0,33.0,1.0,25ms_neutral,study2,0.0241573999992397
,42.0,0.8378226000004361,1.0,9.0,happy,25ms,156.0,35.0,1.0,25ms_happy,study2,0.0240496000005805
,42.0,1.0811469000000216,0.0,8.0,sad,25ms,157.0,36.0,1.0,25ms_sad,study2,0.0244390000009389
,42.0,1.3473594000006417,0.0,9.0,sad,25ms,158.0,37.0,1.0,25ms_sad,study2,0.0246445000013864
,42.0,1.1018827999996574,1.0,8.0,neutral,25ms,159.0,38.0,1.0,25ms_neutral,study2,0.0245395999988886
,42.0,1.123664999999164,1.0,8.0,neutral,16ms,161.0,40.0,1.0,16ms_neutral,study2,0.0161093999997774
,42.0,1.0753675000014482,1.0,7.0,sad,141ms,162.0,41.0,1.0,141ms_sad,study2,0.1499684999998862
,42.0,0.774633700000777,1.0,9.0,happy,25ms,163.0,42.0,1.0,25ms_happy,study2,0.0248042999992321
,42.0,0.870918000000529,1.0,9.0,happy,25ms,169.0,48.0,1.0,25ms_happy,study2,0.0246522000015829
,42.0,0.8212677000010444,1.0,9.0,happy,25ms,170.0,49.0,1.0,25ms_happy,study2,0.0248664999999164
,42.0,1.0379069999999049,1.0,9.0,happy,141ms,173.0,52.0,1.0,141ms_happy,study2,0.1498782999988179
,42.0,0.880610299998807,0.0,9.0,sad,16ms,175.0,54.0,1.0,16ms_sad,study2,0.0163185999992947
,42.0,0.943804700000328,1.0,8.0,neutral,25ms,178.0,57.0,1.0,25ms_neutral,study2,0.0242574000005788
,42.0,1.1504445000009582,1.0,9.0,happy,16ms,181.0,60.0,1.0,16ms_happy,study2,0.0162116999999852
,42.0,1.3657146000005014,1.0,8.0,neutral,141ms,182.0,61.0,1.0,141ms_neutral,study2,0.1494012999992264
,42.0,0.954729300001418,1.0,8.0,neutral,141ms,184.0,63.0,1.0,141ms_neutral,study2,0.1495992000000114
,42.0,1.191983299999265,1.0,9.0,happy,141ms,187.0,66.0,1.0,141ms_happy,study2,0.1498145000005024
,42.0,0.8209079999996902,0.0,9.0,neutral,16ms,189.0,68.0,1.0,16ms_neutral,study2,0.0161550000011629
,42.0,0.8490593000005902,0.0,8.0,sad,25ms,190.0,69.0,1.0,25ms_sad,study2,0.0248213999984727
,42.0,0.908796199999415,0.0,8.0,sad,25ms,191.0,70.0,1.0,25ms_sad,study2,0.024881700000833
,42.0,1.0101962000007916,1.0,7.0,sad,141ms,193.0,72.0,1.0,141ms_sad,study2,0.1493879999998171
,42.0,1.0050537000006443,1.0,9.0,happy,16ms,198.0,77.0,1.0,16ms_happy,study2,0.0164991000001464
,42.0,1.21267909999915,1.0,9.0,happy,141ms,199.0,78.0,1.0,141ms_happy,study2,0.1493940999989718
,42.0,1.0056500999999116,1.0,8.0,neutral,25ms,200.0,79.0,1.0,25ms_neutral,study2,0.0245218000000022
,42.0,1.133168599999408,1.0,7.0,sad,141ms,202.0,81.0,1.0,141ms_sad,study2,0.1497608000008767
,42.0,0.815387799999371,1.0,8.0,neutral,141ms,203.0,82.0,1.0,141ms_neutral,study2,0.1491485000008197
,42.0,0.751928499999849,1.0,9.0,happy,25ms,208.0,87.0,1.0,25ms_happy,study2,0.0245021000009728
,42.0,1.1286182000003464,0.0,7.0,neutral,25ms,209.0,88.0,1.0,25ms_neutral,study2,0.0243339999999534
,42.0,1.1243930000000546,1.0,7.0,sad,141ms,212.0,91.0,1.0,141ms_sad,study2,0.1499732999998286
,42.0,0.8138272999985929,1.0,8.0,neutral,25ms,213.0,92.0,1.0,25ms_neutral,study2,0.0246812999996564
,42.0,0.7617429000001721,1.0,8.0,neutral,16ms,216.0,95.0,1.0,16ms_neutral,study2,0.0161358999994263
,42.0,1.0894768999987718,1.0,9.0,happy,25ms,218.0,97.0,1.0,25ms_happy,study2,0.0248150000006717
,42.0,0.7995243999994273,1.0,8.0,neutral,25ms,221.0,100.0,1.0,25ms_neutral,study2,0.0244232000004558
,42.0,1.1315209999993383,1.0,7.0,sad,141ms,222.0,101.0,1.0,141ms_sad,study2,0.1492921000008209
,42.0,0.7078547999990406,1.0,8.0,neutral,141ms,223.0,102.0,1.0,141ms_neutral,study2,0.1493024000010336
,42.0,0.7702302999987296,1.0,8.0,neutral,16ms,224.0,103.0,1.0,16ms_neutral,study2,0.0159743999993224
,42.0,1.1356818999993266,1.0,7.0,sad,141ms,226.0,105.0,1.0,141ms_sad,study2,0.1500513999999384
,42.0,0.6639859999995679,1.0,8.0,neutral,141ms,227.0,106.0,1.0,141ms_neutral,study2,0.1495023000009041
,42.0,1.475505799999155,1.0,7.0,sad,141ms,229.0,108.0,1.0,141ms_sad,study2,0.1496583999996801
,42.0,1.1410962999998446,1.0,9.0,happy,141ms,233.0,112.0,1.0,141ms_happy,study2,0.1498041000002103
,42.0,1.0612156000006507,1.0,9.0,happy,141ms,234.0,113.0,1.0,141ms_happy,study2,0.1493617999985872
,42.0,0.8312944000008429,1.0,8.0,neutral,16ms,237.0,116.0,1.0,16ms_neutral,study2,0.0162518000013278
,42.0,0.9074409999993804,1.0,9.0,happy,25ms,242.0,1.0,2.0,25ms_happy,study2,0.0242713000004641
,42.0,1.092808999999761,1.0,9.0,happy,141ms,243.0,2.0,2.0,141ms_happy,study2,0.1492536000000655
,42.0,0.8133252000006905,1.0,9.0,happy,16ms,245.0,4.0,2.0,16ms_happy,study2,0.0163970000007793
,42.0,0.7900938000002498,1.0,9.0,happy,16ms,247.0,6.0,2.0,16ms_happy,study2,0.0159495999994305
,42.0,0.9897035000012692,1.0,7.0,sad,141ms,248.0,7.0,2.0,141ms_sad,study2,0.1494365999992624
,42.0,1.1525662999993074,0.0,9.0,sad,16ms,249.0,8.0,2.0,16ms_sad,study2,0.0168049999995218
,42.0,1.359911600000487,1.0,8.0,neutral,141ms,250.0,9.0,2.0,141ms_neutral,study2,0.1492445000003499
,42.0,1.0056860000004235,1.0,7.0,sad,141ms,253.0,12.0,2.0,141ms_sad,study2,0.1500435999992078
,42.0,0.9957873999992444,1.0,9.0,happy,141ms,255.0,14.0,2.0,141ms_happy,study2,0.1492823000007774
,42.0,1.046774300000834,1.0,9.0,happy,141ms,256.0,15.0,2.0,141ms_happy,study2,0.1495847999992747
,42.0,1.0532046999996965,1.0,7.0,sad,25ms,257.0,16.0,2.0,25ms_sad,study2,0.0245828000004166
,42.0,0.904115699999238,0.0,9.0,sad,16ms,259.0,18.0,2.0,16ms_sad,study2,0.0165396999996119
,42.0,0.8977099000003363,1.0,8.0,neutral,25ms,260.0,19.0,2.0,25ms_neutral,study2,0.0243245000003753
,42.0,0.6181765000001178,1.0,8.0,neutral,141ms,261.0,20.0,2.0,141ms_neutral,study2,0.149285499999678
,42.0,1.3727314000007027,1.0,7.0,sad,25ms,262.0,21.0,2.0,25ms_sad,study2,0.0249029000005975
,42.0,0.7864618000003247,1.0,8.0,neutral,16ms,263.0,22.0,2.0,16ms_neutral,study2,0.0160543999991205
,42.0,1.0438993999996455,1.0,9.0,happy,141ms,264.0,23.0,2.0,141ms_happy,study2,0.1493921999990561
,42.0,1.0444942000012816,1.0,7.0,sad,141ms,267.0,26.0,2.0,141ms_sad,study2,0.1498026000003847
,42.0,0.7557849000004353,1.0,9.0,happy,16ms,268.0,27.0,2.0,16ms_happy,study2,0.0159782000009727
,42.0,1.1721753999991051,1.0,9.0,happy,16ms,269.0,28.0,2.0,16ms_happy,study2,0.0159012999993137
,42.0,1.1370552999997017,0.0,8.0,sad,141ms,271.0,30.0,2.0,141ms_sad,study2,0.149541100000988
,42.0,1.0613324000005375,1.0,8.0,neutral,16ms,272.0,31.0,2.0,16ms_neutral,study2,0.0160465000003569
,42.0,0.9296590000012656,1.0,9.0,happy,141ms,273.0,32.0,2.0,141ms_happy,study2,0.1493221999990055
,42.0,0.8944866999991063,1.0,8.0,neutral,141ms,274.0,33.0,2.0,141ms_neutral,study2,0.1495410000006813
,42.0,0.7378728000003321,1.0,8.0,neutral,25ms,276.0,35.0,2.0,25ms_neutral,study2,0.0245653999991191
,42.0,0.8723157999993418,1.0,8.0,neutral,25ms,277.0,36.0,2.0,25ms_neutral,study2,0.0241319999986444
,42.0,1.1021541000009163,1.0,7.0,sad,141ms,278.0,37.0,2.0,141ms_sad,study2,0.1492156999993312
,42.0,0.8177095999999437,1.0,8.0,neutral,141ms,281.0,40.0,2.0,141ms_neutral,study2,0.1494545000005018
,42.0,1.3601607000000513,0.0,9.0,neutral,16ms,282.0,41.0,2.0,16ms_neutral,study2,0.0158009000006131
,42.0,0.7717723999994632,1.0,9.0,happy,25ms,284.0,43.0,2.0,25ms_happy,study2,0.02469850000125
,42.0,0.7070375999992393,1.0,8.0,neutral,141ms,286.0,45.0,2.0,141ms_neutral,study2,0.1493019000008644
,42.0,1.2018838999993022,1.0,7.0,sad,141ms,288.0,47.0,2.0,141ms_sad,study2,0.1498726000008901
,42.0,0.9520095999996556,0.0,9.0,sad,25ms,289.0,48.0,2.0,25ms_sad,study2,0.0249239999993733
,42.0,1.0305595999998332,1.0,8.0,neutral,141ms,291.0,50.0,2.0,141ms_neutral,study2,0.1492229999998926
,42.0,0.9810012000016286,1.0,9.0,happy,16ms,293.0,52.0,2.0,16ms_happy,study2,0.0163213999999243
,42.0,1.2351054999999178,1.0,9.0,happy,141ms,299.0,58.0,2.0,141ms_happy,study2,0.1495642000004409
,42.0,1.2955407000008563,1.0,9.0,happy,25ms,300.0,59.0,2.0,25ms_happy,study2,0.0244406000001617
,42.0,0.7861180999989301,1.0,8.0,neutral,25ms,302.0,61.0,2.0,25ms_neutral,study2,0.0243452999998226
,42.0,1.080808499998966,1.0,9.0,happy,16ms,303.0,62.0,2.0,16ms_happy,study2,0.0165759999999863
,42.0,0.8893621000006533,1.0,7.0,sad,141ms,304.0,63.0,2.0,141ms_sad,study2,0.1498011000003316
,42.0,1.4048519000007218,1.0,9.0,happy,141ms,306.0,65.0,2.0,141ms_happy,study2,0.1492657999988296
,42.0,1.034266700000444,1.0,7.0,sad,25ms,308.0,67.0,2.0,25ms_sad,study2,0.0247482999989188
,42.0,0.8957816000001912,1.0,9.0,happy,25ms,309.0,68.0,2.0,25ms_happy,study2,0.0249666999989131
,42.0,1.4240496999991592,1.0,8.0,neutral,16ms,310.0,69.0,2.0,16ms_neutral,study2,0.0160488999990775
,42.0,1.2831983999985823,0.0,8.0,sad,141ms,311.0,70.0,2.0,141ms_sad,study2,0.1499985999998898
,42.0,0.8707328000000416,1.0,9.0,happy,16ms,312.0,71.0,2.0,16ms_happy,study2,0.0164224000000103
,42.0,1.426433199998428,1.0,9.0,happy,141ms,313.0,72.0,2.0,141ms_happy,study2,0.1500522999995155
,42.0,1.2902890000004843,0.0,9.0,neutral,16ms,314.0,73.0,2.0,16ms_neutral,study2,0.0160728999994717
,42.0,1.155302400000437,1.0,7.0,sad,141ms,315.0,74.0,2.0,141ms_sad,study2,0.1496766999989631
,42.0,0.9161223999999492,1.0,8.0,neutral,25ms,316.0,75.0,2.0,25ms_neutral,study2,0.0241860000005544
,42.0,0.845917599999666,0.0,8.0,sad,141ms,319.0,78.0,2.0,141ms_sad,study2,0.1497319000009156
,42.0,1.0547185999985231,1.0,7.0,sad,141ms,321.0,80.0,2.0,141ms_sad,study2,0.1499586999998428
,42.0,0.8585511000001134,1.0,9.0,happy,16ms,322.0,81.0,2.0,16ms_happy,study2,0.0166825999986031
,42.0,1.0473149999997986,1.0,7.0,sad,141ms,323.0,82.0,2.0,141ms_sad,study2,0.1491439999990689
,42.0,0.8617358999999851,1.0,7.0,sad,141ms,325.0,84.0,2.0,141ms_sad,study2,0.1496322999992116
,42.0,0.5813911000004737,0.0,7.0,happy,141ms,327.0,86.0,2.0,141ms_happy,study2,0.1501716999991913
,42.0,1.2207813000004537,1.0,8.0,neutral,141ms,328.0,87.0,2.0,141ms_neutral,study2,0.1494363999991037
,42.0,0.9510207999992416,1.0,8.0,neutral,25ms,331.0,90.0,2.0,25ms_neutral,study2,0.0243825999991713
,42.0,0.8312132999999449,1.0,7.0,sad,141ms,332.0,91.0,2.0,141ms_sad,study2,0.149583899999925
,42.0,0.9637136000001192,1.0,9.0,happy,16ms,334.0,93.0,2.0,16ms_happy,study2,0.0158006999990902
,42.0,1.345725900000616,1.0,9.0,happy,141ms,335.0,94.0,2.0,141ms_happy,study2,0.1496621999999661
,42.0,1.1978834999990795,1.0,9.0,happy,25ms,336.0,95.0,2.0,25ms_happy,study2,0.0250740999999834
,42.0,1.0936507000005804,1.0,9.0,happy,25ms,337.0,96.0,2.0,25ms_happy,study2,0.0244370000000344
,42.0,0.8145556999988912,1.0,9.0,happy,25ms,338.0,97.0,2.0,25ms_happy,study2,0.0247632999999041
,42.0,1.1199830000005022,1.0,9.0,happy,16ms,340.0,99.0,2.0,16ms_happy,study2,0.0161411000008229
,42.0,0.9599417000008544,1.0,7.0,sad,141ms,341.0,100.0,2.0,141ms_sad,study2,0.1496172000006481
,42.0,1.241874800000005,1.0,9.0,happy,141ms,343.0,102.0,2.0,141ms_happy,study2,0.1493110999999771
,42.0,0.7962416999998823,1.0,8.0,neutral,141ms,345.0,104.0,2.0,141ms_neutral,study2,0.1495320999988507
,42.0,0.9799729000005756,0.0,8.0,sad,16ms,346.0,105.0,2.0,16ms_sad,study2,0.0165477000009559
,42.0,0.8447654999999941,1.0,8.0,neutral,25ms,347.0,106.0,2.0,25ms_neutral,study2,0.0244308000001183
,42.0,0.8125221000009333,1.0,9.0,happy,16ms,349.0,108.0,2.0,16ms_happy,study2,0.0164521000001514
,42.0,1.3713728000002448,1.0,9.0,happy,141ms,350.0,109.0,2.0,141ms_happy,study2,0.1495132000000012
,42.0,1.37498240000059,0.0,9.0,sad,25ms,352.0,111.0,2.0,25ms_sad,study2,0.0248417000002518
,42.0,1.1230949000000692,1.0,9.0,happy,16ms,353.0,112.0,2.0,16ms_happy,study2,0.016351799999029
,42.0,1.0004604999994626,1.0,9.0,happy,25ms,359.0,118.0,2.0,25ms_happy,study2,0.0246704000001045
,42.0,0.7042245000011462,1.0,8.0,neutral,141ms,360.0,119.0,2.0,141ms_neutral,study2,0.1494597000000794
,27.0,0.6528366999999662,1.0,9.0,happy,141ms,1.0,0.0,0.0,141ms_happy,study2,0.1497249000000522
,27.0,1.1823082000000795,1.0,9.0,happy,16ms,3.0,2.0,0.0,16ms_happy,study2,0.0163352000000713
,27.0,1.033382999999958,0.0,9.0,neutral,16ms,4.0,3.0,0.0,16ms_neutral,study2,0.0162295000000369
,27.0,1.2906116000000338,1.0,7.0,sad,25ms,5.0,4.0,0.0,25ms_sad,study2,0.0250225999999145
,27.0,1.1519902999999658,1.0,9.0,happy,16ms,6.0,5.0,0.0,16ms_happy,study2,0.0162618000000804
,27.0,1.1541486999999506,0.0,7.0,neutral,141ms,8.0,7.0,0.0,141ms_neutral,study2,0.1496078999999781
,27.0,0.981957599999987,1.0,9.0,happy,25ms,10.0,9.0,0.0,25ms_happy,study2,0.0244467999999358
,27.0,0.7881677999999965,1.0,9.0,happy,141ms,11.0,10.0,0.0,141ms_happy,study2,0.1493254000000661
,27.0,1.2267550000000256,1.0,7.0,sad,141ms,13.0,12.0,0.0,141ms_sad,study2,0.1499247000000423
,27.0,1.4269550999999865,1.0,8.0,neutral,25ms,14.0,13.0,0.0,25ms_neutral,study2,0.0242398000000321
,27.0,0.737101100000018,1.0,9.0,happy,25ms,15.0,14.0,0.0,25ms_happy,study2,0.0247680000001082
,27.0,0.8885885999999346,1.0,8.0,neutral,25ms,17.0,16.0,0.0,25ms_neutral,study2,0.0242664999999533
,27.0,0.863131400000043,0.0,7.0,neutral,141ms,18.0,17.0,0.0,141ms_neutral,study2,0.1492375999999922
,27.0,0.617639699999927,1.0,9.0,happy,25ms,19.0,18.0,0.0,25ms_happy,study2,0.0249227000000473
,27.0,0.7325171999999611,1.0,9.0,happy,141ms,20.0,19.0,0.0,141ms_happy,study2,0.1501879000001054
,27.0,0.6108388000000105,1.0,9.0,happy,16ms,23.0,22.0,0.0,16ms_happy,study2,0.0161157000000002
,27.0,0.9297457000000122,1.0,7.0,sad,25ms,26.0,25.0,0.0,25ms_sad,study2,0.0244773000000577
,27.0,0.8771963000000369,1.0,7.0,sad,25ms,28.0,27.0,0.0,25ms_sad,study2,0.0245460000001003
,27.0,0.5808841000000484,1.0,7.0,sad,141ms,29.0,28.0,0.0,141ms_sad,study2,0.1500406000000111
,27.0,1.477737099999899,0.0,9.0,sad,25ms,32.0,31.0,0.0,25ms_sad,study2,0.0249309000000721
,27.0,0.8534141000000091,1.0,8.0,neutral,25ms,34.0,33.0,0.0,25ms_neutral,study2,0.0242581999999629
,27.0,0.761179200000015,1.0,9.0,happy,25ms,36.0,35.0,0.0,25ms_happy,study2,0.0243153999999776
,27.0,1.0264442000000145,1.0,8.0,neutral,16ms,37.0,36.0,0.0,16ms_neutral,study2,0.0163718999999673
,27.0,1.187841800000001,0.0,9.0,sad,16ms,38.0,37.0,0.0,16ms_sad,study2,0.0164926999999011
,27.0,0.9233768000000282,1.0,7.0,sad,25ms,39.0,38.0,0.0,25ms_sad,study2,0.0248172999999951
,27.0,0.6959402999999611,1.0,7.0,sad,25ms,40.0,39.0,0.0,25ms_sad,study2,0.0246245999999814
,27.0,0.6982686000000058,1.0,9.0,happy,25ms,43.0,42.0,0.0,25ms_happy,study2,0.0249814000000014
,27.0,1.4049074000001838,0.0,8.0,sad,16ms,44.0,43.0,0.0,16ms_sad,study2,0.0168088000000352
,27.0,0.8214755999999852,1.0,7.0,sad,141ms,45.0,44.0,0.0,141ms_sad,study2,0.1498893000000407
,27.0,0.5592996999998832,1.0,9.0,happy,25ms,46.0,45.0,0.0,25ms_happy,study2,0.0247684000000845
,27.0,1.2436024000000998,1.0,8.0,neutral,16ms,49.0,48.0,0.0,16ms_neutral,study2,0.0158313000000589
,27.0,0.7404790999999022,1.0,8.0,neutral,141ms,50.0,49.0,0.0,141ms_neutral,study2,0.1494884000000524
,27.0,0.74388399999998,1.0,9.0,happy,16ms,51.0,50.0,0.0,16ms_happy,study2,0.016540300000031
,27.0,1.2964825999999905,1.0,7.0,sad,16ms,52.0,51.0,0.0,16ms_sad,study2,0.0161978000000431
,27.0,0.8865419999999631,1.0,8.0,neutral,16ms,53.0,52.0,0.0,16ms_neutral,study2,0.0159513999999489
,27.0,0.5717967000000499,1.0,9.0,happy,25ms,54.0,53.0,0.0,25ms_happy,study2,0.0243937000000187
,27.0,0.7767288000000008,1.0,7.0,sad,141ms,55.0,54.0,0.0,141ms_sad,study2,0.1494586999999683
,27.0,0.6808545999999751,0.0,7.0,neutral,141ms,56.0,55.0,0.0,141ms_neutral,study2,0.1492584000000079
,27.0,0.9343250999997964,1.0,7.0,sad,25ms,59.0,58.0,0.0,25ms_sad,study2,0.0247360000000753
,27.0,0.9502837,0.0,7.0,neutral,25ms,61.0,60.0,0.0,25ms_neutral,study2,0.0244520999999622
,27.0,1.3125724000001355,0.0,7.0,neutral,25ms,62.0,61.0,0.0,25ms_neutral,study2,0.0245926000000054
,27.0,0.9095965999999862,1.0,9.0,happy,16ms,63.0,62.0,0.0,16ms_happy,study2,0.0158611000001656
,27.0,0.9101537999999892,1.0,8.0,neutral,141ms,64.0,63.0,0.0,141ms_neutral,study2,0.1493910000001506
,27.0,1.1555739000000358,1.0,7.0,sad,141ms,66.0,65.0,0.0,141ms_sad,study2,0.1497348999998848
,27.0,0.3325015000000348,1.0,7.0,sad,141ms,67.0,66.0,0.0,141ms_sad,study2,0.1500196000001779
,27.0,0.7295974999999544,1.0,9.0,happy,25ms,68.0,67.0,0.0,25ms_happy,study2,0.0242217999998501
,27.0,0.5275936000000456,1.0,9.0,happy,16ms,69.0,68.0,0.0,16ms_happy,study2,0.0161917999998877
,27.0,1.1847649999999703,0.0,9.0,sad,16ms,71.0,70.0,0.0,16ms_sad,study2,0.016483700000208
,27.0,0.8004455000000235,1.0,9.0,happy,16ms,72.0,71.0,0.0,16ms_happy,study2,0.01615159999983
,27.0,1.3253138000000035,1.0,8.0,neutral,25ms,74.0,73.0,0.0,25ms_neutral,study2,0.0244860999998763
,27.0,0.6047889999999825,1.0,9.0,happy,25ms,75.0,74.0,0.0,25ms_happy,study2,0.024713199999951
,27.0,1.227844100000084,1.0,8.0,neutral,16ms,76.0,75.0,0.0,16ms_neutral,study2,0.0163324000000102
,27.0,0.7286624999999276,1.0,8.0,neutral,25ms,78.0,77.0,0.0,25ms_neutral,study2,0.0243465999999443
,27.0,1.1592183000000205,1.0,8.0,neutral,25ms,80.0,79.0,0.0,25ms_neutral,study2,0.0242604999998548
,27.0,0.7705863999999565,1.0,9.0,happy,16ms,84.0,83.0,0.0,16ms_happy,study2,0.0164935000000241
,27.0,1.388622499999883,1.0,8.0,neutral,25ms,85.0,84.0,0.0,25ms_neutral,study2,0.0242335000000366
,27.0,1.1198916000000736,0.0,9.0,neutral,16ms,87.0,86.0,0.0,16ms_neutral,study2,0.0159476999999697
,27.0,0.6759424999997918,1.0,9.0,happy,16ms,89.0,88.0,0.0,16ms_happy,study2,0.0164052999998602
,27.0,0.8905000999998265,1.0,9.0,happy,25ms,90.0,89.0,0.0,25ms_happy,study2,0.0244708000000173
,27.0,0.9408134000000246,1.0,7.0,sad,25ms,91.0,90.0,0.0,25ms_sad,study2,0.0247996999999031
,27.0,0.9001619000000574,0.0,7.0,neutral,141ms,93.0,92.0,0.0,141ms_neutral,study2,0.14917719999994
,27.0,0.9838250000000244,1.0,8.0,neutral,141ms,94.0,93.0,0.0,141ms_neutral,study2,0.1493837999998959
,27.0,1.4412431999999171,1.0,7.0,sad,25ms,95.0,94.0,0.0,25ms_sad,study2,0.0241237999998702
,27.0,0.9300253000001248,0.0,7.0,neutral,141ms,96.0,95.0,0.0,141ms_neutral,study2,0.1495261000000027
,27.0,0.5769450999998753,1.0,9.0,happy,141ms,98.0,97.0,0.0,141ms_happy,study2,0.1495261999998547
,27.0,1.1492212000000563,1.0,7.0,sad,16ms,101.0,100.0,0.0,16ms_sad,study2,0.016023000000132
,27.0,1.0564125000000786,0.0,7.0,neutral,25ms,102.0,101.0,0.0,25ms_neutral,study2,0.0244000000000141
,27.0,0.5164170999998987,1.0,9.0,happy,25ms,103.0,102.0,0.0,25ms_happy,study2,0.0243877999998858
,27.0,0.5107279999999719,1.0,9.0,happy,141ms,104.0,103.0,0.0,141ms_happy,study2,0.1498333000001821
,27.0,0.8963624999998956,1.0,7.0,sad,16ms,105.0,104.0,0.0,16ms_sad,study2,0.0161296999999649
,27.0,0.3845717000001514,1.0,7.0,sad,141ms,106.0,105.0,0.0,141ms_sad,study2,0.1498081999998248
,27.0,1.093689300000051,0.0,7.0,neutral,25ms,107.0,106.0,0.0,25ms_neutral,study2,0.0243504000000029
,27.0,0.7465265999999247,1.0,9.0,happy,25ms,108.0,107.0,0.0,25ms_happy,study2,0.0245254999999815
,27.0,1.1097622000002048,1.0,9.0,happy,16ms,111.0,110.0,0.0,16ms_happy,study2,0.0160372999998799
,27.0,0.571794299999965,1.0,9.0,happy,25ms,114.0,113.0,0.0,25ms_happy,study2,0.0242620999999871
,27.0,1.1216905000001134,0.0,8.0,sad,8ms,115.0,114.0,0.0,8ms_sad,study2,0.0076019999997924
,27.0,0.9705366999999114,0.0,7.0,neutral,141ms,116.0,115.0,0.0,141ms_neutral,study2,0.1496392999999898
,27.0,0.5601853999999094,1.0,7.0,sad,141ms,119.0,118.0,0.0,141ms_sad,study2,0.1497965999999451
,27.0,1.2388424000000668,0.0,9.0,sad,25ms,120.0,119.0,0.0,25ms_sad,study2,0.0250297000000045
,27.0,0.9526483000001916,0.0,7.0,neutral,16ms,122.0,1.0,1.0,16ms_neutral,study2,0.0161562000000685
,27.0,0.4861002000000098,1.0,9.0,happy,16ms,123.0,2.0,1.0,16ms_happy,study2,0.0165406999998367
,27.0,0.4696718999998666,1.0,9.0,happy,141ms,124.0,3.0,1.0,141ms_happy,study2,0.1495855000000574
,27.0,0.8905495000001338,0.0,7.0,neutral,141ms,125.0,4.0,1.0,141ms_neutral,study2,0.1493022000000792
,27.0,0.3677243000001908,1.0,7.0,sad,141ms,126.0,5.0,1.0,141ms_sad,study2,0.14963130000001
,27.0,0.4166715999999724,1.0,7.0,sad,141ms,127.0,6.0,1.0,141ms_sad,study2,0.1497128000002021
,27.0,0.952734400000054,0.0,7.0,neutral,16ms,129.0,8.0,1.0,16ms_neutral,study2,0.015991299999996
,27.0,0.7653821999999764,1.0,9.0,happy,25ms,132.0,11.0,1.0,25ms_happy,study2,0.0246056999999382
,27.0,0.8394977000000381,1.0,9.0,happy,25ms,133.0,12.0,1.0,25ms_happy,study2,0.024800199999845
,27.0,1.2040938000000097,0.0,8.0,sad,25ms,136.0,15.0,1.0,25ms_sad,study2,0.0245428000000629
,27.0,1.038275499999827,1.0,7.0,sad,25ms,137.0,16.0,1.0,25ms_sad,study2,0.0243261000000529
,27.0,0.8031326000000263,1.0,9.0,happy,16ms,138.0,17.0,1.0,16ms_happy,study2,0.0159814999999525
,27.0,0.8605590999998185,1.0,8.0,neutral,141ms,139.0,18.0,1.0,141ms_neutral,study2,0.1494445000000723
,27.0,0.9290223999998944,1.0,8.0,neutral,16ms,140.0,19.0,1.0,16ms_neutral,study2,0.0159438000000591
,27.0,0.6346556000000874,1.0,9.0,happy,16ms,141.0,20.0,1.0,16ms_happy,study2,0.016467700000021
,27.0,1.2287768000001051,1.0,8.0,neutral,141ms,143.0,22.0,1.0,141ms_neutral,study2,0.1493737000000692
,27.0,0.6561377999998967,1.0,7.0,sad,16ms,144.0,23.0,1.0,16ms_sad,study2,0.0165345000000343
,27.0,0.7409528999999111,0.0,7.0,neutral,141ms,146.0,25.0,1.0,141ms_neutral,study2,0.1496509999999489
,27.0,0.8848173999999744,0.0,7.0,neutral,25ms,147.0,26.0,1.0,25ms_neutral,study2,0.0243467000000237
,27.0,0.8012762999999268,1.0,9.0,happy,16ms,148.0,27.0,1.0,16ms_happy,study2,0.0158001000002059
,27.0,1.2124638000000232,1.0,7.0,sad,25ms,150.0,29.0,1.0,25ms_sad,study2,0.0245792000000619
,27.0,0.5990091999999549,1.0,8.0,neutral,141ms,151.0,30.0,1.0,141ms_neutral,study2,0.1496128999999655
,27.0,0.7190599000000475,1.0,7.0,sad,16ms,152.0,31.0,1.0,16ms_sad,study2,0.0159843000001274
,27.0,0.9317917000000762,1.0,8.0,neutral,16ms,153.0,32.0,1.0,16ms_neutral,study2,0.016165600000022
,27.0,0.641597099999899,1.0,8.0,neutral,25ms,154.0,33.0,1.0,25ms_neutral,study2,0.0243833999998059
,27.0,0.7893758000000162,1.0,9.0,happy,25ms,156.0,35.0,1.0,25ms_happy,study2,0.0244242999999642
,27.0,0.7626589999999851,1.0,7.0,sad,25ms,158.0,37.0,1.0,25ms_sad,study2,0.0244820999998864
,27.0,1.363403999999946,1.0,8.0,neutral,25ms,159.0,38.0,1.0,25ms_neutral,study2,0.0244612999999844
,27.0,0.9359953999999108,1.0,7.0,sad,141ms,162.0,41.0,1.0,141ms_sad,study2,0.14960659999997
,27.0,0.6109079000000293,1.0,9.0,happy,25ms,163.0,42.0,1.0,25ms_happy,study2,0.0247638999999253
,27.0,1.110267199999953,1.0,8.0,neutral,25ms,165.0,44.0,1.0,25ms_neutral,study2,0.0242345999999997
,27.0,0.59451799999988,1.0,9.0,happy,25ms,169.0,48.0,1.0,25ms_happy,study2,0.0247133000000303
,27.0,0.4803522000001976,1.0,9.0,happy,25ms,170.0,49.0,1.0,25ms_happy,study2,0.0249445000001742
,27.0,0.6106191999999737,1.0,7.0,sad,16ms,171.0,50.0,1.0,16ms_sad,study2,0.0165069999998195
,27.0,0.4493837999998504,1.0,9.0,happy,141ms,173.0,52.0,1.0,141ms_happy,study2,0.149999500000149
,27.0,1.0358214999998836,0.0,9.0,sad,16ms,175.0,54.0,1.0,16ms_sad,study2,0.0165508000000045
,27.0,1.0965939000000162,1.0,7.0,sad,25ms,176.0,55.0,1.0,25ms_sad,study2,0.0242757999999412
,27.0,1.0639263000000485,0.0,7.0,neutral,25ms,178.0,57.0,1.0,25ms_neutral,study2,0.0241472999998677
,27.0,0.87008139999989,1.0,9.0,happy,16ms,181.0,60.0,1.0,16ms_happy,study2,0.0164793000001282
,27.0,0.7329037999998036,1.0,8.0,neutral,141ms,182.0,61.0,1.0,141ms_neutral,study2,0.1494542000000365
,27.0,1.2015117000000828,1.0,8.0,neutral,141ms,184.0,63.0,1.0,141ms_neutral,study2,0.1494544999998197
,27.0,0.9661424000000808,1.0,9.0,happy,141ms,187.0,66.0,1.0,141ms_happy,study2,0.1496859000001222
,27.0,1.0941103999998631,1.0,7.0,sad,25ms,190.0,69.0,1.0,25ms_sad,study2,0.0251124999999774
,27.0,0.7378989999999703,1.0,7.0,sad,25ms,191.0,70.0,1.0,25ms_sad,study2,0.0250301999999464
,27.0,1.1075702999999066,1.0,7.0,sad,141ms,196.0,75.0,1.0,141ms_sad,study2,0.1498322999998436
,27.0,0.8218690999997307,1.0,9.0,happy,16ms,198.0,77.0,1.0,16ms_happy,study2,0.0164784000000963
,27.0,1.077045200000157,1.0,9.0,happy,141ms,199.0,78.0,1.0,141ms_happy,study2,0.1490787000000182
,27.0,0.9259508000000096,0.0,7.0,neutral,25ms,200.0,79.0,1.0,25ms_neutral,study2,0.0245533999998315
,27.0,1.0717937000003983,0.0,7.0,neutral,141ms,203.0,82.0,1.0,141ms_neutral,study2,0.1495063999996091
,27.0,0.8839262999999846,0.0,7.0,neutral,25ms,207.0,86.0,1.0,25ms_neutral,study2,0.0245479000000159
,27.0,0.5835293999998612,1.0,9.0,happy,25ms,208.0,87.0,1.0,25ms_happy,study2,0.0247258999997939
,27.0,1.1044942000003175,1.0,8.0,neutral,25ms,209.0,88.0,1.0,25ms_neutral,study2,0.0242585000000872
,27.0,0.8373280000000705,1.0,8.0,neutral,25ms,213.0,92.0,1.0,25ms_neutral,study2,0.0243848000002344
,27.0,1.0692189000001235,0.0,7.0,neutral,25ms,215.0,94.0,1.0,25ms_neutral,study2,0.0244574999999258
,27.0,0.8730737000000772,0.0,7.0,neutral,16ms,216.0,95.0,1.0,16ms_neutral,study2,0.0158277000000452
,27.0,1.0138248999996904,0.0,7.0,neutral,25ms,221.0,100.0,1.0,25ms_neutral,study2,0.0245320000005904
,27.0,0.6261862000001202,1.0,7.0,sad,141ms,222.0,101.0,1.0,141ms_sad,study2,0.1494970000001103
,27.0,0.6425744000002851,1.0,8.0,neutral,141ms,223.0,102.0,1.0,141ms_neutral,study2,0.1493571000000884
,27.0,0.5900314999998955,1.0,7.0,sad,141ms,226.0,105.0,1.0,141ms_sad,study2,0.1496445000002495
,27.0,0.7007742999999209,1.0,8.0,neutral,141ms,227.0,106.0,1.0,141ms_neutral,study2,0.1493942999998125
,27.0,0.607067399999778,1.0,9.0,happy,25ms,228.0,107.0,1.0,25ms_happy,study2,0.0248033000002578
,27.0,0.6164377000000059,1.0,7.0,sad,141ms,229.0,108.0,1.0,141ms_sad,study2,0.1498590999999578
,27.0,0.887383900000259,0.0,7.0,neutral,16ms,230.0,109.0,1.0,16ms_neutral,study2,0.016017800000327
,27.0,0.5762313000000177,1.0,9.0,happy,141ms,233.0,112.0,1.0,141ms_happy,study2,0.1496452999997473
,27.0,0.4076822000001812,1.0,9.0,happy,141ms,234.0,113.0,1.0,141ms_happy,study2,0.1494485999999142
,27.0,0.6997062999998889,1.0,7.0,sad,16ms,235.0,114.0,1.0,16ms_sad,study2,0.0166333000001941
,27.0,1.4333778000000166,1.0,8.0,neutral,16ms,237.0,116.0,1.0,16ms_neutral,study2,0.0159625000001142
,27.0,0.908346199999869,1.0,9.0,happy,25ms,242.0,1.0,2.0,25ms_happy,study2,0.0242040000000542
,27.0,0.6856516999996529,1.0,9.0,happy,141ms,243.0,2.0,2.0,141ms_happy,study2,0.1493579999998928
,27.0,0.4943806000001132,1.0,9.0,happy,16ms,245.0,4.0,2.0,16ms_happy,study2,0.0167063000001235
,27.0,0.4872246999998424,1.0,9.0,happy,16ms,247.0,6.0,2.0,16ms_happy,study2,0.0162508000000798
,27.0,0.4708383000001959,1.0,7.0,sad,141ms,248.0,7.0,2.0,141ms_sad,study2,0.1493849000000864
,27.0,0.7695888000002924,1.0,7.0,sad,16ms,249.0,8.0,2.0,16ms_sad,study2,0.0164830999999594
,27.0,0.5846427999999833,1.0,8.0,neutral,141ms,250.0,9.0,2.0,141ms_neutral,study2,0.1491989000001012
,27.0,1.3899049999999988,1.0,7.0,sad,16ms,252.0,11.0,2.0,16ms_sad,study2,0.0165345000000343
,27.0,0.750128599999698,1.0,7.0,sad,141ms,253.0,12.0,2.0,141ms_sad,study2,0.1497542999998131
,27.0,0.6194482000000789,1.0,9.0,happy,141ms,255.0,14.0,2.0,141ms_happy,study2,0.1493399999999383
,27.0,0.566327800000181,1.0,9.0,happy,141ms,256.0,15.0,2.0,141ms_happy,study2,0.1497165999999197
,27.0,0.9396121999998286,1.0,7.0,sad,25ms,257.0,16.0,2.0,25ms_sad,study2,0.0244312000002082
,27.0,0.8472979000002852,0.0,7.0,neutral,16ms,258.0,17.0,2.0,16ms_neutral,study2,0.0159545999999863
,27.0,0.6621053000003485,1.0,7.0,sad,16ms,259.0,18.0,2.0,16ms_sad,study2,0.0164099999999507
,27.0,0.7767561999999089,0.0,7.0,neutral,25ms,260.0,19.0,2.0,25ms_neutral,study2,0.024634399999968
,27.0,0.7127348999997594,1.0,8.0,neutral,141ms,261.0,20.0,2.0,141ms_neutral,study2,0.1492491999999856
,27.0,1.091560599999866,1.0,7.0,sad,25ms,262.0,21.0,2.0,25ms_sad,study2,0.0248094999999466
,27.0,0.9850894999999582,1.0,8.0,neutral,16ms,263.0,22.0,2.0,16ms_neutral,study2,0.0161834000000453
,27.0,1.3857702000000245,1.0,9.0,happy,141ms,264.0,23.0,2.0,141ms_happy,study2,0.1496411000000534
,27.0,0.8414186999998492,1.0,7.0,sad,141ms,267.0,26.0,2.0,141ms_sad,study2,0.1500186999999186
,27.0,0.6714321999997992,1.0,9.0,happy,16ms,268.0,27.0,2.0,16ms_happy,study2,0.0161092999999254
,27.0,0.7438956000000871,1.0,9.0,happy,16ms,269.0,28.0,2.0,16ms_happy,study2,0.0160117999998874
,27.0,0.789003099999718,1.0,7.0,sad,141ms,271.0,30.0,2.0,141ms_sad,study2,0.1499642000001131
,27.0,1.04894830000012,0.0,7.0,neutral,16ms,272.0,31.0,2.0,16ms_neutral,study2,0.0158468999995875
,27.0,0.5807660000000396,1.0,9.0,happy,141ms,273.0,32.0,2.0,141ms_happy,study2,0.1492795000001479
,27.0,0.8690173999998478,1.0,7.0,sad,25ms,275.0,34.0,2.0,25ms_sad,study2,0.025184099999933
,27.0,0.6289231999999174,1.0,8.0,neutral,25ms,276.0,35.0,2.0,25ms_neutral,study2,0.0247862999999597
,27.0,1.0027219000003242,0.0,7.0,neutral,25ms,277.0,36.0,2.0,25ms_neutral,study2,0.024591500000497
,27.0,0.4726246000000174,1.0,7.0,sad,141ms,278.0,37.0,2.0,141ms_sad,study2,0.1494877999994059
,27.0,0.5511258999999882,1.0,8.0,neutral,141ms,280.0,39.0,2.0,141ms_neutral,study2,0.1494333999999071
,27.0,0.7641763000001447,1.0,8.0,neutral,141ms,281.0,40.0,2.0,141ms_neutral,study2,0.1494872000002942
,27.0,1.0028786999996555,0.0,7.0,neutral,16ms,282.0,41.0,2.0,16ms_neutral,study2,0.0160593999999036
,27.0,0.9291476000003058,1.0,9.0,happy,8ms,283.0,42.0,2.0,8ms_happy,study2,0.0082525999996505
,27.0,0.796451000000161,1.0,8.0,neutral,141ms,286.0,45.0,2.0,141ms_neutral,study2,0.1493143000002419
,27.0,0.6436969999999747,1.0,7.0,sad,141ms,288.0,47.0,2.0,141ms_sad,study2,0.1497466999999233
,27.0,0.7142377999998644,1.0,7.0,sad,25ms,289.0,48.0,2.0,25ms_sad,study2,0.0246317999999519
,27.0,0.779772000000321,0.0,7.0,neutral,141ms,291.0,50.0,2.0,141ms_neutral,study2,0.1493156999999882
,27.0,0.4900996999999734,1.0,9.0,happy,16ms,293.0,52.0,2.0,16ms_happy,study2,0.0166780000004109
,27.0,0.5602672999998504,1.0,9.0,happy,16ms,294.0,53.0,2.0,16ms_happy,study2,0.0163625999998657
,27.0,1.1849892000000182,1.0,9.0,happy,16ms,298.0,57.0,2.0,16ms_happy,study2,0.0166624999997111
,27.0,0.6571810000000369,1.0,9.0,happy,141ms,299.0,58.0,2.0,141ms_happy,study2,0.1495017000002008
,27.0,0.5251087999999982,1.0,9.0,happy,25ms,300.0,59.0,2.0,25ms_happy,study2,0.0244370000000344
,27.0,1.1838120000002164,1.0,7.0,sad,16ms,301.0,60.0,2.0,16ms_sad,study2,0.0157668000001649
,27.0,0.8081647000003613,0.0,7.0,neutral,25ms,302.0,61.0,2.0,25ms_neutral,study2,0.0242830000001958
,27.0,0.647248899999795,0.0,7.0,happy,16ms,303.0,62.0,2.0,16ms_happy,study2,0.0164339999996627
,27.0,0.911922499999946,1.0,7.0,sad,141ms,304.0,63.0,2.0,141ms_sad,study2,0.1498750000000654
,27.0,0.6211071000002448,1.0,9.0,happy,141ms,306.0,65.0,2.0,141ms_happy,study2,0.1493958999999449
,27.0,0.8601407000001018,1.0,7.0,sad,25ms,308.0,67.0,2.0,25ms_sad,study2,0.0248867000000245
,27.0,0.9207521000002998,1.0,9.0,happy,25ms,309.0,68.0,2.0,25ms_happy,study2,0.0249189000001024
,27.0,0.8391022999999223,0.0,7.0,neutral,16ms,310.0,69.0,2.0,16ms_neutral,study2,0.0159515000000283
,27.0,0.5143745000000308,0.0,8.0,sad,141ms,311.0,70.0,2.0,141ms_sad,study2,0.1498044999998455
,27.0,0.60569600000008,1.0,9.0,happy,16ms,312.0,71.0,2.0,16ms_happy,study2,0.0167630999999346
,27.0,0.5529253000004246,1.0,9.0,happy,141ms,313.0,72.0,2.0,141ms_happy,study2,0.149883999999929
,27.0,0.991979800000081,0.0,7.0,neutral,16ms,314.0,73.0,2.0,16ms_neutral,study2,0.0161440000001675
,27.0,0.824979600000006,1.0,7.0,sad,141ms,315.0,74.0,2.0,141ms_sad,study2,0.1496929999998428
,27.0,0.737623099999837,0.0,7.0,neutral,25ms,316.0,75.0,2.0,25ms_neutral,study2,0.024334600000202
,27.0,0.785816000000068,1.0,8.0,neutral,16ms,317.0,76.0,2.0,16ms_neutral,study2,0.0158134000002974
,27.0,0.7425447000000531,1.0,9.0,happy,16ms,318.0,77.0,2.0,16ms_happy,study2,0.0156487999997807
,27.0,1.4115059000000656,0.0,8.0,sad,141ms,319.0,78.0,2.0,141ms_sad,study2,0.1496878000002652
,27.0,0.8116421999998238,1.0,7.0,sad,141ms,321.0,80.0,2.0,141ms_sad,study2,0.1499827000002369
,27.0,0.911746299999777,1.0,9.0,happy,16ms,322.0,81.0,2.0,16ms_happy,study2,0.0164764999999533
,27.0,0.5002196999998887,1.0,7.0,sad,141ms,323.0,82.0,2.0,141ms_sad,study2,0.1492738000001736
,27.0,0.6589281999999912,1.0,8.0,neutral,141ms,328.0,87.0,2.0,141ms_neutral,study2,0.1493242999999893
,27.0,0.8537231000000247,1.0,8.0,neutral,25ms,331.0,90.0,2.0,25ms_neutral,study2,0.0244829999996909
,27.0,0.7262663000001339,1.0,7.0,sad,141ms,332.0,91.0,2.0,141ms_sad,study2,0.149407599999904
,27.0,0.7707242000001315,1.0,9.0,happy,16ms,334.0,93.0,2.0,16ms_happy,study2,0.0159397000002172
,27.0,0.3609802000000854,1.0,9.0,happy,141ms,335.0,94.0,2.0,141ms_happy,study2,0.1495914000001903
,27.0,0.6863110999997843,1.0,9.0,happy,25ms,337.0,96.0,2.0,25ms_happy,study2,0.0245832999999038
,27.0,0.7594186000001173,1.0,9.0,happy,25ms,338.0,97.0,2.0,25ms_happy,study2,0.024629300000015
,27.0,0.9901961999999004,1.0,9.0,happy,8ms,339.0,98.0,2.0,8ms_happy,study2,0.0081548999996812
,27.0,1.0029018999998698,1.0,9.0,happy,16ms,340.0,99.0,2.0,16ms_happy,study2,0.0161206999996466
,27.0,0.9308342999997876,1.0,7.0,sad,141ms,341.0,100.0,2.0,141ms_sad,study2,0.1494119000003593
,27.0,0.8506741000001057,1.0,9.0,happy,141ms,342.0,101.0,2.0,141ms_happy,study2,0.1493949000000611
,27.0,0.4531028000001242,1.0,9.0,happy,141ms,343.0,102.0,2.0,141ms_happy,study2,0.1493845999998484
,27.0,0.7278182999998535,0.0,9.0,sad,141ms,344.0,103.0,2.0,141ms_sad,study2,0.1498059999998986
,27.0,0.5118649999999434,1.0,8.0,neutral,141ms,345.0,104.0,2.0,141ms_neutral,study2,0.1494840000000294
,27.0,1.0078396999997494,0.0,8.0,sad,16ms,346.0,105.0,2.0,16ms_sad,study2,0.0165232999997897
,27.0,0.7362585999999283,1.0,8.0,neutral,25ms,347.0,106.0,2.0,25ms_neutral,study2,0.0244102999999995
,27.0,0.6695470000004207,1.0,7.0,sad,25ms,348.0,107.0,2.0,25ms_sad,study2,0.0247481000001243
,27.0,0.8798980999999912,1.0,9.0,happy,16ms,349.0,108.0,2.0,16ms_happy,study2,0.0162946999998894
,27.0,0.6321843999999146,1.0,9.0,happy,141ms,350.0,109.0,2.0,141ms_happy,study2,0.1493995999999242
,27.0,1.099314599999616,1.0,7.0,sad,25ms,352.0,111.0,2.0,25ms_sad,study2,0.0246201999998447
,27.0,0.7195101000002069,1.0,9.0,happy,16ms,353.0,112.0,2.0,16ms_happy,study2,0.0162648000004992
,27.0,1.134146299999884,1.0,7.0,sad,141ms,356.0,115.0,2.0,141ms_sad,study2,0.1494558999997934
,27.0,0.6493701000003966,1.0,9.0,happy,25ms,359.0,118.0,2.0,25ms_happy,study2,0.0249401999999463
,27.0,0.5528214000000844,1.0,8.0,neutral,141ms,360.0,119.0,2.0,141ms_neutral,study2,0.1494066000000202
,36.0,0.5409540999680758,1.0,8.0,neutral,141ms,0.0,,,141ms_neutral,study2,0.1496197998058051
,36.0,0.5883539998903871,1.0,9.0,happy,141ms,1.0,0.0,0.0,141ms_happy,study2,0.1499551001470536
,36.0,0.8480208998080343,1.0,9.0,happy,16ms,3.0,2.0,0.0,16ms_happy,study2,0.0166242001578211
,36.0,0.9807855000253768,1.0,8.0,neutral,16ms,4.0,3.0,0.0,16ms_neutral,study2,0.0161125001031763
,36.0,0.9582374999299644,1.0,7.0,sad,25ms,5.0,4.0,0.0,25ms_sad,study2,0.0248608000110834
,36.0,0.7157962000928819,1.0,9.0,happy,16ms,6.0,5.0,0.0,16ms_happy,study2,0.0166964998934417
,36.0,0.5545488998759538,1.0,8.0,neutral,141ms,8.0,7.0,0.0,141ms_neutral,study2,0.1494568001944856
,36.0,0.547820599982515,1.0,9.0,happy,25ms,10.0,9.0,0.0,25ms_happy,study2,0.0246097000781446
,36.0,0.4661570000462234,1.0,9.0,happy,141ms,11.0,10.0,0.0,141ms_happy,study2,0.1499222000129521
,36.0,0.7136258999817073,1.0,7.0,sad,141ms,13.0,12.0,0.0,141ms_sad,study2,0.149873899994418
,36.0,1.2213259998243302,0.0,9.0,neutral,25ms,14.0,13.0,0.0,25ms_neutral,study2,0.0243190999608486
,36.0,0.5076690998394042,1.0,9.0,happy,25ms,15.0,14.0,0.0,25ms_happy,study2,0.0242299002129584
,36.0,0.6762838999275118,1.0,8.0,neutral,25ms,17.0,16.0,0.0,25ms_neutral,study2,0.0244539999403059
,36.0,0.5073082000017166,1.0,8.0,neutral,141ms,18.0,17.0,0.0,141ms_neutral,study2,0.1495648000854998
,36.0,0.485722699901089,1.0,9.0,happy,25ms,19.0,18.0,0.0,25ms_happy,study2,0.0248577001038938
,36.0,0.3123679999262094,1.0,9.0,happy,141ms,20.0,19.0,0.0,141ms_happy,study2,0.1499091999139636
,36.0,0.6178154998924583,1.0,8.0,neutral,16ms,21.0,20.0,0.0,16ms_neutral,study2,0.016107499832259
,36.0,0.6979545999784023,1.0,9.0,happy,16ms,23.0,22.0,0.0,16ms_happy,study2,0.0161633000243739
,36.0,0.5457787001505494,1.0,9.0,happy,25ms,25.0,24.0,0.0,25ms_happy,study2,0.0246162998955696
,36.0,0.7466541000176221,1.0,7.0,sad,25ms,26.0,25.0,0.0,25ms_sad,study2,0.024216399993719
,36.0,1.1668090000748634,1.0,7.0,sad,25ms,28.0,27.0,0.0,25ms_sad,study2,0.0248265999834984
,36.0,0.6956865000538528,1.0,7.0,sad,141ms,29.0,28.0,0.0,141ms_sad,study2,0.1498809000477479
,36.0,0.9826509999111296,1.0,8.0,neutral,16ms,30.0,29.0,0.0,16ms_neutral,study2,0.0164606000763001
,36.0,0.8612776000518352,1.0,8.0,neutral,16ms,31.0,30.0,0.0,16ms_neutral,study2,0.0160298000555485
,36.0,1.1244980001356453,1.0,7.0,sad,25ms,32.0,31.0,0.0,25ms_sad,study2,0.024910100037232
,36.0,0.5746253000106663,1.0,8.0,neutral,25ms,34.0,33.0,0.0,25ms_neutral,study2,0.0244576002005487
,36.0,0.6593967000953853,1.0,9.0,happy,16ms,35.0,34.0,0.0,16ms_happy,study2,0.0166889999527484
,36.0,0.4426313999574631,1.0,9.0,happy,25ms,36.0,35.0,0.0,25ms_happy,study2,0.0249836998991668
,36.0,0.7258208999410272,1.0,8.0,neutral,16ms,37.0,36.0,0.0,16ms_neutral,study2,0.0159452999942004
,36.0,0.647435599938035,0.0,8.0,sad,16ms,38.0,37.0,0.0,16ms_sad,study2,0.0163545000832527
,36.0,0.8785313998814672,1.0,7.0,sad,25ms,39.0,38.0,0.0,25ms_sad,study2,0.02474240004085
,36.0,1.2435982001479715,0.0,8.0,sad,25ms,40.0,39.0,0.0,25ms_sad,study2,0.0250718998722163
,36.0,0.6085373000241816,1.0,9.0,happy,25ms,43.0,42.0,0.0,25ms_happy,study2,0.0248807000461965
,36.0,1.1401394999120384,0.0,8.0,sad,141ms,45.0,44.0,0.0,141ms_sad,study2,0.1496832999400226
,36.0,0.574037800077349,1.0,9.0,happy,25ms,46.0,45.0,0.0,25ms_happy,study2,0.0248048999346792
,36.0,0.7534036000724882,1.0,9.0,happy,16ms,47.0,46.0,0.0,16ms_happy,study2,0.0165178000462447
,36.0,0.7642906000837684,1.0,8.0,neutral,16ms,49.0,48.0,0.0,16ms_neutral,study2,0.0160717000254067
,36.0,0.3807212999090552,1.0,8.0,neutral,141ms,50.0,49.0,0.0,141ms_neutral,study2,0.1496977999341311
,36.0,0.4646982001140713,1.0,9.0,happy,16ms,51.0,50.0,0.0,16ms_happy,study2,0.0164222000167342
,36.0,0.8745765001513064,1.0,7.0,sad,16ms,52.0,51.0,0.0,16ms_sad,study2,0.0162775001954287
,36.0,0.6243741000071168,1.0,8.0,neutral,16ms,53.0,52.0,0.0,16ms_neutral,study2,0.0162317000795155
,36.0,0.5820355999749154,1.0,9.0,happy,25ms,54.0,53.0,0.0,25ms_happy,study2,0.0245745000430019
,36.0,0.5874100001528859,1.0,7.0,sad,141ms,55.0,54.0,0.0,141ms_sad,study2,0.149419300025329
,36.0,0.4917803001590073,1.0,8.0,neutral,141ms,56.0,55.0,0.0,141ms_neutral,study2,0.1493502000811872
,36.0,1.127057099947706,1.0,7.0,sad,141ms,58.0,57.0,0.0,141ms_sad,study2,0.1497476000804454
,36.0,1.3776858998462558,0.0,8.0,sad,25ms,59.0,58.0,0.0,25ms_sad,study2,0.0246921998914331
,36.0,0.5414426999632269,1.0,9.0,happy,16ms,60.0,59.0,0.0,16ms_happy,study2,0.0164745999500155
,36.0,0.6192689000163227,1.0,8.0,neutral,25ms,61.0,60.0,0.0,25ms_neutral,study2,0.0245150001719594
,36.0,0.7017636001110077,1.0,8.0,neutral,25ms,62.0,61.0,0.0,25ms_neutral,study2,0.0240587000734535
,36.0,0.7545219999738038,1.0,9.0,happy,16ms,63.0,62.0,0.0,16ms_happy,study2,0.0160544998944374
,36.0,0.3630177001468837,1.0,8.0,neutral,141ms,64.0,63.0,0.0,141ms_neutral,study2,0.1494283999782624
,36.0,0.5128245998639613,0.0,8.0,sad,141ms,66.0,65.0,0.0,141ms_sad,study2,0.1496548000722555
,36.0,1.0096789998933673,0.0,8.0,sad,141ms,67.0,66.0,0.0,141ms_sad,study2,0.1493176999501884
,36.0,0.5366305999923497,1.0,9.0,happy,25ms,68.0,67.0,0.0,25ms_happy,study2,0.0242645998951047
,36.0,0.5747630998957902,1.0,9.0,happy,16ms,69.0,68.0,0.0,16ms_happy,study2,0.0161516000516712
,36.0,0.7765585000161082,0.0,8.0,sad,16ms,71.0,70.0,0.0,16ms_sad,study2,0.0165043000597506
,36.0,0.6000500000081956,1.0,8.0,neutral,16ms,73.0,72.0,0.0,16ms_neutral,study2,0.0159670999273657
,36.0,0.5509142999071628,1.0,8.0,neutral,25ms,74.0,73.0,0.0,25ms_neutral,study2,0.0243749998044222
,36.0,0.5654402000363916,1.0,8.0,neutral,16ms,76.0,75.0,0.0,16ms_neutral,study2,0.0159281999804079
,36.0,0.5791666998993605,1.0,8.0,neutral,25ms,78.0,77.0,0.0,25ms_neutral,study2,0.0243864001240581
,36.0,0.5938826000783592,0.0,8.0,sad,25ms,83.0,82.0,0.0,25ms_sad,study2,0.0247643999755382
,36.0,0.8767246000934392,1.0,9.0,happy,16ms,84.0,83.0,0.0,16ms_happy,study2,0.0166597999632358
,36.0,0.5594053000677377,1.0,8.0,neutral,25ms,85.0,84.0,0.0,25ms_neutral,study2,0.0244758001063019
,36.0,0.4103820000309497,1.0,8.0,neutral,141ms,88.0,87.0,0.0,141ms_neutral,study2,0.1496007998939603
,36.0,0.6393353000748903,1.0,9.0,happy,16ms,89.0,88.0,0.0,16ms_happy,study2,0.0164848999120295
,36.0,0.5099009999539703,1.0,9.0,happy,25ms,90.0,89.0,0.0,25ms_happy,study2,0.0243796000722795
,36.0,0.640682099852711,0.0,8.0,sad,25ms,91.0,90.0,0.0,25ms_sad,study2,0.0249783999752253
,36.0,0.4149999998044222,1.0,8.0,neutral,141ms,93.0,92.0,0.0,141ms_neutral,study2,0.1492256000638008
,36.0,0.4266715999692678,1.0,8.0,neutral,141ms,94.0,93.0,0.0,141ms_neutral,study2,0.1494585000909865
,36.0,0.628464300185442,0.0,9.0,sad,25ms,95.0,94.0,0.0,25ms_sad,study2,0.02421690011397
,36.0,0.4693127002101391,1.0,8.0,neutral,141ms,96.0,95.0,0.0,141ms_neutral,study2,0.1492675999179482
,36.0,0.8430413000751287,1.0,7.0,sad,25ms,97.0,96.0,0.0,25ms_sad,study2,0.0247027000878006
,36.0,0.5797798000276089,1.0,9.0,happy,141ms,98.0,97.0,0.0,141ms_happy,study2,0.1493878001347184
,36.0,1.2198298999574035,1.0,8.0,neutral,25ms,102.0,101.0,0.0,25ms_neutral,study2,0.0242450002115219
,36.0,0.5921269000973552,1.0,9.0,happy,25ms,103.0,102.0,0.0,25ms_happy,study2,0.0243935999460518
,36.0,0.4261207999661565,1.0,9.0,happy,141ms,104.0,103.0,0.0,141ms_happy,study2,0.1499185001011937
,36.0,0.8131083999760449,1.0,7.0,sad,141ms,106.0,105.0,0.0,141ms_sad,study2,0.1496646001469344
,36.0,0.6503533001523465,1.0,8.0,neutral,25ms,107.0,106.0,0.0,25ms_neutral,study2,0.0245640999637544
,36.0,0.5032810000702739,1.0,9.0,happy,25ms,108.0,107.0,0.0,25ms_happy,study2,0.0249425999354571
,36.0,0.5947256998624653,0.0,8.0,sad,16ms,109.0,108.0,0.0,16ms_sad,study2,0.0165383000858128
,36.0,0.6363764000125229,1.0,9.0,happy,16ms,111.0,110.0,0.0,16ms_happy,study2,0.0160662999842315
,36.0,0.5705148000270128,1.0,9.0,happy,25ms,114.0,113.0,0.0,25ms_happy,study2,0.0244107998441904
,36.0,0.4731548000127077,1.0,8.0,neutral,141ms,116.0,115.0,0.0,141ms_neutral,study2,0.1493887000251561
,36.0,0.8071703999303281,1.0,7.0,sad,141ms,119.0,118.0,0.0,141ms_sad,study2,0.1498551999684423
,36.0,0.7980045001022518,1.0,7.0,sad,25ms,120.0,119.0,0.0,25ms_sad,study2,0.0248864998575299
,36.0,0.7234012000262737,1.0,7.0,sad,25ms,121.0,0.0,1.0,25ms_sad,study2,0.0243961999658495
,36.0,0.5503680999390781,1.0,9.0,happy,16ms,123.0,2.0,1.0,16ms_happy,study2,0.0164822000078856
,36.0,0.3809277999680489,1.0,9.0,happy,141ms,124.0,3.0,1.0,141ms_happy,study2,0.1498622000217437
,36.0,0.4658460000064224,1.0,8.0,neutral,141ms,125.0,4.0,1.0,141ms_neutral,study2,0.1495291001630221
,36.0,0.9344518999569118,0.0,8.0,sad,141ms,126.0,5.0,1.0,141ms_sad,study2,0.1503425000702236
,36.0,0.7359512001276016,1.0,8.0,neutral,16ms,129.0,8.0,1.0,16ms_neutral,study2,0.0159569999669884
,36.0,0.5807406001258641,1.0,9.0,happy,25ms,132.0,11.0,1.0,25ms_happy,study2,0.0249101000371183
,36.0,0.486728899879381,1.0,9.0,happy,25ms,133.0,12.0,1.0,25ms_happy,study2,0.0246343999169766
,36.0,1.0610885000787675,0.0,8.0,sad,25ms,136.0,15.0,1.0,25ms_sad,study2,0.0246369999367743
,36.0,0.8793292001355439,0.0,8.0,sad,25ms,137.0,16.0,1.0,25ms_sad,study2,0.0243468999398146
,36.0,0.5641218000091612,1.0,9.0,happy,16ms,138.0,17.0,1.0,16ms_happy,study2,0.0158032001928631
,36.0,0.3894879999570548,1.0,8.0,neutral,141ms,139.0,18.0,1.0,141ms_neutral,study2,0.1493679999839514
,36.0,0.5224133001174778,1.0,8.0,neutral,16ms,140.0,19.0,1.0,16ms_neutral,study2,0.0158394000026191
,36.0,0.5003345001023263,1.0,9.0,happy,16ms,141.0,20.0,1.0,16ms_happy,study2,0.0166237999219447
,36.0,0.3753502999898046,1.0,8.0,neutral,141ms,143.0,22.0,1.0,141ms_neutral,study2,0.14953880012024
,36.0,0.8186896000988781,0.0,8.0,sad,16ms,144.0,23.0,1.0,16ms_sad,study2,0.0163746001198887
,36.0,0.4249654999002814,1.0,8.0,neutral,141ms,146.0,25.0,1.0,141ms_neutral,study2,0.1495438001584261
,36.0,0.5288970000110567,1.0,8.0,neutral,25ms,147.0,26.0,1.0,25ms_neutral,study2,0.0244187000207602
,36.0,0.4538557000923902,1.0,9.0,happy,16ms,148.0,27.0,1.0,16ms_happy,study2,0.0159052999224513
,36.0,0.8246404998935759,0.0,8.0,sad,25ms,150.0,29.0,1.0,25ms_sad,study2,0.0244477000087499
,36.0,0.4352647999767214,1.0,8.0,neutral,141ms,151.0,30.0,1.0,141ms_neutral,study2,0.1494569999631494
,36.0,0.8114891999866813,1.0,7.0,sad,16ms,152.0,31.0,1.0,16ms_sad,study2,0.0160207001026719
,36.0,0.6640906999818981,1.0,8.0,neutral,16ms,153.0,32.0,1.0,16ms_neutral,study2,0.01593629992567
,36.0,0.4781069001182914,1.0,8.0,neutral,25ms,154.0,33.0,1.0,25ms_neutral,study2,0.0242177001200616
,36.0,0.5216069999150932,1.0,9.0,happy,25ms,156.0,35.0,1.0,25ms_happy,study2,0.0246083000677117
,36.0,0.7488390998914838,0.0,8.0,sad,25ms,157.0,36.0,1.0,25ms_sad,study2,0.0243639000691473
,36.0,0.5031181001104414,0.0,8.0,sad,25ms,158.0,37.0,1.0,25ms_sad,study2,0.0248649998102337
,36.0,1.105773099930957,1.0,8.0,neutral,25ms,159.0,38.0,1.0,25ms_neutral,study2,0.0245187999680638
,36.0,0.7353999000042677,1.0,8.0,neutral,16ms,161.0,40.0,1.0,16ms_neutral,study2,0.0160099000206628
,36.0,0.6713382001034915,1.0,7.0,sad,141ms,162.0,41.0,1.0,141ms_sad,study2,0.1499660001134088
,36.0,0.4423626000061631,1.0,9.0,happy,25ms,163.0,42.0,1.0,25ms_happy,study2,0.0246302997693419
,36.0,0.5267161000519991,1.0,8.0,neutral,25ms,165.0,44.0,1.0,25ms_neutral,study2,0.0244950000198969
,36.0,0.4598352001048624,0.0,8.0,sad,16ms,167.0,46.0,1.0,16ms_sad,study2,0.0167872000019997
,36.0,0.6109585999511182,1.0,9.0,happy,25ms,169.0,48.0,1.0,25ms_happy,study2,0.0251259000506252
,36.0,0.4815770001150667,1.0,9.0,happy,25ms,170.0,49.0,1.0,25ms_happy,study2,0.0249207001179456
,36.0,0.6272758999839425,0.0,8.0,sad,16ms,171.0,50.0,1.0,16ms_sad,study2,0.0164422001689672
,36.0,0.498050200054422,1.0,9.0,happy,141ms,173.0,52.0,1.0,141ms_happy,study2,0.1499594000633806
,36.0,0.548834899906069,0.0,8.0,sad,16ms,175.0,54.0,1.0,16ms_sad,study2,0.0164508000016212
,36.0,0.9320918000303208,0.0,8.0,sad,25ms,176.0,55.0,1.0,25ms_sad,study2,0.0243695001120158
,36.0,0.6195243999827653,1.0,8.0,neutral,25ms,178.0,57.0,1.0,25ms_neutral,study2,0.0243745998016038
,36.0,1.0263971001841128,0.0,8.0,happy,16ms,181.0,60.0,1.0,16ms_happy,study2,0.0165756000205874
,36.0,0.4176947001833468,1.0,8.0,neutral,141ms,182.0,61.0,1.0,141ms_neutral,study2,0.1494583999738097
,36.0,0.3911894001066685,1.0,8.0,neutral,141ms,184.0,63.0,1.0,141ms_neutral,study2,0.1496536999475211
,36.0,0.3804189001675695,1.0,9.0,happy,141ms,187.0,66.0,1.0,141ms_happy,study2,0.1495099999012836
,36.0,0.689690199913457,1.0,8.0,neutral,16ms,189.0,68.0,1.0,16ms_neutral,study2,0.016230700071901
,36.0,0.8297341000288725,1.0,7.0,sad,25ms,190.0,69.0,1.0,25ms_sad,study2,0.0247762999497354
,36.0,0.56191990012303,0.0,8.0,sad,25ms,191.0,70.0,1.0,25ms_sad,study2,0.025055100210011
,36.0,0.4648396000266075,1.0,7.0,sad,141ms,193.0,72.0,1.0,141ms_sad,study2,0.1493591999169439
,36.0,0.5354920998215675,1.0,7.0,sad,141ms,196.0,75.0,1.0,141ms_sad,study2,0.1496566000860184
,36.0,0.6355403000488877,1.0,9.0,happy,16ms,198.0,77.0,1.0,16ms_happy,study2,0.0165991999674588
,36.0,0.3632433000020683,1.0,9.0,happy,141ms,199.0,78.0,1.0,141ms_happy,study2,0.1493649999611079
,36.0,0.5239697999786586,1.0,8.0,neutral,25ms,200.0,79.0,1.0,25ms_neutral,study2,0.0245165999513119
,36.0,1.0112393000163138,1.0,7.0,sad,141ms,202.0,81.0,1.0,141ms_sad,study2,0.1497235000133514
,36.0,0.4856971998233348,1.0,8.0,neutral,141ms,203.0,82.0,1.0,141ms_neutral,study2,0.1494258001912385
,36.0,0.734227400040254,0.0,8.0,sad,16ms,205.0,84.0,1.0,16ms_sad,study2,0.016465799883008
,36.0,0.5710259000770748,1.0,8.0,neutral,25ms,207.0,86.0,1.0,25ms_neutral,study2,0.024749899981316
,36.0,0.4946783001068979,1.0,9.0,happy,25ms,208.0,87.0,1.0,25ms_happy,study2,0.0249065998941659
,36.0,0.5265980998519808,1.0,8.0,neutral,25ms,209.0,88.0,1.0,25ms_neutral,study2,0.0245626999530941
,36.0,0.4021627998445183,0.0,8.0,sad,141ms,212.0,91.0,1.0,141ms_sad,study2,0.149568699998781
,36.0,0.4926276002079248,1.0,8.0,neutral,25ms,213.0,92.0,1.0,25ms_neutral,study2,0.0246697999536991
,36.0,0.8439152000937611,1.0,8.0,neutral,25ms,215.0,94.0,1.0,25ms_neutral,study2,0.0246828999370336
,36.0,0.4877080000005662,1.0,8.0,neutral,16ms,216.0,95.0,1.0,16ms_neutral,study2,0.0158500999677926
,36.0,0.6554669998586178,1.0,9.0,happy,25ms,218.0,97.0,1.0,25ms_happy,study2,0.0249797999858856
,36.0,0.566477800020948,1.0,8.0,neutral,25ms,221.0,100.0,1.0,25ms_neutral,study2,0.0243389999959617
,36.0,1.01031589997001,1.0,7.0,sad,141ms,222.0,101.0,1.0,141ms_sad,study2,0.1493332998361438
,36.0,0.5309943000320345,1.0,8.0,neutral,141ms,223.0,102.0,1.0,141ms_neutral,study2,0.1492152998689562
,36.0,0.8253323000390083,1.0,8.0,neutral,16ms,224.0,103.0,1.0,16ms_neutral,study2,0.0160004999490865
,36.0,0.7106977999210358,1.0,7.0,sad,141ms,226.0,105.0,1.0,141ms_sad,study2,0.1496069000568241
,36.0,0.3593007999006659,1.0,8.0,neutral,141ms,227.0,106.0,1.0,141ms_neutral,study2,0.1495422001462429
,36.0,0.4977738000452518,1.0,9.0,happy,25ms,228.0,107.0,1.0,25ms_happy,study2,0.0245423999149352
,36.0,0.4748718999326229,1.0,7.0,sad,141ms,229.0,108.0,1.0,141ms_sad,study2,0.1494355998004266
,36.0,0.4130273000337183,1.0,9.0,happy,141ms,233.0,112.0,1.0,141ms_happy,study2,0.1498908000066876
,36.0,0.3810516998637467,1.0,9.0,happy,141ms,234.0,113.0,1.0,141ms_happy,study2,0.1494501999111435
,36.0,0.5688599001150578,0.0,8.0,sad,16ms,235.0,114.0,1.0,16ms_sad,study2,0.0165407999884337
,36.0,0.7275199999567121,1.0,8.0,neutral,16ms,237.0,116.0,1.0,16ms_neutral,study2,0.016271699918434
,36.0,0.5482224998995662,1.0,9.0,happy,25ms,242.0,1.0,2.0,25ms_happy,study2,0.0242860000580549
,36.0,0.3574557998217642,1.0,9.0,happy,141ms,243.0,2.0,2.0,141ms_happy,study2,0.1493611999321729
,36.0,0.5187127999961376,1.0,9.0,happy,16ms,245.0,4.0,2.0,16ms_happy,study2,0.0167552998755127
,36.0,0.5441602999344468,1.0,9.0,happy,16ms,247.0,6.0,2.0,16ms_happy,study2,0.0158170999493449
,36.0,0.5114357999991626,1.0,7.0,sad,141ms,248.0,7.0,2.0,141ms_sad,study2,0.1495856000110507
,36.0,0.8263387000188231,0.0,8.0,sad,16ms,249.0,8.0,2.0,16ms_sad,study2,0.0164155000820755
,36.0,0.4897435000166297,1.0,8.0,neutral,141ms,250.0,9.0,2.0,141ms_neutral,study2,0.1497930998450556
,36.0,1.2240073999855667,0.0,9.0,sad,141ms,253.0,12.0,2.0,141ms_sad,study2,0.1500142998997944
,36.0,0.4865556999575346,1.0,9.0,happy,141ms,255.0,14.0,2.0,141ms_happy,study2,0.1496568999718874
,36.0,0.3455388001166284,1.0,9.0,happy,141ms,256.0,15.0,2.0,141ms_happy,study2,0.1499914999583325
,36.0,0.9194086999632418,1.0,7.0,sad,25ms,257.0,16.0,2.0,25ms_sad,study2,0.0243468000551274
,36.0,0.6197020998224616,1.0,8.0,neutral,16ms,258.0,17.0,2.0,16ms_neutral,study2,0.0163291001226753
,36.0,0.618745299987495,0.0,8.0,sad,16ms,259.0,18.0,2.0,16ms_sad,study2,0.0164042999970206
,36.0,0.5574107000138611,1.0,8.0,neutral,25ms,260.0,19.0,2.0,25ms_neutral,study2,0.0245869001369101
,36.0,0.3740912999492138,1.0,8.0,neutral,141ms,261.0,20.0,2.0,141ms_neutral,study2,0.1492789001204073
,36.0,1.0644487999379637,0.0,8.0,sad,25ms,262.0,21.0,2.0,25ms_sad,study2,0.0248716999774387
,36.0,0.5104482998140156,1.0,8.0,neutral,16ms,263.0,22.0,2.0,16ms_neutral,study2,0.0160892999267616
,36.0,0.399536499986425,1.0,9.0,happy,141ms,264.0,23.0,2.0,141ms_happy,study2,0.1493355999705272
,36.0,1.044916700106114,1.0,7.0,sad,16ms,266.0,25.0,2.0,16ms_sad,study2,0.0165687999690362
,36.0,0.4961629998870194,1.0,7.0,sad,141ms,267.0,26.0,2.0,141ms_sad,study2,0.1499260999260059
,36.0,0.5511668000835925,1.0,9.0,happy,16ms,268.0,27.0,2.0,16ms_happy,study2,0.0158905999269336
,36.0,0.3644401000346988,0.0,8.0,sad,141ms,271.0,30.0,2.0,141ms_sad,study2,0.149914999957673
,36.0,0.6566485001239926,1.0,8.0,neutral,16ms,272.0,31.0,2.0,16ms_neutral,study2,0.0163592000023982
,36.0,0.3728626000229269,1.0,9.0,happy,141ms,273.0,32.0,2.0,141ms_happy,study2,0.149680699919827
,36.0,0.3854729998856783,1.0,8.0,neutral,141ms,274.0,33.0,2.0,141ms_neutral,study2,0.1494827999270001
,36.0,0.7724609000142664,1.0,7.0,sad,25ms,275.0,34.0,2.0,25ms_sad,study2,0.0247571999204865
,36.0,0.5080178999342024,1.0,8.0,neutral,25ms,276.0,35.0,2.0,25ms_neutral,study2,0.0246199001558125
,36.0,0.5062170999590307,1.0,8.0,neutral,25ms,277.0,36.0,2.0,25ms_neutral,study2,0.0245629998387357
,36.0,0.559980700025335,1.0,7.0,sad,141ms,278.0,37.0,2.0,141ms_sad,study2,0.1493106000127682
,36.0,0.5020965998992324,1.0,8.0,neutral,141ms,280.0,39.0,2.0,141ms_neutral,study2,0.1494016000069677
,36.0,0.3229481000453233,1.0,8.0,neutral,141ms,281.0,40.0,2.0,141ms_neutral,study2,0.1497270001566448
,36.0,0.4335433000233024,1.0,8.0,neutral,16ms,282.0,41.0,2.0,16ms_neutral,study2,0.0161494999192655
,36.0,0.6372175998985767,1.0,9.0,happy,25ms,284.0,43.0,2.0,25ms_happy,study2,0.0246313998941332
,36.0,0.4037006001453846,1.0,8.0,neutral,141ms,286.0,45.0,2.0,141ms_neutral,study2,0.1494225999340415
,36.0,0.4909271001815796,0.0,8.0,sad,141ms,288.0,47.0,2.0,141ms_sad,study2,0.1497321999634095
,36.0,0.7210851002018899,1.0,7.0,sad,25ms,289.0,48.0,2.0,25ms_sad,study2,0.0249748998321592
,36.0,0.4914506999775767,1.0,8.0,neutral,141ms,291.0,50.0,2.0,141ms_neutral,study2,0.1493982998654246
,36.0,0.6272797000128776,1.0,8.0,neutral,16ms,292.0,51.0,2.0,16ms_neutral,study2,0.0159930000079384
,36.0,0.4903623999562114,1.0,9.0,happy,16ms,293.0,52.0,2.0,16ms_happy,study2,0.0164419999346137
,36.0,0.8725962999742478,0.0,8.0,happy,16ms,294.0,53.0,2.0,16ms_happy,study2,0.0163114999888875
,36.0,0.5430573001503944,1.0,8.0,neutral,25ms,295.0,54.0,2.0,25ms_neutral,study2,0.0243746000348892
,36.0,0.5772474999539554,1.0,9.0,happy,16ms,298.0,57.0,2.0,16ms_happy,study2,0.0164758001919835
,36.0,0.4173930999822914,1.0,9.0,happy,141ms,299.0,58.0,2.0,141ms_happy,study2,0.1495383000001311
,36.0,0.4938949001953006,1.0,9.0,happy,25ms,300.0,59.0,2.0,25ms_happy,study2,0.0242202999070286
,36.0,0.6004504999145865,0.0,8.0,sad,16ms,301.0,60.0,2.0,16ms_sad,study2,0.0162781998515129
,36.0,0.5042811001185328,1.0,8.0,neutral,25ms,302.0,61.0,2.0,25ms_neutral,study2,0.0242562000639736
,36.0,0.4558404001872986,1.0,9.0,happy,16ms,303.0,62.0,2.0,16ms_happy,study2,0.0165053999517112
,36.0,0.3493413999676704,1.0,9.0,happy,141ms,306.0,65.0,2.0,141ms_happy,study2,0.1493313999380916
,36.0,0.858490000013262,1.0,7.0,sad,25ms,308.0,67.0,2.0,25ms_sad,study2,0.0249592000623124
,36.0,0.4485308001749217,1.0,9.0,happy,25ms,309.0,68.0,2.0,25ms_happy,study2,0.0247853999021572
,36.0,0.8015936999581754,1.0,8.0,neutral,16ms,310.0,69.0,2.0,16ms_neutral,study2,0.0161089000757783
,36.0,0.4608338000252843,0.0,8.0,sad,141ms,311.0,70.0,2.0,141ms_sad,study2,0.1500886999997419
,36.0,0.5364236000459641,1.0,9.0,happy,16ms,312.0,71.0,2.0,16ms_happy,study2,0.016146499896422
,36.0,0.3000910000409931,1.0,9.0,happy,141ms,313.0,72.0,2.0,141ms_happy,study2,0.1496033000298666
,36.0,0.8776891999877989,0.0,9.0,neutral,16ms,314.0,73.0,2.0,16ms_neutral,study2,0.0159163998905569
,36.0,0.7667188001796603,1.0,7.0,sad,141ms,315.0,74.0,2.0,141ms_sad,study2,0.149883800185762
,36.0,0.5513710000086576,1.0,8.0,neutral,25ms,316.0,75.0,2.0,25ms_neutral,study2,0.0245125999208539
,36.0,0.5601594999898225,1.0,8.0,neutral,16ms,317.0,76.0,2.0,16ms_neutral,study2,0.0162780000828206
,36.0,0.5327113000676036,0.0,8.0,happy,16ms,318.0,77.0,2.0,16ms_happy,study2,0.0160761999431997
,36.0,0.3695737000089139,0.0,8.0,sad,141ms,319.0,78.0,2.0,141ms_sad,study2,0.1497598998253124
,36.0,0.812139900168404,1.0,7.0,sad,141ms,321.0,80.0,2.0,141ms_sad,study2,0.1498499000445008
,36.0,0.5434703000355512,1.0,9.0,happy,16ms,322.0,81.0,2.0,16ms_happy,study2,0.0167692999821156
,36.0,0.4931610999628901,1.0,7.0,sad,141ms,323.0,82.0,2.0,141ms_sad,study2,0.149447500007227
,36.0,0.8206419998314232,1.0,7.0,sad,141ms,325.0,84.0,2.0,141ms_sad,study2,0.1498747000005096
,36.0,0.3557172999717295,1.0,9.0,happy,141ms,327.0,86.0,2.0,141ms_happy,study2,0.1500004001422894
,36.0,0.3638494000770151,1.0,8.0,neutral,141ms,328.0,87.0,2.0,141ms_neutral,study2,0.1494954999075162
,36.0,0.6065213000401855,1.0,8.0,neutral,25ms,331.0,90.0,2.0,25ms_neutral,study2,0.0243178000673651
,36.0,0.4947065999731421,1.0,7.0,sad,141ms,332.0,91.0,2.0,141ms_sad,study2,0.1493083999957889
,36.0,0.7391941999085248,1.0,9.0,happy,16ms,334.0,93.0,2.0,16ms_happy,study2,0.0162154000722694
,36.0,0.3531206999905407,1.0,9.0,happy,141ms,335.0,94.0,2.0,141ms_happy,study2,0.1500266999928499
,36.0,0.4213401000015437,1.0,9.0,happy,25ms,336.0,95.0,2.0,25ms_happy,study2,0.0245701998942422
,36.0,0.4317875001579523,1.0,9.0,happy,25ms,337.0,96.0,2.0,25ms_happy,study2,0.0246997999493032
,36.0,0.4167853000108152,1.0,9.0,happy,25ms,338.0,97.0,2.0,25ms_happy,study2,0.0248856001999229
,36.0,0.7326579999644309,1.0,9.0,happy,16ms,340.0,99.0,2.0,16ms_happy,study2,0.0160342000890523
,36.0,0.3962477999739349,1.0,9.0,happy,141ms,342.0,101.0,2.0,141ms_happy,study2,0.1494194997940212
,36.0,0.2946752998977899,1.0,9.0,happy,141ms,343.0,102.0,2.0,141ms_happy,study2,0.1495129999238997
,36.0,0.705319199943915,0.0,8.0,sad,141ms,344.0,103.0,2.0,141ms_sad,study2,0.1500339000485837
,36.0,0.4495268000755459,1.0,8.0,neutral,141ms,345.0,104.0,2.0,141ms_neutral,study2,0.1495058999862522
,36.0,0.737280200002715,0.0,8.0,sad,16ms,346.0,105.0,2.0,16ms_sad,study2,0.0166790001094341
,36.0,0.490033800015226,1.0,8.0,neutral,25ms,347.0,106.0,2.0,25ms_neutral,study2,0.024548599962145
,36.0,0.5268552999477834,0.0,8.0,sad,25ms,348.0,107.0,2.0,25ms_sad,study2,0.0248236998445463
,36.0,0.4177043000236153,1.0,9.0,happy,16ms,349.0,108.0,2.0,16ms_happy,study2,0.0164892999455332
,36.0,0.2985372999683022,1.0,9.0,happy,141ms,350.0,109.0,2.0,141ms_happy,study2,0.1494223999325186
,36.0,0.5740982999559492,0.0,8.0,sad,25ms,352.0,111.0,2.0,25ms_sad,study2,0.0248714999756884
,36.0,0.7862952998839319,1.0,9.0,happy,16ms,353.0,112.0,2.0,16ms_happy,study2,0.0165359000670832
,36.0,0.8759894999675453,0.0,8.0,sad,16ms,355.0,114.0,2.0,16ms_sad,study2,0.0164828000124543
,36.0,0.5481970999389887,0.0,8.0,sad,141ms,356.0,115.0,2.0,141ms_sad,study2,0.1496133999899029
,36.0,0.5835306001827121,1.0,9.0,happy,25ms,359.0,118.0,2.0,25ms_happy,study2,0.024930799845606
,36.0,0.4400014001876116,1.0,8.0,neutral,141ms,360.0,119.0,2.0,141ms_neutral,study2,0.1495544998902005
,45.0,0.7096970000000056,1.0,8.0,neutral,141ms,0.0,,,141ms_neutral,study2,0.1492410999999833
,45.0,0.5402655999999979,1.0,9.0,happy,141ms,1.0,0.0,0.0,141ms_happy,study2,0.149980400000004
,45.0,0.7750813000000107,1.0,9.0,happy,16ms,2.0,1.0,0.0,16ms_happy,study2,0.0160159999999791
,45.0,0.6693831000000046,1.0,9.0,happy,16ms,3.0,2.0,0.0,16ms_happy,study2,0.0167169999999714
,45.0,0.64205800000002,1.0,8.0,neutral,16ms,4.0,3.0,0.0,16ms_neutral,study2,0.0161950000000388
,45.0,0.8993867000000364,1.0,7.0,sad,25ms,5.0,4.0,0.0,25ms_sad,study2,0.0249317999999902
,45.0,0.6967274999999518,1.0,9.0,happy,16ms,6.0,5.0,0.0,16ms_happy,study2,0.0165494000000308
,45.0,0.6236040000000003,1.0,8.0,neutral,141ms,8.0,7.0,0.0,141ms_neutral,study2,0.1493267000000031
,45.0,0.7046032000000082,1.0,9.0,happy,25ms,10.0,9.0,0.0,25ms_happy,study2,0.0245761999999984
,45.0,0.5425222000000076,1.0,9.0,happy,141ms,11.0,10.0,0.0,141ms_happy,study2,0.1497415000000046
,45.0,0.7253036999999836,1.0,7.0,sad,141ms,13.0,12.0,0.0,141ms_sad,study2,0.1498595999999565
,45.0,0.8147142999999915,1.0,8.0,neutral,25ms,14.0,13.0,0.0,25ms_neutral,study2,0.0245365000000106
,45.0,0.5968176000000085,1.0,9.0,happy,25ms,15.0,14.0,0.0,25ms_happy,study2,0.0249231000000236
,45.0,1.0462036000000126,0.0,8.0,sad,25ms,16.0,15.0,0.0,25ms_sad,study2,0.0252808000000186
,45.0,0.5857929000000013,1.0,8.0,neutral,25ms,17.0,16.0,0.0,25ms_neutral,study2,0.0232867999999939
,45.0,0.5196152999999981,1.0,8.0,neutral,141ms,18.0,17.0,0.0,141ms_neutral,study2,0.1495448999999666
,45.0,0.6023905000000127,1.0,9.0,happy,25ms,19.0,18.0,0.0,25ms_happy,study2,0.024827700000003
,45.0,0.4612005000000181,1.0,9.0,happy,141ms,20.0,19.0,0.0,141ms_happy,study2,0.1497492999999963
,45.0,0.7069616999999653,1.0,8.0,neutral,16ms,21.0,20.0,0.0,16ms_neutral,study2,0.0160897999999747
,45.0,0.766124399999967,0.0,8.0,sad,16ms,22.0,21.0,0.0,16ms_sad,study2,0.0164462000000185
,45.0,0.7701334999999858,1.0,9.0,happy,16ms,23.0,22.0,0.0,16ms_happy,study2,0.0162249999999914
,45.0,0.8374448000000143,1.0,7.0,sad,16ms,24.0,23.0,0.0,16ms_sad,study2,0.0161209000000042
,45.0,0.6888139999999794,1.0,9.0,happy,25ms,25.0,24.0,0.0,25ms_happy,study2,0.0245057000000201
,45.0,0.6095257999999717,1.0,7.0,sad,25ms,26.0,25.0,0.0,25ms_sad,study2,0.0245114000000228
,45.0,0.6618153999999663,1.0,8.0,neutral,16ms,27.0,26.0,0.0,16ms_neutral,study2,0.0163196999999968
,45.0,0.5744657999999845,1.0,7.0,sad,141ms,29.0,28.0,0.0,141ms_sad,study2,0.1499797999999828
,45.0,0.6922478999999839,1.0,8.0,neutral,16ms,30.0,29.0,0.0,16ms_neutral,study2,0.0164117000000203
,45.0,0.6827210999999807,1.0,8.0,neutral,16ms,31.0,30.0,0.0,16ms_neutral,study2,0.0160520000000019
,45.0,0.7155388999999559,1.0,8.0,neutral,25ms,34.0,33.0,0.0,25ms_neutral,study2,0.0244672000000036
,45.0,0.6483636000000388,1.0,9.0,happy,16ms,35.0,34.0,0.0,16ms_happy,study2,0.0163907999999537
,45.0,0.5910241000000269,1.0,9.0,happy,25ms,36.0,35.0,0.0,25ms_happy,study2,0.0247311000000536
,45.0,0.7769440000000714,1.0,8.0,neutral,16ms,37.0,36.0,0.0,16ms_neutral,study2,0.0159883000000036
,45.0,1.0904061999999612,1.0,7.0,sad,16ms,38.0,37.0,0.0,16ms_sad,study2,0.0165074999999887
,45.0,0.7855809999999792,1.0,7.0,sad,25ms,39.0,38.0,0.0,25ms_sad,study2,0.0248741000000336
,45.0,0.4598644000000149,1.0,9.0,happy,25ms,43.0,42.0,0.0,25ms_happy,study2,0.024706500000093
,45.0,1.0705236000000014,1.0,7.0,sad,141ms,45.0,44.0,0.0,141ms_sad,study2,0.1496282000000519
,45.0,0.5042885999999953,1.0,9.0,happy,25ms,46.0,45.0,0.0,25ms_happy,study2,0.0246012000000064
,45.0,0.6836365999999998,1.0,9.0,happy,16ms,47.0,46.0,0.0,16ms_happy,study2,0.0165408999999954
,45.0,0.7263980999999831,1.0,8.0,neutral,16ms,49.0,48.0,0.0,16ms_neutral,study2,0.0158561000000645
,45.0,0.4551196999999547,1.0,8.0,neutral,141ms,50.0,49.0,0.0,141ms_neutral,study2,0.1493833000000108
,45.0,0.7545824999999695,1.0,9.0,happy,16ms,51.0,50.0,0.0,16ms_happy,study2,0.0163950000000454
,45.0,0.6677027000000635,1.0,7.0,sad,16ms,52.0,51.0,0.0,16ms_sad,study2,0.0162251000000424
,45.0,0.6416500000000269,1.0,8.0,neutral,16ms,53.0,52.0,0.0,16ms_neutral,study2,0.0161752000000205
,45.0,0.5511895999999297,1.0,9.0,happy,25ms,54.0,53.0,0.0,25ms_happy,study2,0.024489800000083
,45.0,0.4922821999999769,1.0,7.0,sad,141ms,55.0,54.0,0.0,141ms_sad,study2,0.149515000000008
,45.0,0.5085992000000488,1.0,8.0,neutral,141ms,56.0,55.0,0.0,141ms_neutral,study2,0.1492139000000634
,45.0,0.5199678000000176,1.0,7.0,sad,141ms,58.0,57.0,0.0,141ms_sad,study2,0.1496465999999827
,45.0,0.6135763999999426,1.0,9.0,happy,16ms,60.0,59.0,0.0,16ms_happy,study2,0.0160082999998962
,45.0,0.8356410999999753,1.0,8.0,neutral,25ms,61.0,60.0,0.0,25ms_neutral,study2,0.0244371999999657
,45.0,0.4940963999999894,1.0,8.0,neutral,25ms,62.0,61.0,0.0,25ms_neutral,study2,0.0243051999999011
,45.0,0.7148971999999958,1.0,9.0,happy,16ms,63.0,62.0,0.0,16ms_happy,study2,0.0158649000000536
,45.0,0.3872941999999284,1.0,8.0,neutral,141ms,64.0,63.0,0.0,141ms_neutral,study2,0.1497032999999419
,45.0,0.8331609000000526,0.0,8.0,sad,141ms,66.0,65.0,0.0,141ms_sad,study2,0.1499888000000169
,45.0,0.6019185999999763,1.0,7.0,sad,141ms,67.0,66.0,0.0,141ms_sad,study2,0.1498573999999735
,45.0,0.4881318999999848,1.0,9.0,happy,25ms,68.0,67.0,0.0,25ms_happy,study2,0.0243177000000969
,45.0,0.6383277999999564,1.0,9.0,happy,16ms,69.0,68.0,0.0,16ms_happy,study2,0.0161387000000559
,45.0,0.7442733999999973,0.0,8.0,sad,16ms,71.0,70.0,0.0,16ms_sad,study2,0.0160897000000659
,45.0,0.7759598000000096,1.0,9.0,happy,16ms,72.0,71.0,0.0,16ms_happy,study2,0.0165872000000035
,45.0,0.6860463000000436,1.0,8.0,neutral,16ms,73.0,72.0,0.0,16ms_neutral,study2,0.0160697999999683
,45.0,0.5481734999999617,1.0,8.0,neutral,25ms,74.0,73.0,0.0,25ms_neutral,study2,0.0243488999999499
,45.0,0.5716688999999633,1.0,9.0,happy,25ms,75.0,74.0,0.0,25ms_happy,study2,0.0249718000000029
,45.0,0.7389464999999973,1.0,8.0,neutral,16ms,76.0,75.0,0.0,16ms_neutral,study2,0.0162035999999261
,45.0,0.6885829999999942,1.0,8.0,neutral,25ms,78.0,77.0,0.0,25ms_neutral,study2,0.0243535999999267
,45.0,0.5739025999999967,1.0,8.0,neutral,25ms,80.0,79.0,0.0,25ms_neutral,study2,0.0240857999999661
,45.0,0.6142332000000579,0.0,8.0,sad,25ms,83.0,82.0,0.0,25ms_sad,study2,0.0250015999999959
,45.0,0.6170266000000311,1.0,9.0,happy,16ms,84.0,83.0,0.0,16ms_happy,study2,0.016429300000027
,45.0,0.7240287999999282,1.0,8.0,neutral,25ms,85.0,84.0,0.0,25ms_neutral,study2,0.0246028999999907
,45.0,0.9494745000000648,0.0,9.0,sad,16ms,86.0,85.0,0.0,16ms_sad,study2,0.0164754999999559
,45.0,0.6073838999999452,1.0,8.0,neutral,16ms,87.0,86.0,0.0,16ms_neutral,study2,0.0162702999999737
,45.0,0.4880521000000044,1.0,8.0,neutral,141ms,88.0,87.0,0.0,141ms_neutral,study2,0.1494884999999612
,45.0,0.5869086000000152,1.0,9.0,happy,16ms,89.0,88.0,0.0,16ms_happy,study2,0.0158387999999831
,45.0,0.586213100000009,1.0,9.0,happy,25ms,90.0,89.0,0.0,25ms_happy,study2,0.0249314999999796
,45.0,0.6684781000000157,0.0,8.0,sad,25ms,91.0,90.0,0.0,25ms_sad,study2,0.0249366000000463
,45.0,0.4589595999999574,1.0,8.0,neutral,141ms,93.0,92.0,0.0,141ms_neutral,study2,0.1493304000000535
,45.0,0.510428999999931,1.0,8.0,neutral,141ms,94.0,93.0,0.0,141ms_neutral,study2,0.1494875000000775
,45.0,0.8076852000000372,1.0,7.0,sad,25ms,95.0,94.0,0.0,25ms_sad,study2,0.0246570999998994
,45.0,0.6242225999999391,1.0,8.0,neutral,141ms,96.0,95.0,0.0,141ms_neutral,study2,0.149479499999984
,45.0,0.7262977000000319,1.0,7.0,sad,25ms,97.0,96.0,0.0,25ms_sad,study2,0.0248732000000018
,45.0,0.5906393999999864,1.0,9.0,happy,141ms,98.0,97.0,0.0,141ms_happy,study2,0.1494958000000679
,45.0,0.675399099999936,1.0,7.0,sad,16ms,101.0,100.0,0.0,16ms_sad,study2,0.0160294000000931
,45.0,0.7343090999999049,1.0,8.0,neutral,25ms,102.0,101.0,0.0,25ms_neutral,study2,0.0247147999999697
,45.0,0.546616399999948,1.0,9.0,happy,25ms,103.0,102.0,0.0,25ms_happy,study2,0.0244157000000768
,45.0,0.3804241000000274,1.0,9.0,happy,141ms,104.0,103.0,0.0,141ms_happy,study2,0.1496082999999544
,45.0,0.6946666999999707,1.0,7.0,sad,141ms,106.0,105.0,0.0,141ms_sad,study2,0.1498367000000371
,45.0,0.7891276999999945,1.0,8.0,neutral,25ms,107.0,106.0,0.0,25ms_neutral,study2,0.0244149000000106
,45.0,0.5215774999999212,1.0,9.0,happy,25ms,108.0,107.0,0.0,25ms_happy,study2,0.0246266999999988
,45.0,0.7742858999999953,1.0,9.0,happy,16ms,111.0,110.0,0.0,16ms_happy,study2,0.0160844000000679
,45.0,0.5401699999999892,1.0,9.0,happy,25ms,114.0,113.0,0.0,25ms_happy,study2,0.0246184000000084
,45.0,0.4663995999999315,1.0,8.0,neutral,141ms,116.0,115.0,0.0,141ms_neutral,study2,0.1493312999998579
,45.0,1.18436789999987,1.0,7.0,sad,141ms,119.0,118.0,0.0,141ms_sad,study2,0.1499951999999211
,45.0,0.7592388999999002,1.0,7.0,sad,25ms,120.0,119.0,0.0,25ms_sad,study2,0.0249134000000594
,45.0,0.6411516999999094,1.0,8.0,neutral,16ms,122.0,1.0,1.0,16ms_neutral,study2,0.0159044999998059
,45.0,0.5108797000000322,1.0,9.0,happy,16ms,123.0,2.0,1.0,16ms_happy,study2,0.0163746999999148
,45.0,0.4538755999999466,1.0,9.0,happy,141ms,124.0,3.0,1.0,141ms_happy,study2,0.149503999999979
,45.0,0.5795690999998442,1.0,8.0,neutral,141ms,125.0,4.0,1.0,141ms_neutral,study2,0.1494330999998965
,45.0,0.9282812000001286,1.0,7.0,sad,141ms,126.0,5.0,1.0,141ms_sad,study2,0.1495609000000968
,45.0,0.609273900000062,1.0,7.0,sad,141ms,127.0,6.0,1.0,141ms_sad,study2,0.1499455999999099
,45.0,0.5112726000002112,1.0,9.0,happy,25ms,132.0,11.0,1.0,25ms_happy,study2,0.0250316000000339
,45.0,0.5289804000001368,1.0,9.0,happy,25ms,133.0,12.0,1.0,25ms_happy,study2,0.0249456000000236
,45.0,0.7759643000001688,1.0,7.0,sad,25ms,136.0,15.0,1.0,25ms_sad,study2,0.0245280999999977
,45.0,0.6504477000000861,1.0,7.0,sad,25ms,137.0,16.0,1.0,25ms_sad,study2,0.0243762999999717
,45.0,0.6308378999999604,1.0,9.0,happy,16ms,138.0,17.0,1.0,16ms_happy,study2,0.0160136000000647
,45.0,0.4964764000001196,1.0,8.0,neutral,141ms,139.0,18.0,1.0,141ms_neutral,study2,0.1493295000000216
,45.0,0.6134650000001329,1.0,8.0,neutral,16ms,140.0,19.0,1.0,16ms_neutral,study2,0.0158298999999715
,45.0,0.4899419999999281,1.0,8.0,neutral,141ms,143.0,22.0,1.0,141ms_neutral,study2,0.1490372000000661
,45.0,0.4756351000000904,1.0,8.0,neutral,141ms,146.0,25.0,1.0,141ms_neutral,study2,0.1495764999999664
,45.0,0.6038260000000264,1.0,8.0,neutral,25ms,147.0,26.0,1.0,25ms_neutral,study2,0.0244125999997777
,45.0,0.592360299999882,1.0,9.0,happy,16ms,148.0,27.0,1.0,16ms_happy,study2,0.0161772999999811
,45.0,0.7631505000001653,1.0,7.0,sad,25ms,150.0,29.0,1.0,25ms_sad,study2,0.0245291999997334
,45.0,0.4776174999999512,1.0,8.0,neutral,141ms,151.0,30.0,1.0,141ms_neutral,study2,0.1496145999999498
,45.0,0.7898631999998997,1.0,7.0,sad,16ms,152.0,31.0,1.0,16ms_sad,study2,0.016181299999971
,45.0,0.8504451999999674,1.0,8.0,neutral,16ms,153.0,32.0,1.0,16ms_neutral,study2,0.0160760000001118
,45.0,0.6963327999999365,1.0,8.0,neutral,25ms,154.0,33.0,1.0,25ms_neutral,study2,0.0242567999998755
,45.0,0.5555438000001232,1.0,9.0,happy,25ms,156.0,35.0,1.0,25ms_happy,study2,0.0244675999999799
,45.0,1.4309932999999546,0.0,8.0,sad,25ms,157.0,36.0,1.0,25ms_sad,study2,0.0240112000001317
,45.0,1.3052187000000686,1.0,7.0,sad,25ms,158.0,37.0,1.0,25ms_sad,study2,0.0247673999999733
,45.0,0.6838063000000147,1.0,8.0,neutral,25ms,159.0,38.0,1.0,25ms_neutral,study2,0.0245046999998521
,45.0,0.5210255999998026,1.0,7.0,sad,141ms,162.0,41.0,1.0,141ms_sad,study2,0.1498732000000018
,45.0,0.4766713999999865,1.0,9.0,happy,25ms,163.0,42.0,1.0,25ms_happy,study2,0.0244106999998621
,45.0,0.6481265999998413,1.0,8.0,neutral,25ms,165.0,44.0,1.0,25ms_neutral,study2,0.0244562000000314
,45.0,0.6695780000000013,0.0,8.0,sad,16ms,167.0,46.0,1.0,16ms_sad,study2,0.0165537000000313
,45.0,0.5488138999999137,1.0,9.0,happy,25ms,169.0,48.0,1.0,25ms_happy,study2,0.0247362999998586
,45.0,0.5311798000000181,1.0,9.0,happy,25ms,170.0,49.0,1.0,25ms_happy,study2,0.0245656999998118
,45.0,0.7490394999999808,0.0,8.0,sad,16ms,171.0,50.0,1.0,16ms_sad,study2,0.016455299999734
,45.0,0.3959689999999227,1.0,9.0,happy,141ms,173.0,52.0,1.0,141ms_happy,study2,0.1497822000001178
,45.0,0.6219361999999364,1.0,7.0,sad,25ms,176.0,55.0,1.0,25ms_sad,study2,0.0244705000000067
,45.0,0.7183388999999352,1.0,8.0,neutral,25ms,178.0,57.0,1.0,25ms_neutral,study2,0.0245139999999537
,45.0,0.7010190000000875,1.0,9.0,happy,16ms,181.0,60.0,1.0,16ms_happy,study2,0.0164776000001438
,45.0,0.4202004999999644,1.0,8.0,neutral,141ms,182.0,61.0,1.0,141ms_neutral,study2,0.149547499999926
,45.0,0.3538699000000633,1.0,8.0,neutral,141ms,184.0,63.0,1.0,141ms_neutral,study2,0.1493939999998019
,45.0,0.6964379000000918,1.0,8.0,neutral,16ms,185.0,64.0,1.0,16ms_neutral,study2,0.0158530000001064
,45.0,0.4549746000000141,1.0,9.0,happy,141ms,187.0,66.0,1.0,141ms_happy,study2,0.1499461000000792
,45.0,1.2090078000001083,0.0,8.0,sad,25ms,190.0,69.0,1.0,25ms_sad,study2,0.024889499999972
,45.0,0.644916799999919,0.0,8.0,sad,25ms,191.0,70.0,1.0,25ms_sad,study2,0.0247377000000597
,45.0,0.467759899999919,1.0,7.0,sad,141ms,193.0,72.0,1.0,141ms_sad,study2,0.1495883000000049
,45.0,0.4510345000001052,1.0,7.0,sad,141ms,196.0,75.0,1.0,141ms_sad,study2,0.1494476999998824
,45.0,0.5668269999998756,1.0,9.0,happy,16ms,198.0,77.0,1.0,16ms_happy,study2,0.0163792999999259
,45.0,0.3590871000001243,1.0,9.0,happy,141ms,199.0,78.0,1.0,141ms_happy,study2,0.1495208999999704
,45.0,0.6239417000001595,1.0,8.0,neutral,25ms,200.0,79.0,1.0,25ms_neutral,study2,0.0249019000000316
,45.0,0.8312935999999809,1.0,7.0,sad,141ms,202.0,81.0,1.0,141ms_sad,study2,0.1498579999999947
,45.0,0.5538252000001194,1.0,8.0,neutral,141ms,203.0,82.0,1.0,141ms_neutral,study2,0.1492984999999862
,45.0,0.5943809000000329,0.0,8.0,sad,16ms,205.0,84.0,1.0,16ms_sad,study2,0.0166364000001522
,45.0,0.6309395000000677,1.0,8.0,neutral,25ms,207.0,86.0,1.0,25ms_neutral,study2,0.0249244999999973
,45.0,0.4745589999999993,1.0,9.0,happy,25ms,208.0,87.0,1.0,25ms_happy,study2,0.0250399999999899
,45.0,0.5237445000000207,1.0,8.0,neutral,25ms,209.0,88.0,1.0,25ms_neutral,study2,0.0244903999998769
,45.0,0.879307899999958,0.0,8.0,sad,141ms,212.0,91.0,1.0,141ms_sad,study2,0.1496902999999747
,45.0,0.5779684999999972,1.0,8.0,neutral,25ms,213.0,92.0,1.0,25ms_neutral,study2,0.0243465000000924
,45.0,0.8181085999999596,1.0,8.0,neutral,25ms,215.0,94.0,1.0,25ms_neutral,study2,0.0243266999998468
,45.0,0.5824348999999529,1.0,8.0,neutral,16ms,216.0,95.0,1.0,16ms_neutral,study2,0.0160249000000476
,45.0,0.5739392999998927,1.0,9.0,happy,25ms,218.0,97.0,1.0,25ms_happy,study2,0.0248627999999371
,45.0,0.5888485000000401,1.0,8.0,neutral,25ms,221.0,100.0,1.0,25ms_neutral,study2,0.0243566000001465
,45.0,0.5672454000000471,1.0,7.0,sad,141ms,222.0,101.0,1.0,141ms_sad,study2,0.1490736999999171
,45.0,0.5439343999998982,1.0,8.0,neutral,141ms,223.0,102.0,1.0,141ms_neutral,study2,0.1492243000000144
,45.0,0.7265136999999413,1.0,8.0,neutral,16ms,224.0,103.0,1.0,16ms_neutral,study2,0.0154459999998834
,45.0,0.4836755999999695,1.0,7.0,sad,141ms,226.0,105.0,1.0,141ms_sad,study2,0.1503881000001001
,45.0,0.5481167000000369,1.0,8.0,neutral,141ms,227.0,106.0,1.0,141ms_neutral,study2,0.1495865999997931
,45.0,0.4545087000001331,1.0,9.0,happy,25ms,228.0,107.0,1.0,25ms_happy,study2,0.0247459999998227
,45.0,0.4716820999999527,1.0,7.0,sad,141ms,229.0,108.0,1.0,141ms_sad,study2,0.1497961000000032
,45.0,0.624840899999981,1.0,8.0,neutral,16ms,230.0,109.0,1.0,16ms_neutral,study2,0.0158756999999241
,45.0,0.3617813999999271,1.0,9.0,happy,141ms,233.0,112.0,1.0,141ms_happy,study2,0.1495887000000948
,45.0,0.3296027999999751,1.0,9.0,happy,141ms,234.0,113.0,1.0,141ms_happy,study2,0.1493253000001004
,45.0,0.9096075999998448,0.0,8.0,sad,16ms,235.0,114.0,1.0,16ms_sad,study2,0.0166431000000102
,45.0,0.6595757000000049,1.0,8.0,neutral,16ms,237.0,116.0,1.0,16ms_neutral,study2,0.0161250999997264
,45.0,0.5042112999999517,1.0,9.0,happy,25ms,242.0,1.0,2.0,25ms_happy,study2,0.0244425000000774
,45.0,0.377054500000213,1.0,9.0,happy,141ms,243.0,2.0,2.0,141ms_happy,study2,0.1495226999998067
,45.0,0.4417871999999079,1.0,9.0,happy,16ms,245.0,4.0,2.0,16ms_happy,study2,0.016684400000031
,45.0,0.5475039000000379,1.0,9.0,happy,16ms,247.0,6.0,2.0,16ms_happy,study2,0.0161075999999411
,45.0,0.4907794999999169,1.0,7.0,sad,141ms,248.0,7.0,2.0,141ms_sad,study2,0.1494978000000628
,45.0,0.9495586000000458,0.0,8.0,sad,16ms,249.0,8.0,2.0,16ms_sad,study2,0.0166585999998005
,45.0,0.5576724000000013,1.0,8.0,neutral,141ms,250.0,9.0,2.0,141ms_neutral,study2,0.1494619000000057
,45.0,0.8916836999999305,1.0,7.0,sad,141ms,253.0,12.0,2.0,141ms_sad,study2,0.1498857999999927
,45.0,0.3862116999998761,1.0,9.0,happy,141ms,255.0,14.0,2.0,141ms_happy,study2,0.1495643999999174
,45.0,0.4691101999999318,1.0,9.0,happy,141ms,256.0,15.0,2.0,141ms_happy,study2,0.149891199999729
,45.0,1.1947999999999863,1.0,7.0,sad,25ms,257.0,16.0,2.0,25ms_sad,study2,0.0244172999998681
,45.0,1.00709310000002,1.0,8.0,neutral,16ms,258.0,17.0,2.0,16ms_neutral,study2,0.0161196999999901
,45.0,0.6058395000000019,0.0,8.0,sad,16ms,259.0,18.0,2.0,16ms_sad,study2,0.0164925999999923
,45.0,0.6970369999999093,1.0,8.0,neutral,25ms,260.0,19.0,2.0,25ms_neutral,study2,0.0241207999999915
,45.0,0.449225099999694,1.0,8.0,neutral,141ms,261.0,20.0,2.0,141ms_neutral,study2,0.1493728999996619
,45.0,0.6835815999997976,0.0,8.0,sad,25ms,262.0,21.0,2.0,25ms_sad,study2,0.0247927999998864
,45.0,0.682078900000306,1.0,8.0,neutral,16ms,263.0,22.0,2.0,16ms_neutral,study2,0.0159980999999334
,45.0,0.3872387999999773,1.0,9.0,happy,141ms,264.0,23.0,2.0,141ms_happy,study2,0.1495995000000221
,45.0,0.5398074999998244,1.0,7.0,sad,141ms,267.0,26.0,2.0,141ms_sad,study2,0.149685399999953
,45.0,0.5070769000003565,1.0,9.0,happy,16ms,268.0,27.0,2.0,16ms_happy,study2,0.016070000000127
,45.0,0.8594372000002295,1.0,9.0,happy,16ms,269.0,28.0,2.0,16ms_happy,study2,0.0161822999998548
,45.0,0.7207209999996849,0.0,8.0,sad,141ms,271.0,30.0,2.0,141ms_sad,study2,0.1499679999999443
,45.0,0.4410945999998148,1.0,9.0,happy,141ms,273.0,32.0,2.0,141ms_happy,study2,0.1494155999998838
,45.0,0.469923000000108,1.0,8.0,neutral,141ms,274.0,33.0,2.0,141ms_neutral,study2,0.1494591999999102
,45.0,1.041519999999764,0.0,8.0,sad,25ms,275.0,34.0,2.0,25ms_sad,study2,0.0247513999997863
,45.0,0.5376894999999422,1.0,8.0,neutral,25ms,276.0,35.0,2.0,25ms_neutral,study2,0.0245658999999704
,45.0,0.599857400000019,1.0,8.0,neutral,25ms,277.0,36.0,2.0,25ms_neutral,study2,0.0245205000001078
,45.0,0.7578052999997453,1.0,7.0,sad,141ms,278.0,37.0,2.0,141ms_sad,study2,0.1495780000000195
,45.0,0.5244813999997859,1.0,8.0,neutral,141ms,280.0,39.0,2.0,141ms_neutral,study2,0.149376200000006
,45.0,0.4333514999998442,1.0,8.0,neutral,141ms,281.0,40.0,2.0,141ms_neutral,study2,0.1495120999998107
,45.0,0.4996303000002626,1.0,9.0,happy,25ms,284.0,43.0,2.0,25ms_happy,study2,0.025025800000094
,45.0,0.6665613000000121,1.0,8.0,neutral,141ms,286.0,45.0,2.0,141ms_neutral,study2,0.1494878000000881
,45.0,0.7058073000002878,1.0,7.0,sad,141ms,288.0,47.0,2.0,141ms_sad,study2,0.1498101999998198
,45.0,0.4666081000000304,1.0,8.0,neutral,141ms,291.0,50.0,2.0,141ms_neutral,study2,0.1493909000000712
,45.0,0.914170799999738,1.0,8.0,neutral,16ms,292.0,51.0,2.0,16ms_neutral,study2,0.016193899999962
,45.0,0.4732904000002236,1.0,9.0,happy,16ms,293.0,52.0,2.0,16ms_happy,study2,0.0165286999999807
,45.0,0.6074879000002511,1.0,9.0,happy,16ms,294.0,53.0,2.0,16ms_happy,study2,0.0165197999999691
,45.0,0.7028030000001309,1.0,8.0,neutral,25ms,295.0,54.0,2.0,25ms_neutral,study2,0.024498400000084
,45.0,0.5772225000000617,1.0,9.0,happy,16ms,298.0,57.0,2.0,16ms_happy,study2,0.0165580000000318
,45.0,0.3695082999997794,1.0,9.0,happy,141ms,299.0,58.0,2.0,141ms_happy,study2,0.1494559000000208
,45.0,0.565599900000052,1.0,9.0,happy,25ms,300.0,59.0,2.0,25ms_happy,study2,0.0243216999997457
,45.0,0.5604182000001856,1.0,8.0,neutral,25ms,302.0,61.0,2.0,25ms_neutral,study2,0.0242118999999547
,45.0,0.66459309999982,1.0,7.0,sad,141ms,304.0,63.0,2.0,141ms_sad,study2,0.1498157999999421
,45.0,0.3491595999998935,1.0,9.0,happy,141ms,306.0,65.0,2.0,141ms_happy,study2,0.1491095999999743
,45.0,0.6666685999998663,1.0,7.0,sad,25ms,308.0,67.0,2.0,25ms_sad,study2,0.0248800999997911
,45.0,0.4959561999999096,1.0,9.0,happy,25ms,309.0,68.0,2.0,25ms_happy,study2,0.0247651999998197
,45.0,0.5653443000001062,0.0,8.0,sad,141ms,311.0,70.0,2.0,141ms_sad,study2,0.1496750999999676
,45.0,0.8647746999999981,1.0,9.0,happy,16ms,312.0,71.0,2.0,16ms_happy,study2,0.0165195000004132
,45.0,0.3404897000000346,1.0,9.0,happy,141ms,313.0,72.0,2.0,141ms_happy,study2,0.1497805000003609
,45.0,1.1909639999998944,0.0,8.0,sad,141ms,315.0,74.0,2.0,141ms_sad,study2,0.1497511000002305
,45.0,0.7689119000001483,1.0,8.0,neutral,25ms,316.0,75.0,2.0,25ms_neutral,study2,0.0244382999999288
,45.0,1.07344779999994,1.0,8.0,neutral,16ms,317.0,76.0,2.0,16ms_neutral,study2,0.01610619999974
,45.0,0.5420297000000573,1.0,9.0,happy,16ms,318.0,77.0,2.0,16ms_happy,study2,0.016087299999981
,45.0,0.7325776999996378,1.0,7.0,sad,141ms,321.0,80.0,2.0,141ms_sad,study2,0.1498179999998683
,45.0,0.9923868000000766,0.0,7.0,happy,16ms,322.0,81.0,2.0,16ms_happy,study2,0.0165901999998823
,45.0,0.429987600000004,1.0,7.0,sad,141ms,323.0,82.0,2.0,141ms_sad,study2,0.1493513000000348
,45.0,0.5970151000001351,1.0,7.0,sad,141ms,325.0,84.0,2.0,141ms_sad,study2,0.1498604000003069
,45.0,0.3642556999998305,1.0,9.0,happy,141ms,327.0,86.0,2.0,141ms_happy,study2,0.1500229000002946
,45.0,0.8365142000002379,1.0,8.0,neutral,141ms,328.0,87.0,2.0,141ms_neutral,study2,0.1494835999997121
,45.0,1.2077280999997129,1.0,8.0,neutral,25ms,331.0,90.0,2.0,25ms_neutral,study2,0.0240797000001293
,45.0,0.4882861999999477,1.0,7.0,sad,141ms,332.0,91.0,2.0,141ms_sad,study2,0.1493848000000071
,45.0,1.0528054000001248,1.0,9.0,happy,16ms,334.0,93.0,2.0,16ms_happy,study2,0.0157690999999431
,45.0,0.370852399999876,1.0,9.0,happy,141ms,335.0,94.0,2.0,141ms_happy,study2,0.1495436000000154
,45.0,0.4788711999999577,1.0,9.0,happy,25ms,336.0,95.0,2.0,25ms_happy,study2,0.0249459000001479
,45.0,0.4251435999999557,1.0,9.0,happy,25ms,337.0,96.0,2.0,25ms_happy,study2,0.0244453999998768
,45.0,0.4822248999998919,1.0,9.0,happy,25ms,338.0,97.0,2.0,25ms_happy,study2,0.024901800000407
,45.0,0.6619924999999967,1.0,9.0,happy,16ms,340.0,99.0,2.0,16ms_happy,study2,0.0161308000001554
,45.0,0.7901950000000397,1.0,7.0,sad,141ms,341.0,100.0,2.0,141ms_sad,study2,0.1496010999994723
,45.0,0.3654781000000184,1.0,9.0,happy,141ms,342.0,101.0,2.0,141ms_happy,study2,0.1492839000002277
,45.0,0.3438602000001083,1.0,9.0,happy,141ms,343.0,102.0,2.0,141ms_happy,study2,0.1494877999998607
,45.0,1.466527699999915,1.0,7.0,sad,141ms,344.0,103.0,2.0,141ms_sad,study2,0.149710000000141
,45.0,0.3871184999998149,1.0,8.0,neutral,141ms,345.0,104.0,2.0,141ms_neutral,study2,0.1495135999998638
,45.0,1.1953026999999563,1.0,8.0,neutral,25ms,347.0,106.0,2.0,25ms_neutral,study2,0.024364300000343
,45.0,0.6725127999998222,1.0,7.0,sad,25ms,348.0,107.0,2.0,25ms_sad,study2,0.0246541999999863
,45.0,0.5708838999998989,1.0,9.0,happy,16ms,349.0,108.0,2.0,16ms_happy,study2,0.0162938999997095
,45.0,0.3560323000001517,1.0,9.0,happy,141ms,350.0,109.0,2.0,141ms_happy,study2,0.1494150000003173
,45.0,0.8953553999999713,0.0,8.0,sad,25ms,352.0,111.0,2.0,25ms_sad,study2,0.0248332999999547
,45.0,0.9808439000003092,1.0,7.0,sad,141ms,356.0,115.0,2.0,141ms_sad,study2,0.1493844999999964
,45.0,0.6164646000001994,1.0,9.0,happy,25ms,359.0,118.0,2.0,25ms_happy,study2,0.0248086999999941
,45.0,0.4333290999998098,1.0,8.0,neutral,141ms,360.0,119.0,2.0,141ms_neutral,study2,0.1493413999996846
,37.0,0.6088675998616964,1.0,8.0,neutral,141ms,0.0,,,141ms_neutral,study2,0.149328300030902
,37.0,0.4965021000243723,1.0,9.0,happy,141ms,1.0,0.0,0.0,141ms_happy,study2,0.1498200001660734
,37.0,0.8353973000776023,0.0,8.0,happy,16ms,2.0,1.0,0.0,16ms_happy,study2,0.0162881999276578
,37.0,0.6985750000458211,1.0,9.0,happy,16ms,3.0,2.0,0.0,16ms_happy,study2,0.0164882000535726
,37.0,0.712701000040397,0.0,8.0,sad,25ms,5.0,4.0,0.0,25ms_sad,study2,0.0248877999838583
,37.0,0.3964670998975634,1.0,8.0,neutral,141ms,8.0,7.0,0.0,141ms_neutral,study2,0.1493834001012146
,37.0,0.5813720000442117,1.0,9.0,happy,25ms,10.0,9.0,0.0,25ms_happy,study2,0.0247665999922901
,37.0,0.3634649000596255,1.0,9.0,happy,141ms,11.0,10.0,0.0,141ms_happy,study2,0.1499683000147342
,37.0,0.5630063000135124,1.0,7.0,sad,141ms,13.0,12.0,0.0,141ms_sad,study2,0.1498938999138772
,37.0,0.5745322001166642,1.0,8.0,neutral,25ms,14.0,13.0,0.0,25ms_neutral,study2,0.0245052000973373
,37.0,0.5006804000586271,1.0,9.0,happy,25ms,15.0,14.0,0.0,25ms_happy,study2,0.0248074000701024
,37.0,0.7198268999345601,0.0,8.0,sad,25ms,16.0,15.0,0.0,25ms_sad,study2,0.0251746999565511
,37.0,0.6204347999300808,1.0,8.0,neutral,25ms,17.0,16.0,0.0,25ms_neutral,study2,0.0244112000800669
,37.0,0.3633386001456529,1.0,8.0,neutral,141ms,18.0,17.0,0.0,141ms_neutral,study2,0.1495640999637544
,37.0,0.5336543000303209,1.0,9.0,happy,25ms,19.0,18.0,0.0,25ms_happy,study2,0.0249159999657138
,37.0,0.4086040998809039,1.0,9.0,happy,141ms,20.0,19.0,0.0,141ms_happy,study2,0.1498735002242028
,37.0,0.5937650999985635,1.0,8.0,neutral,16ms,21.0,20.0,0.0,16ms_neutral,study2,0.0161645000334829
,37.0,0.5811844000127167,0.0,8.0,sad,16ms,22.0,21.0,0.0,16ms_sad,study2,0.0165997999720559
,37.0,0.5649882999714464,0.0,8.0,sad,16ms,24.0,23.0,0.0,16ms_sad,study2,0.0166590998415188
,37.0,0.5525817000307143,1.0,9.0,happy,25ms,25.0,24.0,0.0,25ms_happy,study2,0.024597000097799
,37.0,0.6976496998686343,1.0,7.0,sad,25ms,26.0,25.0,0.0,25ms_sad,study2,0.0245161999482377
,37.0,0.6460452999453992,0.0,8.0,sad,25ms,28.0,27.0,0.0,25ms_sad,study2,0.0251049001235514
,37.0,0.5028331999201328,1.0,7.0,sad,141ms,29.0,28.0,0.0,141ms_sad,study2,0.150046600028844
,37.0,0.6694779000245035,1.0,8.0,neutral,16ms,30.0,29.0,0.0,16ms_neutral,study2,0.0160865997895598
,37.0,0.723028700100258,0.0,8.0,sad,25ms,32.0,31.0,0.0,25ms_sad,study2,0.0250444000121206
,37.0,0.5091840999666601,1.0,8.0,neutral,25ms,34.0,33.0,0.0,25ms_neutral,study2,0.0245741999242454
,37.0,0.5692573999986053,1.0,9.0,happy,25ms,36.0,35.0,0.0,25ms_happy,study2,0.025015200022608
,37.0,0.5470827999524772,1.0,8.0,neutral,16ms,37.0,36.0,0.0,16ms_neutral,study2,0.0164242999162524
,37.0,0.6526262999977916,0.0,8.0,sad,16ms,38.0,37.0,0.0,16ms_sad,study2,0.0167784001678228
,37.0,0.7157711000181735,0.0,8.0,sad,25ms,39.0,38.0,0.0,25ms_sad,study2,0.024496299913153
,37.0,0.5418227000627667,1.0,9.0,happy,25ms,43.0,42.0,0.0,25ms_happy,study2,0.0247307000681757
,37.0,0.8406221999321133,0.0,8.0,sad,16ms,44.0,43.0,0.0,16ms_sad,study2,0.0165629999246448
,37.0,0.4415373001247644,0.0,8.0,sad,141ms,45.0,44.0,0.0,141ms_sad,study2,0.1496943000238388
,37.0,0.5315252000000328,1.0,9.0,happy,25ms,46.0,45.0,0.0,25ms_happy,study2,0.0246997999493032
,37.0,0.7428825001697987,0.0,8.0,happy,16ms,47.0,46.0,0.0,16ms_happy,study2,0.016492399852666
,37.0,0.4332636001054197,1.0,8.0,neutral,141ms,50.0,49.0,0.0,141ms_neutral,study2,0.1494963001460405
,37.0,0.6365960000548512,1.0,8.0,neutral,16ms,53.0,52.0,0.0,16ms_neutral,study2,0.015954399947077
,37.0,0.4427744001150131,1.0,9.0,happy,25ms,54.0,53.0,0.0,25ms_happy,study2,0.0242574000732247
,37.0,0.4160291000735014,1.0,7.0,sad,141ms,55.0,54.0,0.0,141ms_sad,study2,0.1493363999760504
,37.0,0.5605286001227796,1.0,8.0,neutral,141ms,56.0,55.0,0.0,141ms_neutral,study2,0.1495297998189926
,37.0,0.7795669001061469,1.0,7.0,sad,141ms,58.0,57.0,0.0,141ms_sad,study2,0.1495749999302802
,37.0,0.8539722000714391,0.0,8.0,sad,25ms,59.0,58.0,0.0,25ms_sad,study2,0.0249226000159978
,37.0,0.4894123999401927,1.0,9.0,happy,16ms,60.0,59.0,0.0,16ms_happy,study2,0.0161124998703598
,37.0,0.5674583001527935,1.0,8.0,neutral,25ms,61.0,60.0,0.0,25ms_neutral,study2,0.0244432000909
,37.0,0.505525300046429,1.0,8.0,neutral,25ms,62.0,61.0,0.0,25ms_neutral,study2,0.0242193001321879
,37.0,0.7184747001156211,0.0,8.0,happy,16ms,63.0,62.0,0.0,16ms_happy,study2,0.0158021999523043
,37.0,0.4392000997904688,1.0,8.0,neutral,141ms,64.0,63.0,0.0,141ms_neutral,study2,0.1490831999108195
,37.0,0.3729660999961197,0.0,8.0,sad,141ms,66.0,65.0,0.0,141ms_sad,study2,0.1499618999660015
,37.0,0.4295306000858545,0.0,9.0,sad,141ms,67.0,66.0,0.0,141ms_sad,study2,0.1499761000741273
,37.0,0.5479393000714481,1.0,9.0,happy,25ms,68.0,67.0,0.0,25ms_happy,study2,0.0242429000791162
,37.0,0.6984816999174654,1.0,9.0,happy,16ms,69.0,68.0,0.0,16ms_happy,study2,0.0161664998158244
,37.0,0.5866463999263942,1.0,8.0,neutral,16ms,73.0,72.0,0.0,16ms_neutral,study2,0.0161829001735895
,37.0,0.5692037001717836,1.0,8.0,neutral,25ms,74.0,73.0,0.0,25ms_neutral,study2,0.0243706000037491
,37.0,0.5605512999463826,1.0,9.0,happy,25ms,75.0,74.0,0.0,25ms_happy,study2,0.0248976000584661
,37.0,0.6239843000657856,1.0,8.0,neutral,16ms,76.0,75.0,0.0,16ms_neutral,study2,0.0160376999992877
,37.0,0.7087997000198811,1.0,8.0,neutral,25ms,78.0,77.0,0.0,25ms_neutral,study2,0.0244290998671203
,37.0,0.5870926999486983,1.0,8.0,neutral,25ms,80.0,79.0,0.0,25ms_neutral,study2,0.0247324998490512
,37.0,0.5483651999384165,0.0,8.0,sad,25ms,83.0,82.0,0.0,25ms_sad,study2,0.0247141998261213
,37.0,0.5612574999686331,1.0,8.0,neutral,25ms,85.0,84.0,0.0,25ms_neutral,study2,0.0241751000285148
,37.0,0.3641653000377118,1.0,8.0,neutral,141ms,88.0,87.0,0.0,141ms_neutral,study2,0.1495083000045269
,37.0,0.6487253000959754,1.0,9.0,happy,16ms,89.0,88.0,0.0,16ms_happy,study2,0.0164459999650716
,37.0,0.5274446001276374,1.0,9.0,happy,25ms,90.0,89.0,0.0,25ms_happy,study2,0.0245214998722076
,37.0,0.457953599980101,0.0,8.0,sad,25ms,91.0,90.0,0.0,25ms_sad,study2,0.0249131999444216
,37.0,0.3612013000529259,1.0,8.0,neutral,141ms,93.0,92.0,0.0,141ms_neutral,study2,0.1492796000093221
,37.0,0.4208619999699294,1.0,8.0,neutral,141ms,94.0,93.0,0.0,141ms_neutral,study2,0.1494765998795628
,37.0,0.3112125999759882,1.0,8.0,neutral,141ms,96.0,95.0,0.0,141ms_neutral,study2,0.1492092001717537
,37.0,0.3738333999644965,1.0,9.0,happy,141ms,98.0,97.0,0.0,141ms_happy,study2,0.1494043001439422
,37.0,0.6778871999122202,1.0,8.0,neutral,25ms,102.0,101.0,0.0,25ms_neutral,study2,0.0243631000630557
,37.0,0.5544785999227315,1.0,9.0,happy,25ms,103.0,102.0,0.0,25ms_happy,study2,0.0243776999413967
,37.0,0.3723147001583129,1.0,9.0,happy,141ms,104.0,103.0,0.0,141ms_happy,study2,0.1494353001471609
,37.0,0.8226286000572145,1.0,7.0,sad,141ms,106.0,105.0,0.0,141ms_sad,study2,0.1499710001517087
,37.0,0.6440361000131816,1.0,8.0,neutral,25ms,107.0,106.0,0.0,25ms_neutral,study2,0.0244074000511318
,37.0,0.4648783998563885,1.0,9.0,happy,25ms,108.0,107.0,0.0,25ms_happy,study2,0.0248465000186115
,37.0,0.6846151000354439,0.0,8.0,sad,16ms,109.0,108.0,0.0,16ms_sad,study2,0.016542499884963
,37.0,0.6860527000389993,1.0,9.0,happy,16ms,111.0,110.0,0.0,16ms_happy,study2,0.0158569000195711
,37.0,0.5163577001076192,1.0,9.0,happy,25ms,114.0,113.0,0.0,25ms_happy,study2,0.0245850998908281
,37.0,0.4035726001020521,1.0,8.0,neutral,141ms,116.0,115.0,0.0,141ms_neutral,study2,0.149150300072506
,37.0,0.8094939000438899,1.0,7.0,sad,141ms,119.0,118.0,0.0,141ms_sad,study2,0.1500164000317454
,37.0,0.614438199903816,1.0,9.0,happy,16ms,123.0,2.0,1.0,16ms_happy,study2,0.0163887001108378
,37.0,0.4458687000442296,1.0,9.0,happy,141ms,124.0,3.0,1.0,141ms_happy,study2,0.1496772000100463
,37.0,0.4100277000106871,1.0,8.0,neutral,141ms,125.0,4.0,1.0,141ms_neutral,study2,0.1491344000678509
,37.0,0.7508779999334365,1.0,7.0,sad,141ms,126.0,5.0,1.0,141ms_sad,study2,0.1498324000276625
,37.0,0.5120252999477088,1.0,7.0,sad,141ms,127.0,6.0,1.0,141ms_sad,study2,0.1499848000239581
,37.0,0.8156822000164539,1.0,8.0,neutral,16ms,129.0,8.0,1.0,16ms_neutral,study2,0.0160695000085979
,37.0,0.6047986000776291,1.0,9.0,happy,25ms,132.0,11.0,1.0,25ms_happy,study2,0.0249304999599644
,37.0,0.4630858001764864,1.0,9.0,happy,25ms,133.0,12.0,1.0,25ms_happy,study2,0.0245999000036363
,37.0,0.5932418999727815,0.0,8.0,sad,25ms,136.0,15.0,1.0,25ms_sad,study2,0.0243249000052401
,37.0,0.5559429998975247,0.0,8.0,sad,25ms,137.0,16.0,1.0,25ms_sad,study2,0.0244356000331436
,37.0,0.6003977998625487,0.0,8.0,happy,16ms,138.0,17.0,1.0,16ms_happy,study2,0.0158167001790161
,37.0,0.3853366000112146,1.0,8.0,neutral,141ms,139.0,18.0,1.0,141ms_neutral,study2,0.1494668000376577
,37.0,0.5980907999910414,1.0,8.0,neutral,16ms,140.0,19.0,1.0,16ms_neutral,study2,0.0161571998613681
,37.0,0.4343204998876899,1.0,8.0,neutral,141ms,143.0,22.0,1.0,141ms_neutral,study2,0.1493281000293791
,37.0,0.5253278000745922,0.0,8.0,sad,16ms,144.0,23.0,1.0,16ms_sad,study2,0.0163259999827687
,37.0,0.3448285001795739,1.0,8.0,neutral,141ms,146.0,25.0,1.0,141ms_neutral,study2,0.1493108000140637
,37.0,0.4498330000787973,1.0,8.0,neutral,25ms,147.0,26.0,1.0,25ms_neutral,study2,0.0246383999474346
,37.0,0.5981276000384241,1.0,9.0,happy,16ms,148.0,27.0,1.0,16ms_happy,study2,0.0160517001056632
,37.0,1.187124599935487,0.0,9.0,sad,25ms,150.0,29.0,1.0,25ms_sad,study2,0.0244040999095886
,37.0,0.3729077000170946,1.0,8.0,neutral,141ms,151.0,30.0,1.0,141ms_neutral,study2,0.1496445999944171
,37.0,0.6533916001208127,0.0,8.0,sad,16ms,152.0,31.0,1.0,16ms_sad,study2,0.0158387001140454
,37.0,0.5516692001838237,1.0,8.0,neutral,25ms,154.0,33.0,1.0,25ms_neutral,study2,0.0247396999038755
,37.0,0.523524799849838,1.0,9.0,happy,25ms,156.0,35.0,1.0,25ms_happy,study2,0.0241509999611935
,37.0,0.8544968999922276,0.0,8.0,sad,25ms,157.0,36.0,1.0,25ms_sad,study2,0.0248125998771229
,37.0,0.5930750998668373,0.0,8.0,sad,25ms,158.0,37.0,1.0,25ms_sad,study2,0.024549099849537
,37.0,0.5058576001320034,1.0,8.0,neutral,25ms,159.0,38.0,1.0,25ms_neutral,study2,0.0247227000070324
,37.0,0.5992606999352574,1.0,8.0,neutral,16ms,161.0,40.0,1.0,16ms_neutral,study2,0.0160473999567329
,37.0,0.9345748000778258,1.0,7.0,sad,141ms,162.0,41.0,1.0,141ms_sad,study2,0.1495900000445544
,37.0,0.5617370000109076,1.0,9.0,happy,25ms,163.0,42.0,1.0,25ms_happy,study2,0.0255948000119587
,37.0,1.036034199874848,1.0,8.0,neutral,25ms,165.0,44.0,1.0,25ms_neutral,study2,0.0245537001173943
,37.0,0.5847107998561114,0.0,8.0,sad,16ms,167.0,46.0,1.0,16ms_sad,study2,0.0163861999753862
,37.0,0.5097109000198543,1.0,9.0,happy,25ms,169.0,48.0,1.0,25ms_happy,study2,0.0250155997928231
,37.0,0.4903165001887828,1.0,9.0,happy,25ms,170.0,49.0,1.0,25ms_happy,study2,0.0250338001642376
,37.0,0.3471741999965161,1.0,9.0,happy,141ms,173.0,52.0,1.0,141ms_happy,study2,0.1499228000175207
,37.0,0.8214491000398993,1.0,7.0,sad,25ms,176.0,55.0,1.0,25ms_sad,study2,0.0243822999766507
