,subj_idx,rt,correct,response,stim,level,real_trial_number,trial,block,conditions,study_number,primer_time
,3.0,0.7847714000381529,0.0,neutral,sad,25ms,4.0,0.0,0.0,25ms_sad,study1,0.0256241000373904
,3.0,0.4374761999351904,1.0,neutral,neutral,25ms,5.0,1.0,0.0,25ms_neutral,study1,0.0269782999879737
,3.0,1.2608012999407947,1.0,sad,sad,25ms,6.0,2.0,0.0,25ms_sad,study1,0.026748000097001
,3.0,1.3694255000445992,1.0,happy,happy,25ms,7.0,3.0,0.0,25ms_happy,study1,0.0263179999659826
,3.0,1.3480356999207288,1.0,sad,sad,25ms,9.0,5.0,0.0,25ms_sad,study1,0.0269464000943173
,3.0,1.0940157999284563,1.0,neutral,neutral,25ms,10.0,6.0,0.0,25ms_neutral,study1,0.0270356000750382
,3.0,0.6872843999881297,1.0,neutral,neutral,141ms,11.0,7.0,0.0,141ms_neutral,study1,0.1684169998974596
,3.0,1.0874801999889314,1.0,happy,happy,25ms,12.0,8.0,0.0,25ms_happy,study1,0.0269936999888216
,3.0,0.8046442000195384,1.0,neutral,neutral,141ms,13.0,9.0,0.0,141ms_neutral,study1,0.1599163000122843
,3.0,1.3713657999178397,1.0,happy,happy,25ms,14.0,10.0,0.0,25ms_happy,study1,0.0263736000401308
,3.0,1.3665516000473872,1.0,sad,sad,141ms,15.0,11.0,0.0,141ms_sad,study1,0.1303994999383633
,3.0,0.9706366000464186,1.0,neutral,neutral,141ms,16.0,12.0,0.0,141ms_neutral,study1,0.1689366000122447
,3.0,0.7969153000740334,1.0,happy,happy,25ms,17.0,13.0,0.0,25ms_happy,study1,0.0230012999731172
,3.0,0.9843363000545652,1.0,happy,happy,25ms,18.0,14.0,0.0,25ms_happy,study1,0.0221854000468795
,3.0,1.0919647000264376,1.0,sad,sad,141ms,20.0,16.0,0.0,141ms_sad,study1,0.1306255999137562
,3.0,0.7372800000011921,1.0,happy,happy,25ms,21.0,17.0,0.0,25ms_happy,study1,0.0222465000464637
,3.0,1.051478200010024,1.0,happy,happy,25ms,22.0,18.0,0.0,25ms_happy,study1,0.0256087000365425
,3.0,0.6841721000382677,1.0,happy,happy,141ms,23.0,19.0,0.0,141ms_happy,study1,0.130330900114501
,3.0,0.6446785000152886,1.0,happy,happy,141ms,24.0,20.0,0.0,141ms_happy,study1,0.1652760999626537
,3.0,0.9336231000488624,1.0,sad,sad,141ms,26.0,22.0,0.0,141ms_sad,study1,0.133587900002027
,3.0,0.9385678999824448,1.0,happy,happy,25ms,27.0,23.0,0.0,25ms_happy,study1,0.0222801999538262
,3.0,0.6087102999445051,1.0,happy,happy,141ms,28.0,24.0,0.0,141ms_happy,study1,0.1351772999973093
,3.0,0.5479251999640837,1.0,neutral,neutral,141ms,29.0,25.0,0.0,141ms_neutral,study1,0.1627303000190352
,3.0,0.6376081000780687,1.0,happy,happy,141ms,30.0,26.0,0.0,141ms_happy,study1,0.1343988000066076
,3.0,0.5837383000180125,1.0,happy,happy,25ms,31.0,27.0,0.0,25ms_happy,study1,0.0231628999230508
,3.0,0.8754065000684932,0.0,neutral,sad,25ms,32.0,28.0,0.0,25ms_sad,study1,0.025911800016189
,3.0,0.7463620000053197,1.0,neutral,neutral,141ms,33.0,29.0,0.0,141ms_neutral,study1,0.1643725999514629
,3.0,0.6003930999431759,1.0,neutral,neutral,141ms,34.0,30.0,0.0,141ms_neutral,study1,0.156215300003538
,3.0,0.7109116999199614,1.0,happy,happy,141ms,39.0,35.0,0.0,141ms_happy,study1,0.1595250999438917
,3.0,0.81887839990668,1.0,sad,sad,141ms,40.0,36.0,0.0,141ms_sad,study1,0.1681749999173405
,3.0,0.6122248000465333,1.0,neutral,neutral,141ms,41.0,37.0,0.0,141ms_neutral,study1,0.1664235999691072
,3.0,1.3244346999563277,0.0,happy,sad,25ms,42.0,38.0,0.0,25ms_sad,study1,0.0226388000068311
,3.0,0.9559991999994965,1.0,happy,happy,25ms,45.0,41.0,0.0,25ms_happy,study1,0.0265487999771778
,3.0,1.199209500104189,1.0,happy,happy,25ms,46.0,42.0,0.0,25ms_happy,study1,0.0232002999750022
,3.0,1.0100472000194711,1.0,happy,happy,141ms,48.0,44.0,0.0,141ms_happy,study1,0.1303779000067209
,3.0,1.4047082000179216,0.0,sad,neutral,141ms,52.0,48.0,0.0,141ms_neutral,study1,0.1537792999646683
,3.0,0.6415679999627173,1.0,happy,happy,141ms,54.0,50.0,0.0,141ms_happy,study1,0.1348311000387241
,3.0,0.7559977000346407,1.0,happy,happy,25ms,57.0,53.0,0.0,25ms_happy,study1,0.0261521999840397
,3.0,0.7439574999734759,1.0,neutral,neutral,141ms,59.0,55.0,0.0,141ms_neutral,study1,0.1653638000483681
,3.0,0.8255964999552816,1.0,happy,happy,141ms,60.0,56.0,0.0,141ms_happy,study1,0.1331749000004549
,3.0,1.0076835999498144,1.0,neutral,neutral,141ms,61.0,57.0,0.0,141ms_neutral,study1,0.1672213999903533
,3.0,0.6746092999819666,1.0,neutral,neutral,141ms,62.0,58.0,0.0,141ms_neutral,study1,0.1607867000042233
,3.0,1.0700503999833018,1.0,neutral,neutral,141ms,63.0,59.0,0.0,141ms_neutral,study1,0.1541454000747535
,3.0,0.7038352000527084,1.0,happy,happy,141ms,66.0,62.0,0.0,141ms_happy,study1,0.136239899939369
,3.0,0.6436371000017971,1.0,happy,happy,25ms,67.0,63.0,0.0,25ms_happy,study1,0.0223905999795306
,3.0,0.6427630999824032,1.0,happy,happy,25ms,68.0,64.0,0.0,25ms_happy,study1,0.0218150999047566
,3.0,0.9617087999358772,1.0,happy,happy,25ms,70.0,66.0,0.0,25ms_happy,study1,0.0215319999609846
,3.0,0.5575817000353709,1.0,happy,happy,25ms,71.0,67.0,0.0,25ms_happy,study1,0.0269394000409874
,3.0,0.4793753999983892,1.0,happy,happy,141ms,72.0,68.0,0.0,141ms_happy,study1,0.1358290000702027
,3.0,0.878341400064528,0.0,happy,sad,25ms,73.0,69.0,0.0,25ms_sad,study1,0.0232972000143263
,3.0,0.6139536999398842,1.0,happy,happy,25ms,74.0,70.0,0.0,25ms_happy,study1,0.0226602999376837
,3.0,1.0221766999457031,1.0,happy,happy,25ms,75.0,71.0,0.0,25ms_happy,study1,0.025969599990617
,3.0,0.2984500000020489,1.0,happy,happy,141ms,76.0,72.0,0.0,141ms_happy,study1,0.1587124999263096
,3.0,0.8713982000481337,0.0,happy,sad,25ms,77.0,73.0,0.0,25ms_sad,study1,0.0260894000879261
,3.0,0.8020585000049323,1.0,happy,happy,25ms,78.0,74.0,0.0,25ms_happy,study1,0.0257320000440586
,3.0,0.93279240000993,1.0,sad,sad,25ms,79.0,75.0,0.0,25ms_sad,study1,0.0261338999611098
,3.0,0.91630299994722,1.0,neutral,neutral,141ms,80.0,76.0,0.0,141ms_neutral,study1,0.1621901999808983
,3.0,1.2567603000206873,1.0,happy,happy,141ms,82.0,78.0,0.0,141ms_happy,study1,0.1566622000304391
,3.0,0.7517031999304891,1.0,sad,sad,141ms,83.0,79.0,0.0,141ms_sad,study1,0.1367029999731812
,3.0,1.3073909999802709,0.0,neutral,sad,25ms,85.0,81.0,0.0,25ms_sad,study1,0.0216759000089155
,3.0,0.7584322999464348,1.0,happy,happy,141ms,86.0,82.0,0.0,141ms_happy,study1,0.1309551999787572
,3.0,1.3529592999257147,1.0,sad,sad,25ms,88.0,84.0,0.0,25ms_sad,study1,0.0225306999985832
,3.0,0.8341973000206053,1.0,happy,happy,141ms,91.0,87.0,0.0,141ms_happy,study1,0.1563705000211257
,3.0,0.7428663000464439,1.0,sad,sad,141ms,92.0,88.0,0.0,141ms_sad,study1,0.13381429997969
,3.0,1.3791733999969438,1.0,sad,sad,25ms,93.0,89.0,0.0,25ms_sad,study1,0.0226910000550333
,3.0,1.0885056999977678,0.0,neutral,sad,25ms,94.0,90.0,0.0,25ms_sad,study1,0.0229036000440601
,3.0,0.9803660999750718,0.0,neutral,sad,25ms,96.0,92.0,0.0,25ms_sad,study1,0.0214326000190112
,3.0,1.2893533000024036,0.0,neutral,sad,141ms,97.0,93.0,0.0,141ms_sad,study1,0.1312911999760899
,3.0,0.9432974000228568,1.0,sad,sad,25ms,98.0,94.0,0.0,25ms_sad,study1,0.027468300110172
,3.0,0.518871600041166,1.0,sad,sad,141ms,99.0,95.0,0.0,141ms_sad,study1,0.1606871999450163
,3.0,0.70085410005413,1.0,happy,happy,141ms,101.0,97.0,0.0,141ms_happy,study1,0.1588593999970839
,3.0,1.037962899892591,1.0,neutral,neutral,25ms,102.0,98.0,0.0,25ms_neutral,study1,0.0252348999841842
,3.0,0.7568726999452338,1.0,sad,sad,141ms,103.0,99.0,0.0,141ms_sad,study1,0.1374748000292811
,3.0,0.694067700067535,1.0,neutral,neutral,141ms,104.0,100.0,0.0,141ms_neutral,study1,0.1665647999965926
,3.0,0.5934489000355825,1.0,sad,sad,141ms,105.0,101.0,0.0,141ms_sad,study1,0.1635078000020939
,3.0,0.7272136000683531,1.0,happy,happy,141ms,106.0,102.0,0.0,141ms_happy,study1,0.1590636000385643
,3.0,1.0112018999643624,1.0,sad,sad,25ms,107.0,103.0,0.0,25ms_sad,study1,0.0255173000390414
,3.0,1.0973211999516934,1.0,sad,sad,25ms,108.0,104.0,0.0,25ms_sad,study1,0.0271285999682504
,3.0,1.1995498000178486,1.0,happy,happy,25ms,109.0,105.0,0.0,25ms_happy,study1,0.0223253000644376
,3.0,0.7900983999716118,1.0,happy,happy,141ms,111.0,107.0,0.0,141ms_happy,study1,0.1578812999999854
,3.0,0.5069038999499753,1.0,sad,sad,141ms,112.0,108.0,0.0,141ms_sad,study1,0.1370178999262066
,3.0,1.4433694999897853,1.0,neutral,neutral,25ms,113.0,109.0,0.0,25ms_neutral,study1,0.0255893000052651
,3.0,0.5985306999646127,1.0,sad,sad,141ms,114.0,110.0,0.0,141ms_sad,study1,0.131736399990018
,3.0,0.435413800063543,1.0,happy,happy,141ms,115.0,111.0,0.0,141ms_happy,study1,0.1699883999885401
,3.0,0.6887286999262869,1.0,neutral,neutral,141ms,116.0,112.0,0.0,141ms_neutral,study1,0.1639073000172857
,3.0,0.8152136000571772,1.0,sad,sad,25ms,117.0,113.0,0.0,25ms_sad,study1,0.0264050000463953
,3.0,0.7421816000714898,1.0,happy,happy,25ms,118.0,114.0,0.0,25ms_happy,study1,0.0260289999771998
,3.0,0.7623354999814183,1.0,happy,happy,141ms,119.0,115.0,0.0,141ms_happy,study1,0.1601693999603526
,3.0,0.7016344000585377,1.0,sad,sad,141ms,120.0,116.0,0.0,141ms_sad,study1,0.1577066999510634
,3.0,0.819251999957487,1.0,neutral,neutral,141ms,121.0,117.0,0.0,141ms_neutral,study1,0.1613973999977815
,3.0,0.6220747999614105,1.0,neutral,neutral,141ms,122.0,118.0,0.0,141ms_neutral,study1,0.167139999952667
,3.0,0.6774568000109866,1.0,neutral,neutral,141ms,123.0,119.0,0.0,141ms_neutral,study1,0.1686289999983046
,3.0,1.3629466999555009,0.0,neutral,sad,16ms,124.0,0.0,1.0,16ms_sad,study1,0.014865900075506
,3.0,0.8019749000668526,1.0,neutral,neutral,16ms,125.0,1.0,1.0,16ms_neutral,study1,0.0170900000142637
,3.0,0.6388279000530019,1.0,sad,sad,141ms,126.0,2.0,1.0,141ms_sad,study1,0.1587853000149834
,3.0,0.7684739000396803,1.0,sad,sad,141ms,127.0,3.0,1.0,141ms_sad,study1,0.1309314999147091
,3.0,0.7765679000876844,0.0,sad,neutral,141ms,128.0,4.0,1.0,141ms_neutral,study1,0.1610446999897021
,3.0,0.8511471999809146,1.0,neutral,neutral,16ms,131.0,7.0,1.0,16ms_neutral,study1,0.0170335000497061
,3.0,1.2822332999203354,0.0,neutral,sad,16ms,133.0,9.0,1.0,16ms_sad,study1,0.0152463000617331
,3.0,0.7621062999824062,1.0,neutral,neutral,141ms,134.0,10.0,1.0,141ms_neutral,study1,0.1638954999274346
,3.0,0.6479916999815032,1.0,neutral,neutral,141ms,135.0,11.0,1.0,141ms_neutral,study1,0.1588276999886488
,3.0,1.0929655999643728,0.0,neutral,sad,16ms,136.0,12.0,1.0,16ms_sad,study1,0.0151430000900063
,3.0,0.6415159000316635,1.0,happy,happy,141ms,137.0,13.0,1.0,141ms_happy,study1,0.1316058000433599
,3.0,0.5247762000653893,1.0,happy,happy,141ms,138.0,14.0,1.0,141ms_happy,study1,0.1551613000104339
,3.0,0.7179861000040546,1.0,neutral,neutral,141ms,139.0,15.0,1.0,141ms_neutral,study1,0.1602655999944318
,3.0,0.7210764000192285,1.0,neutral,neutral,16ms,140.0,16.0,1.0,16ms_neutral,study1,0.0161641999496851
,3.0,0.7360464000375941,1.0,happy,happy,16ms,141.0,17.0,1.0,16ms_happy,study1,0.0176639999612575
,3.0,1.362657899968326,0.0,neutral,sad,141ms,142.0,18.0,1.0,141ms_sad,study1,0.1399072999250279
,3.0,0.6629511999199167,1.0,happy,happy,141ms,143.0,19.0,1.0,141ms_happy,study1,0.1363794000702682
,3.0,0.9720729000400752,1.0,happy,happy,16ms,144.0,20.0,1.0,16ms_happy,study1,0.0153671999345306
,3.0,0.5974573000567034,1.0,happy,happy,141ms,145.0,21.0,1.0,141ms_happy,study1,0.1375052000279311
,3.0,0.9637956999940798,1.0,neutral,neutral,141ms,148.0,24.0,1.0,141ms_neutral,study1,0.1596014999435056
,3.0,0.6499664000002667,1.0,happy,happy,16ms,149.0,25.0,1.0,16ms_happy,study1,0.0163034000783
,3.0,1.2342993998900056,1.0,neutral,neutral,16ms,150.0,26.0,1.0,16ms_neutral,study1,0.0170447000185731
,3.0,1.39202699996531,1.0,happy,happy,16ms,151.0,27.0,1.0,16ms_happy,study1,0.0171060000196803
,3.0,0.7189330999972299,1.0,sad,sad,141ms,152.0,28.0,1.0,141ms_sad,study1,0.1351690000504959
,3.0,0.5783873999025673,1.0,happy,happy,141ms,153.0,29.0,1.0,141ms_happy,study1,0.1613151000696007
,3.0,0.9036256999243052,1.0,happy,happy,16ms,154.0,30.0,1.0,16ms_happy,study1,0.0153038000338483
,3.0,1.296374100027606,1.0,happy,happy,16ms,155.0,31.0,1.0,16ms_happy,study1,0.0165615000645402
,3.0,0.6753483999054879,1.0,neutral,neutral,141ms,156.0,32.0,1.0,141ms_neutral,study1,0.1599504000390652
,3.0,1.0583322000456974,0.0,neutral,sad,16ms,157.0,33.0,1.0,16ms_sad,study1,0.0152103000203851
,3.0,0.8149733999744058,1.0,happy,happy,16ms,159.0,35.0,1.0,16ms_happy,study1,0.0151005999999824
,3.0,0.665490600047633,1.0,neutral,neutral,141ms,160.0,36.0,1.0,141ms_neutral,study1,0.1651451000128645
,3.0,0.7014316000277176,1.0,neutral,neutral,141ms,161.0,37.0,1.0,141ms_neutral,study1,0.16101760001618
,3.0,0.4973368999781087,1.0,happy,happy,141ms,162.0,38.0,1.0,141ms_happy,study1,0.1570106000057194
,3.0,0.5810494000324979,1.0,happy,happy,141ms,163.0,39.0,1.0,141ms_happy,study1,0.1372796999406773
,3.0,0.5749638999113813,1.0,happy,happy,16ms,164.0,40.0,1.0,16ms_happy,study1,0.0152341999695408
,3.0,1.280675599933602,1.0,neutral,neutral,141ms,165.0,41.0,1.0,141ms_neutral,study1,0.1590376999578211
,3.0,0.6708770000841469,1.0,happy,happy,141ms,166.0,42.0,1.0,141ms_happy,study1,0.1365069999941397
,3.0,0.555631999974139,1.0,happy,happy,141ms,167.0,43.0,1.0,141ms_happy,study1,0.1595863000605959
,3.0,1.2694189000176266,0.0,neutral,sad,141ms,168.0,44.0,1.0,141ms_sad,study1,0.1352778999483916
,3.0,0.9900247999466956,1.0,neutral,neutral,16ms,169.0,45.0,1.0,16ms_neutral,study1,0.0177791999070677
,3.0,1.0437289000255987,1.0,neutral,neutral,16ms,170.0,46.0,1.0,16ms_neutral,study1,0.0171413000556412
,3.0,0.7069604999851435,1.0,happy,happy,16ms,171.0,47.0,1.0,16ms_happy,study1,0.0172958000679273
,3.0,1.0161503999261186,1.0,neutral,neutral,141ms,172.0,48.0,1.0,141ms_neutral,study1,0.1557730000116635
,3.0,0.5908060999354348,1.0,happy,happy,16ms,173.0,49.0,1.0,16ms_happy,study1,0.0153372000553417
,3.0,0.6326850999612361,1.0,happy,happy,16ms,174.0,50.0,1.0,16ms_happy,study1,0.0172065000864449
,3.0,1.177231700043194,1.0,neutral,neutral,141ms,175.0,51.0,1.0,141ms_neutral,study1,0.1602359000011119
,3.0,0.6051234999904409,1.0,happy,happy,141ms,176.0,52.0,1.0,141ms_happy,study1,0.1372166000422794
,3.0,0.514240000047721,1.0,happy,happy,141ms,177.0,53.0,1.0,141ms_happy,study1,0.1377628000103641
,3.0,0.4975820999825373,1.0,happy,happy,16ms,178.0,54.0,1.0,16ms_happy,study1,0.0150363000924471
,3.0,0.4466750000137836,1.0,happy,happy,141ms,179.0,55.0,1.0,141ms_happy,study1,0.1346278000040683
,3.0,0.7846206999383867,1.0,neutral,neutral,141ms,180.0,56.0,1.0,141ms_neutral,study1,0.1537047999794367
,3.0,0.6752869000192732,1.0,sad,sad,141ms,181.0,57.0,1.0,141ms_sad,study1,0.1352279000333283
,3.0,0.9853919999441132,1.0,neutral,neutral,141ms,182.0,58.0,1.0,141ms_neutral,study1,0.1619024000013951
,3.0,0.6841011999640614,1.0,sad,sad,141ms,183.0,59.0,1.0,141ms_sad,study1,0.1330487999715615
,3.0,0.6574320000363514,1.0,sad,sad,141ms,185.0,61.0,1.0,141ms_sad,study1,0.1368740999954525
,3.0,0.6740895999828354,1.0,neutral,neutral,141ms,186.0,62.0,1.0,141ms_neutral,study1,0.1658064999268163
,3.0,0.654674299992621,1.0,sad,sad,141ms,187.0,63.0,1.0,141ms_sad,study1,0.1370506999431882
,3.0,0.657009300077334,1.0,happy,happy,141ms,188.0,64.0,1.0,141ms_happy,study1,0.1369577999342937
,3.0,0.7013435999397188,1.0,neutral,neutral,141ms,189.0,65.0,1.0,141ms_neutral,study1,0.1623790000215876
,3.0,0.723575200070627,1.0,happy,happy,16ms,191.0,67.0,1.0,16ms_happy,study1,0.0148219999740604
,3.0,0.5624299000483006,1.0,sad,sad,141ms,192.0,68.0,1.0,141ms_sad,study1,0.168561599950749
,3.0,1.2772067999467254,0.0,sad,neutral,141ms,193.0,69.0,1.0,141ms_neutral,study1,0.1672228000010136
,3.0,0.5986326999263838,1.0,neutral,neutral,141ms,195.0,71.0,1.0,141ms_neutral,study1,0.1600673999986384
,3.0,0.5095117000164464,1.0,sad,sad,141ms,197.0,73.0,1.0,141ms_sad,study1,0.1556131999590206
,3.0,0.5885644999798387,1.0,neutral,neutral,141ms,198.0,74.0,1.0,141ms_neutral,study1,0.1684331000200245
,3.0,1.0296810999279842,1.0,neutral,neutral,16ms,202.0,78.0,1.0,16ms_neutral,study1,0.0167655999888438
,3.0,0.5655109999934211,1.0,happy,happy,141ms,203.0,79.0,1.0,141ms_happy,study1,0.1314052000292349
,3.0,1.314013000112027,1.0,neutral,neutral,16ms,204.0,80.0,1.0,16ms_neutral,study1,0.0163193999673012
,3.0,0.6755045000463724,1.0,happy,happy,16ms,205.0,81.0,1.0,16ms_happy,study1,0.0154824999975744
,3.0,0.6233442999655381,1.0,happy,happy,16ms,206.0,82.0,1.0,16ms_happy,study1,0.0167413000366423
,3.0,0.3642897000536322,1.0,happy,happy,141ms,207.0,83.0,1.0,141ms_happy,study1,0.1317762000602442
,3.0,1.1927418999839574,0.0,sad,neutral,16ms,208.0,84.0,1.0,16ms_neutral,study1,0.0164825000450719
,3.0,1.1137351000215858,1.0,neutral,neutral,16ms,209.0,85.0,1.0,16ms_neutral,study1,0.0168139000073779
,3.0,0.6143181999213994,1.0,happy,happy,16ms,210.0,86.0,1.0,16ms_happy,study1,0.0149189000134128
,3.0,0.6564956000074744,1.0,sad,sad,141ms,211.0,87.0,1.0,141ms_sad,study1,0.1377774000051204
,3.0,0.5558696000371128,1.0,sad,sad,141ms,212.0,88.0,1.0,141ms_sad,study1,0.1328744000405777
,3.0,1.044041299959645,0.0,neutral,happy,16ms,213.0,89.0,1.0,16ms_happy,study1,0.015299500001106
,3.0,0.4991888999938965,1.0,happy,happy,141ms,214.0,90.0,1.0,141ms_happy,study1,0.1316257999627623
,3.0,0.4430291999597102,1.0,sad,sad,141ms,215.0,91.0,1.0,141ms_sad,study1,0.1313408000045228
,3.0,1.0409629000350833,0.0,neutral,sad,16ms,216.0,92.0,1.0,16ms_sad,study1,0.0148402999969903
,3.0,0.9833443999523296,1.0,neutral,neutral,141ms,217.0,93.0,1.0,141ms_neutral,study1,0.1646545000024843
,3.0,0.5079124999465421,1.0,sad,sad,141ms,218.0,94.0,1.0,141ms_sad,study1,0.1578023999812785
,3.0,0.9891390999546276,1.0,neutral,neutral,141ms,219.0,95.0,1.0,141ms_neutral,study1,0.1606410000589448
,3.0,0.6820808000629768,1.0,happy,happy,141ms,220.0,96.0,1.0,141ms_happy,study1,0.1344725999864522
,3.0,0.9167787000769748,0.0,neutral,sad,141ms,221.0,97.0,1.0,141ms_sad,study1,0.1308997000218141
,3.0,0.9682343000313268,1.0,sad,sad,141ms,222.0,98.0,1.0,141ms_sad,study1,0.1356720999232266
,3.0,1.2435437000822276,1.0,sad,sad,141ms,223.0,99.0,1.0,141ms_sad,study1,0.1696254000183898
,3.0,0.6212166999466717,1.0,happy,happy,141ms,225.0,101.0,1.0,141ms_happy,study1,0.1371922999736625
,3.0,1.1074855999322608,1.0,neutral,neutral,16ms,227.0,103.0,1.0,16ms_neutral,study1,0.0162659000255871
,3.0,0.5425455999793485,1.0,happy,happy,141ms,228.0,104.0,1.0,141ms_happy,study1,0.1337175999418605
,3.0,0.8047713999403641,1.0,neutral,neutral,16ms,229.0,105.0,1.0,16ms_neutral,study1,0.0161025000619474
,3.0,0.6078337000217289,1.0,sad,sad,141ms,230.0,106.0,1.0,141ms_sad,study1,0.1375375000410486
,3.0,0.6674743999028578,1.0,happy,happy,16ms,231.0,107.0,1.0,16ms_happy,study1,0.015270499896701
,3.0,1.252797900000587,0.0,happy,sad,16ms,232.0,108.0,1.0,16ms_sad,study1,0.0171049000113043
,3.0,1.2650692999595776,0.0,happy,sad,16ms,233.0,109.0,1.0,16ms_sad,study1,0.0150285999174002
,3.0,0.5373379000229761,1.0,happy,happy,16ms,234.0,110.0,1.0,16ms_happy,study1,0.0166332000284228
,3.0,0.8407989999977872,1.0,neutral,neutral,16ms,235.0,111.0,1.0,16ms_neutral,study1,0.0171208999003056
,3.0,0.8393025000113994,1.0,happy,happy,16ms,237.0,113.0,1.0,16ms_happy,study1,0.0153364000492501
,3.0,1.3825222000014037,1.0,happy,happy,16ms,239.0,115.0,1.0,16ms_happy,study1,0.0168103999807271
,3.0,0.8980624000541866,1.0,neutral,neutral,16ms,240.0,116.0,1.0,16ms_neutral,study1,0.0170572999981004
,3.0,0.7934835000196472,1.0,neutral,neutral,16ms,241.0,117.0,1.0,16ms_neutral,study1,0.0172471999306935
,3.0,0.7557224000338465,1.0,neutral,neutral,16ms,242.0,118.0,1.0,16ms_neutral,study1,0.0172887000138644
,3.0,0.8059547999873757,0.0,neutral,sad,16ms,243.0,119.0,1.0,16ms_sad,study1,0.0155947999213594
,3.0,0.4761816000100225,1.0,happy,happy,141ms,244.0,0.0,2.0,141ms_happy,study1,0.1577271999907452
,3.0,0.3777776000788435,1.0,happy,happy,141ms,245.0,1.0,2.0,141ms_happy,study1,0.1677808999432954
,3.0,0.7928907000459731,1.0,sad,sad,141ms,246.0,2.0,2.0,141ms_sad,study1,0.1344673000625107
,3.0,0.9959653000114486,1.0,sad,sad,141ms,248.0,4.0,2.0,141ms_sad,study1,0.1352490999619249
,3.0,0.8776372999418527,1.0,neutral,neutral,141ms,249.0,5.0,2.0,141ms_neutral,study1,0.1678352000075165
,3.0,1.025624500005506,1.0,neutral,neutral,8ms,250.0,6.0,2.0,8ms_neutral,study1,0.0083276999997679
,3.0,1.020611000014469,1.0,neutral,neutral,141ms,251.0,7.0,2.0,141ms_neutral,study1,0.16650289999086
,3.0,0.5208332999609411,1.0,happy,happy,141ms,252.0,8.0,2.0,141ms_happy,study1,0.1596250000060308
,3.0,1.1374562000855803,1.0,neutral,neutral,141ms,254.0,10.0,2.0,141ms_neutral,study1,0.1688006000243831
,3.0,0.978481600061059,1.0,neutral,neutral,8ms,255.0,11.0,2.0,8ms_neutral,study1,0.0083276999997679
,3.0,0.9893987000687048,1.0,neutral,neutral,8ms,256.0,12.0,2.0,8ms_neutral,study1,0.0083276999997679
,3.0,0.8472039999905974,0.0,neutral,sad,8ms,258.0,14.0,2.0,8ms_sad,study1,0.0083276999997679
,3.0,0.631408300017938,0.0,neutral,happy,8ms,259.0,15.0,2.0,8ms_happy,study1,0.0083276999997679
,3.0,0.6861216999823228,0.0,neutral,sad,8ms,260.0,16.0,2.0,8ms_sad,study1,0.0083276999997679
,3.0,1.1898027000715956,1.0,neutral,neutral,8ms,261.0,17.0,2.0,8ms_neutral,study1,0.0083276999997679
,3.0,1.249748899950646,0.0,neutral,sad,8ms,262.0,18.0,2.0,8ms_sad,study1,0.0083276999997679
,3.0,0.8817608999088407,1.0,neutral,neutral,141ms,263.0,19.0,2.0,141ms_neutral,study1,0.16843210001241
,3.0,0.6710464999778196,1.0,neutral,neutral,8ms,264.0,20.0,2.0,8ms_neutral,study1,0.0083276999997679
,3.0,1.138188699958846,0.0,neutral,sad,8ms,265.0,21.0,2.0,8ms_sad,study1,0.0083276999997679
,3.0,0.5749221000587568,1.0,happy,happy,141ms,266.0,22.0,2.0,141ms_happy,study1,0.161819899955276
,3.0,0.6417431000154465,1.0,happy,happy,141ms,267.0,23.0,2.0,141ms_happy,study1,0.1323953000013489
,3.0,0.6566533000441268,1.0,neutral,neutral,141ms,268.0,24.0,2.0,141ms_neutral,study1,0.1670173999503958
,3.0,0.7422601999714971,0.0,neutral,happy,8ms,269.0,25.0,2.0,8ms_happy,study1,0.0083276999997679
,3.0,0.6962220000568777,0.0,neutral,sad,8ms,270.0,26.0,2.0,8ms_sad,study1,0.0083276999997679
,3.0,0.9258142999606208,0.0,sad,neutral,141ms,271.0,27.0,2.0,141ms_neutral,study1,0.1709597999346215
,3.0,0.5472495999420062,1.0,happy,happy,141ms,272.0,28.0,2.0,141ms_happy,study1,0.1366834000567678
,3.0,1.4238396000582725,1.0,neutral,neutral,8ms,274.0,30.0,2.0,8ms_neutral,study1,0.0083276999997679
,3.0,1.2914482000051066,1.0,sad,sad,141ms,275.0,31.0,2.0,141ms_sad,study1,0.1678696000366244
,3.0,0.4737183999968692,1.0,sad,sad,141ms,276.0,32.0,2.0,141ms_sad,study1,0.134821000078432
,3.0,0.4646068000001833,1.0,sad,sad,141ms,277.0,33.0,2.0,141ms_sad,study1,0.1316855000679879
,3.0,1.3174563000211492,1.0,neutral,neutral,8ms,278.0,34.0,2.0,8ms_neutral,study1,0.0083276999998815
,3.0,0.5016565000405535,1.0,happy,happy,141ms,279.0,35.0,2.0,141ms_happy,study1,0.1711633999715331
,3.0,0.9566651999484748,0.0,neutral,happy,8ms,281.0,37.0,2.0,8ms_happy,study1,0.0083276999995405
,3.0,0.5855570000130683,1.0,neutral,neutral,8ms,282.0,38.0,2.0,8ms_neutral,study1,0.0083276999997679
,3.0,0.7990636000176892,1.0,neutral,neutral,8ms,284.0,40.0,2.0,8ms_neutral,study1,0.0083276999998815
,3.0,0.4835556000471115,0.0,neutral,happy,8ms,285.0,41.0,2.0,8ms_happy,study1,0.0083276999999952
,3.0,0.7129902000306174,1.0,sad,sad,141ms,286.0,42.0,2.0,141ms_sad,study1,0.133856200065793
,3.0,0.7751580000622198,1.0,happy,happy,141ms,288.0,44.0,2.0,141ms_happy,study1,0.1344174000317934
,3.0,0.6024584000697359,1.0,sad,sad,141ms,289.0,45.0,2.0,141ms_sad,study1,0.1306544000167377
,3.0,0.7628497000550851,0.0,sad,neutral,141ms,290.0,46.0,2.0,141ms_neutral,study1,0.1658890999735831
,3.0,0.5539887000340968,1.0,sad,sad,141ms,291.0,47.0,2.0,141ms_sad,study1,0.1303773000022374
,3.0,1.1038519999710843,0.0,neutral,sad,8ms,292.0,48.0,2.0,8ms_sad,study1,0.0083276999995405
,3.0,0.662791799986735,0.0,neutral,happy,8ms,293.0,49.0,2.0,8ms_happy,study1,0.0083276999997679
,3.0,0.7423883000155911,1.0,neutral,neutral,8ms,294.0,50.0,2.0,8ms_neutral,study1,0.0083276999997679
,3.0,0.8591126000974327,1.0,happy,happy,141ms,295.0,51.0,2.0,141ms_happy,study1,0.1347112999413866
,3.0,0.8824418999720365,0.0,neutral,sad,8ms,296.0,52.0,2.0,8ms_sad,study1,0.0083276999995405
,3.0,1.3666677000001073,1.0,neutral,neutral,141ms,297.0,53.0,2.0,141ms_neutral,study1,0.1545254000577642
,3.0,0.63748520007357,0.0,neutral,sad,8ms,298.0,54.0,2.0,8ms_sad,study1,0.0083276999997679
,3.0,0.5455481000244617,1.0,happy,happy,141ms,299.0,55.0,2.0,141ms_happy,study1,0.1356748999445471
,3.0,0.779858099995181,0.0,neutral,sad,8ms,300.0,56.0,2.0,8ms_sad,study1,0.0083276999997679
,3.0,0.5945306000066921,1.0,neutral,neutral,8ms,301.0,57.0,2.0,8ms_neutral,study1,0.0083276999995405
,3.0,0.628268500091508,0.0,neutral,happy,8ms,302.0,58.0,2.0,8ms_happy,study1,0.0083276999995405
,3.0,0.5168973999097943,1.0,happy,happy,141ms,303.0,59.0,2.0,141ms_happy,study1,0.1349125999607849
,3.0,0.8523375999648124,0.0,neutral,sad,8ms,304.0,60.0,2.0,8ms_sad,study1,0.0083276999999952
,3.0,0.6571885000448674,1.0,happy,happy,141ms,305.0,61.0,2.0,141ms_happy,study1,0.168883500073548
,3.0,0.7512418000260368,0.0,neutral,happy,8ms,306.0,62.0,2.0,8ms_happy,study1,0.0083276999997679
,3.0,0.7977791000157595,1.0,neutral,neutral,8ms,307.0,63.0,2.0,8ms_neutral,study1,0.0083276999998815
,3.0,0.5967173000099137,1.0,sad,sad,141ms,311.0,67.0,2.0,141ms_sad,study1,0.16293470006201
,3.0,1.0150304000126198,1.0,neutral,neutral,8ms,312.0,68.0,2.0,8ms_neutral,study1,0.0083276999998815
,3.0,1.1526274000061676,1.0,neutral,neutral,8ms,313.0,69.0,2.0,8ms_neutral,study1,0.0083276999998815
,3.0,0.4547258999664336,1.0,happy,happy,141ms,314.0,70.0,2.0,141ms_happy,study1,0.1690717999940716
,3.0,0.7771066999994218,1.0,neutral,neutral,8ms,315.0,71.0,2.0,8ms_neutral,study1,0.0083276999998815
,3.0,0.6795236000325531,1.0,sad,sad,141ms,316.0,72.0,2.0,141ms_sad,study1,0.1342068999424555
,3.0,1.429195799981244,1.0,neutral,neutral,141ms,317.0,73.0,2.0,141ms_neutral,study1,0.1576402000268899
,3.0,0.530720999930054,1.0,happy,happy,141ms,318.0,74.0,2.0,141ms_happy,study1,0.1344799999264978
,3.0,1.27687300008256,1.0,neutral,neutral,8ms,319.0,75.0,2.0,8ms_neutral,study1,0.0083276999998815
,3.0,0.983712900080718,1.0,happy,happy,8ms,320.0,76.0,2.0,8ms_happy,study1,0.0083276999998815
,3.0,0.5181896999711171,1.0,happy,happy,141ms,321.0,77.0,2.0,141ms_happy,study1,0.1525153000022783
,3.0,0.6504228999838233,0.0,neutral,sad,8ms,322.0,78.0,2.0,8ms_sad,study1,0.0083276999998815
,3.0,0.42797319998499,1.0,happy,happy,141ms,323.0,79.0,2.0,141ms_happy,study1,0.135846199968455
,3.0,0.8171715000644326,0.0,neutral,sad,8ms,324.0,80.0,2.0,8ms_sad,study1,0.0083276999998815
,3.0,0.4728954000165686,1.0,happy,happy,141ms,325.0,81.0,2.0,141ms_happy,study1,0.131373100017754
,3.0,0.697452099993825,1.0,neutral,neutral,8ms,326.0,82.0,2.0,8ms_neutral,study1,0.0083276999998815
,3.0,0.4092398000648245,1.0,happy,happy,141ms,327.0,83.0,2.0,141ms_happy,study1,0.1353374999366678
,3.0,0.741643299930729,1.0,happy,happy,141ms,328.0,84.0,2.0,141ms_happy,study1,0.1700375000132226
,3.0,0.496152599924244,1.0,happy,happy,141ms,329.0,85.0,2.0,141ms_happy,study1,0.1349810999004148
,3.0,0.5353305999888107,1.0,sad,sad,141ms,330.0,86.0,2.0,141ms_sad,study1,0.1384497000021838
,3.0,0.6678823999827728,0.0,neutral,sad,8ms,331.0,87.0,2.0,8ms_sad,study1,0.0083276999996542
,3.0,0.5864061000756919,0.0,neutral,sad,8ms,332.0,88.0,2.0,8ms_sad,study1,0.0083276999998815
,3.0,1.0097614999394864,1.0,sad,sad,141ms,333.0,89.0,2.0,141ms_sad,study1,0.134475300007125
,3.0,0.5628688000142574,0.0,neutral,sad,8ms,334.0,90.0,2.0,8ms_sad,study1,0.0083276999998815
,3.0,0.519858599989675,0.0,neutral,sad,8ms,335.0,91.0,2.0,8ms_sad,study1,0.0083277000001089
,3.0,1.462489999947138,0.0,sad,neutral,8ms,337.0,93.0,2.0,8ms_neutral,study1,0.0083276999998815
,3.0,0.74586659995839,1.0,neutral,neutral,141ms,338.0,94.0,2.0,141ms_neutral,study1,0.1686856999644987
,3.0,0.9228292000479996,0.0,neutral,sad,8ms,339.0,95.0,2.0,8ms_sad,study1,0.0083277000001089
,3.0,0.4653545999899506,0.0,neutral,sad,8ms,340.0,96.0,2.0,8ms_sad,study1,0.0083276999994268
,3.0,0.5124607000034302,1.0,neutral,neutral,8ms,341.0,97.0,2.0,8ms_neutral,study1,0.0083276999998815
,3.0,0.5496495000552386,1.0,happy,happy,141ms,342.0,98.0,2.0,141ms_happy,study1,0.1335110999991684
,3.0,1.1039096000604331,0.0,neutral,sad,8ms,344.0,100.0,2.0,8ms_sad,study1,0.0083276999998815
,3.0,1.1166889000451192,0.0,sad,neutral,141ms,345.0,101.0,2.0,141ms_neutral,study1,0.1576307999550863
,3.0,0.6234700999921188,0.0,neutral,sad,8ms,346.0,102.0,2.0,8ms_sad,study1,0.0083276999998815
,3.0,0.921658599982038,0.0,neutral,happy,8ms,347.0,103.0,2.0,8ms_happy,study1,0.0083276999998815
,3.0,0.6829067000653595,1.0,neutral,neutral,8ms,348.0,104.0,2.0,8ms_neutral,study1,0.0083276999998815
,3.0,0.4824826999101788,1.0,happy,happy,141ms,349.0,105.0,2.0,141ms_happy,study1,0.1302547998843692
,3.0,0.9341810001060368,1.0,neutral,neutral,8ms,350.0,106.0,2.0,8ms_neutral,study1,0.0083276999998815
,3.0,1.181269499938935,1.0,sad,sad,8ms,351.0,107.0,2.0,8ms_sad,study1,0.0083276999998815
,3.0,0.9072171000298112,1.0,neutral,neutral,141ms,352.0,108.0,2.0,141ms_neutral,study1,0.1598380999989785
,3.0,0.5929269000189379,1.0,sad,sad,141ms,353.0,109.0,2.0,141ms_sad,study1,0.1372942999355473
,3.0,0.7033985999878496,1.0,neutral,neutral,141ms,354.0,110.0,2.0,141ms_neutral,study1,0.1570014000519677
,3.0,0.5456758999498561,1.0,happy,happy,141ms,355.0,111.0,2.0,141ms_happy,study1,0.1602286999464013
,3.0,0.4635448000626638,1.0,happy,happy,141ms,356.0,112.0,2.0,141ms_happy,study1,0.1354476000765316
,3.0,0.5881913000484928,1.0,sad,sad,141ms,357.0,113.0,2.0,141ms_sad,study1,0.1308291999507673
,3.0,0.6206153000239283,1.0,neutral,neutral,141ms,358.0,114.0,2.0,141ms_neutral,study1,0.1624961999827974
,3.0,0.6951764000114053,1.0,sad,sad,141ms,359.0,115.0,2.0,141ms_sad,study1,0.1391529000015907
,3.0,0.6014834999805316,1.0,sad,sad,141ms,360.0,116.0,2.0,141ms_sad,study1,0.1321346999961861
,3.0,1.4134801999898627,0.0,sad,neutral,141ms,362.0,118.0,2.0,141ms_neutral,study1,0.1568144000252687
,3.0,0.560245200060308,1.0,happy,happy,141ms,363.0,119.0,2.0,141ms_happy,study1,0.1362501999014966
,20.0,0.7947845999151468,1.0,sad,sad,141ms,4.0,0.0,0.0,141ms_sad,study1,0.1698383800219716
,20.0,1.1082562000956386,1.0,neutral,neutral,25ms,5.0,1.0,0.0,25ms_neutral,study1,0.026190279936415
,20.0,0.4834196998272091,1.0,happy,happy,141ms,7.0,3.0,0.0,141ms_happy,study1,0.1665862800553696
,20.0,0.8809452001005411,1.0,neutral,neutral,25ms,10.0,6.0,0.0,25ms_neutral,study1,0.0255043799523235
,20.0,1.4959484001155945,1.0,neutral,neutral,141ms,11.0,7.0,0.0,141ms_neutral,study1,0.1667526801582397
,20.0,0.4301996000576764,1.0,happy,happy,141ms,12.0,8.0,0.0,141ms_happy,study1,0.1707027800846816
,20.0,0.9355063000693916,1.0,neutral,neutral,25ms,13.0,9.0,0.0,25ms_neutral,study1,0.0264624799136043
,20.0,0.5696901998016983,1.0,happy,happy,25ms,14.0,10.0,0.0,25ms_happy,study1,0.0261995801236452
,20.0,1.3584038999397308,0.0,sad,neutral,141ms,16.0,12.0,0.0,141ms_neutral,study1,0.154044480016438
,20.0,0.6195251001045108,1.0,happy,happy,25ms,17.0,13.0,0.0,25ms_happy,study1,0.0226475800853194
,20.0,0.391800400102511,1.0,happy,happy,141ms,18.0,14.0,0.0,141ms_happy,study1,0.131800079904508
,20.0,0.7561184999067336,1.0,neutral,neutral,141ms,19.0,15.0,0.0,141ms_neutral,study1,0.1614347800612563
,20.0,0.7676778000313789,1.0,sad,sad,141ms,20.0,16.0,0.0,141ms_sad,study1,0.1375108798500264
,20.0,0.626723799854517,1.0,happy,happy,25ms,21.0,17.0,0.0,25ms_happy,study1,0.0227936799172425
,20.0,0.3741891998797655,1.0,happy,happy,141ms,22.0,18.0,0.0,141ms_happy,study1,0.1571675799321497
,20.0,0.5272871998604387,1.0,happy,happy,25ms,23.0,19.0,0.0,25ms_happy,study1,0.023034780006867
,20.0,0.4614124000072479,1.0,happy,happy,25ms,24.0,20.0,0.0,25ms_happy,study1,0.0253537799697483
,20.0,1.068752999883145,1.0,sad,sad,25ms,25.0,21.0,0.0,25ms_sad,study1,0.025390879903
,20.0,0.8574781999923289,1.0,sad,sad,25ms,26.0,22.0,0.0,25ms_sad,study1,0.0227930799126454
,20.0,0.3728432999923825,1.0,happy,happy,141ms,27.0,23.0,0.0,141ms_happy,study1,0.1317812799941862
,20.0,0.309172400040552,1.0,happy,happy,141ms,28.0,24.0,0.0,141ms_happy,study1,0.1353153800126278
,20.0,0.7274379001464695,1.0,neutral,neutral,141ms,29.0,25.0,0.0,141ms_neutral,study1,0.1559624799527341
,20.0,0.3435929999686777,1.0,happy,happy,141ms,30.0,26.0,0.0,141ms_happy,study1,0.1375526801683122
,20.0,0.6853751000016928,1.0,sad,sad,25ms,32.0,28.0,0.0,25ms_sad,study1,0.0275414799805844
,20.0,0.8315040001180023,1.0,neutral,neutral,25ms,33.0,29.0,0.0,25ms_neutral,study1,0.0258508799132073
,20.0,0.7230289001017809,1.0,neutral,neutral,25ms,34.0,30.0,0.0,25ms_neutral,study1,0.0254759799689168
,20.0,0.7089432999491692,1.0,neutral,neutral,25ms,35.0,31.0,0.0,25ms_neutral,study1,0.0259840799961352
,20.0,0.6986794997937977,1.0,neutral,neutral,25ms,36.0,32.0,0.0,25ms_neutral,study1,0.0256899802014345
,20.0,0.4917174000293016,1.0,neutral,neutral,141ms,37.0,33.0,0.0,141ms_neutral,study1,0.1561248800251746
,20.0,0.3365144999697804,1.0,happy,happy,141ms,39.0,35.0,0.0,141ms_happy,study1,0.1682209800462999
,20.0,0.4228197999764234,1.0,sad,sad,141ms,40.0,36.0,0.0,141ms_sad,study1,0.1616138801443867
,20.0,0.3502706999424845,0.0,sad,neutral,141ms,41.0,37.0,0.0,141ms_neutral,study1,0.1600485799834814
,20.0,0.4048534999601543,1.0,sad,sad,141ms,42.0,38.0,0.0,141ms_sad,study1,0.1318147799000542
,20.0,0.4903212999925017,1.0,neutral,neutral,141ms,43.0,39.0,0.0,141ms_neutral,study1,0.1657405800186779
,20.0,0.7575753999408334,1.0,sad,sad,141ms,44.0,40.0,0.0,141ms_sad,study1,0.1349185800179952
,20.0,0.4254302999470383,1.0,happy,happy,141ms,45.0,41.0,0.0,141ms_happy,study1,0.1691782800015175
,20.0,0.4977990000043064,1.0,happy,happy,25ms,46.0,42.0,0.0,25ms_happy,study1,0.0228842799086237
,20.0,0.5381203999277204,1.0,sad,sad,141ms,47.0,43.0,0.0,141ms_sad,study1,0.1335843801032865
,20.0,0.4061676999554038,1.0,happy,happy,141ms,48.0,44.0,0.0,141ms_happy,study1,0.1354733800515646
,20.0,0.7007853998802602,1.0,sad,sad,141ms,49.0,45.0,0.0,141ms_sad,study1,0.1302163800691005
,20.0,1.3300835001282394,1.0,neutral,neutral,25ms,50.0,46.0,0.0,25ms_neutral,study1,0.0267333799972959
,20.0,0.4356835000216961,1.0,happy,happy,141ms,51.0,47.0,0.0,141ms_happy,study1,0.1325828800443673
,20.0,0.6827281001023948,1.0,neutral,neutral,141ms,52.0,48.0,0.0,141ms_neutral,study1,0.1636609800160045
,20.0,0.5958913001231849,1.0,neutral,neutral,141ms,53.0,49.0,0.0,141ms_neutral,study1,0.1617423800751396
,20.0,0.3935004000086337,1.0,happy,happy,141ms,54.0,50.0,0.0,141ms_happy,study1,0.1323932799976432
,20.0,0.4560527000576257,1.0,neutral,neutral,141ms,55.0,51.0,0.0,141ms_neutral,study1,0.1543321799952366
,20.0,0.5685401998925954,1.0,neutral,neutral,141ms,56.0,52.0,0.0,141ms_neutral,study1,0.1579463800415794
,20.0,0.3793925000354647,1.0,happy,happy,141ms,57.0,53.0,0.0,141ms_happy,study1,0.1583209800999725
,20.0,0.4484525001607835,1.0,neutral,neutral,141ms,58.0,54.0,0.0,141ms_neutral,study1,0.15692187980747
,20.0,0.5672549000009894,1.0,neutral,neutral,25ms,59.0,55.0,0.0,25ms_neutral,study1,0.0255965799559305
,20.0,0.5536042999010533,1.0,happy,happy,25ms,60.0,56.0,0.0,25ms_happy,study1,0.0221226801630507
,20.0,0.3862810998689383,1.0,neutral,neutral,141ms,61.0,57.0,0.0,141ms_neutral,study1,0.1559851800091678
,20.0,0.2874555999878794,0.0,happy,neutral,141ms,62.0,58.0,0.0,141ms_neutral,study1,0.1613668801263088
,20.0,0.396627000067383,1.0,neutral,neutral,141ms,63.0,59.0,0.0,141ms_neutral,study1,0.1666951800697234
,20.0,0.4735330999828875,1.0,neutral,neutral,141ms,65.0,61.0,0.0,141ms_neutral,study1,0.1621118799783403
,20.0,0.612248299876228,1.0,happy,happy,25ms,66.0,62.0,0.0,25ms_happy,study1,0.0227394799701983
,20.0,0.3537139999680221,1.0,happy,happy,141ms,67.0,63.0,0.0,141ms_happy,study1,0.1357074800878877
,20.0,0.4802383999340236,1.0,happy,happy,25ms,68.0,64.0,0.0,25ms_happy,study1,0.0231964799575621
,20.0,0.4525685000699013,1.0,sad,sad,141ms,69.0,65.0,0.0,141ms_sad,study1,0.134137579891842
,20.0,0.6861205999739468,1.0,happy,happy,25ms,70.0,66.0,0.0,25ms_happy,study1,0.0228870799299443
,20.0,0.4737456000875681,1.0,happy,happy,25ms,71.0,67.0,0.0,25ms_happy,study1,0.0272766800597423
,20.0,0.5366622000001371,1.0,happy,happy,25ms,72.0,68.0,0.0,25ms_happy,study1,0.0227320801466817
,20.0,0.6269788001663983,1.0,sad,sad,25ms,73.0,69.0,0.0,25ms_sad,study1,0.0223155801184589
,20.0,0.4823399998713285,1.0,happy,happy,25ms,74.0,70.0,0.0,25ms_happy,study1,0.0228311800863707
,20.0,0.4489394000265747,1.0,happy,happy,25ms,75.0,71.0,0.0,25ms_happy,study1,0.025473280064773
,20.0,0.5046779999975115,1.0,happy,happy,25ms,76.0,72.0,0.0,25ms_happy,study1,0.0248523801099622
,20.0,0.693817000137642,1.0,sad,sad,25ms,77.0,73.0,0.0,25ms_sad,study1,0.0259103800170237
,20.0,0.45255700009875,1.0,happy,happy,141ms,78.0,74.0,0.0,141ms_happy,study1,0.1629695801064485
,20.0,0.653045600047335,1.0,sad,sad,25ms,79.0,75.0,0.0,25ms_sad,study1,0.0264519799500817
,20.0,0.6203262000344694,1.0,neutral,neutral,141ms,80.0,76.0,0.0,141ms_neutral,study1,0.1632782797794902
,20.0,0.3630053999368101,1.0,happy,happy,141ms,82.0,78.0,0.0,141ms_happy,study1,0.1630614799913132
,20.0,1.3061584001407027,0.0,neutral,sad,25ms,83.0,79.0,0.0,25ms_sad,study1,0.0232022800016693
,20.0,0.6923513999208808,1.0,sad,sad,141ms,84.0,80.0,0.0,141ms_sad,study1,0.132624479895469
,20.0,0.6967678000219166,1.0,sad,sad,141ms,85.0,81.0,0.0,141ms_sad,study1,0.1306827801279837
,20.0,0.5827421001158655,1.0,happy,happy,25ms,86.0,82.0,0.0,25ms_happy,study1,0.0216954799369091
,20.0,1.3127937000244856,0.0,neutral,sad,25ms,89.0,85.0,0.0,25ms_sad,study1,0.0233526799827927
,20.0,0.9462576999794692,1.0,neutral,neutral,141ms,90.0,86.0,0.0,141ms_neutral,study1,0.1604728800710404
,20.0,0.4356694999150932,1.0,happy,happy,141ms,91.0,87.0,0.0,141ms_happy,study1,0.1531676798593366
,20.0,1.1926049999892712,0.0,neutral,sad,25ms,92.0,88.0,0.0,25ms_sad,study1,0.0226459800731504
,20.0,0.576777100097388,1.0,sad,sad,141ms,93.0,89.0,0.0,141ms_sad,study1,0.1350847801193708
,20.0,0.5022211000323296,1.0,sad,sad,141ms,94.0,90.0,0.0,141ms_sad,study1,0.1334905798547083
,20.0,0.7910847999155521,1.0,neutral,neutral,25ms,95.0,91.0,0.0,25ms_neutral,study1,0.0264509799424672
,20.0,1.2332005999051034,1.0,sad,sad,25ms,96.0,92.0,0.0,25ms_sad,study1,0.0227390799671525
,20.0,1.4932913999073207,1.0,sad,sad,25ms,98.0,94.0,0.0,25ms_sad,study1,0.0252232800238516
,20.0,0.9644805998541416,1.0,sad,sad,25ms,99.0,95.0,0.0,25ms_sad,study1,0.0263913799543047
,20.0,0.4840434000361711,1.0,neutral,neutral,141ms,100.0,96.0,0.0,141ms_neutral,study1,0.1600576799363011
,20.0,0.4144536999519914,1.0,happy,happy,141ms,101.0,97.0,0.0,141ms_happy,study1,0.1580502797849021
,20.0,0.4007918999996036,1.0,neutral,neutral,141ms,102.0,98.0,0.0,141ms_neutral,study1,0.1522935800720688
,20.0,0.7464318999554962,1.0,sad,sad,25ms,103.0,99.0,0.0,25ms_sad,study1,0.022604280104872
,20.0,0.4983401000499725,1.0,neutral,neutral,25ms,104.0,100.0,0.0,25ms_neutral,study1,0.0273822801653977
,20.0,0.5249163000844419,1.0,happy,happy,141ms,106.0,102.0,0.0,141ms_happy,study1,0.1554560800549325
,20.0,1.1881287000142038,1.0,sad,sad,141ms,108.0,104.0,0.0,141ms_sad,study1,0.1604130800812981
,20.0,0.6318131999578327,1.0,happy,happy,141ms,109.0,105.0,0.0,141ms_happy,study1,0.1355098799802476
,20.0,1.0500296999234706,1.0,neutral,neutral,141ms,110.0,106.0,0.0,141ms_neutral,study1,0.1616214799694262
,20.0,0.7263738999608904,1.0,happy,happy,141ms,111.0,107.0,0.0,141ms_happy,study1,0.1584410799667353
,20.0,0.76948789996095,1.0,sad,sad,141ms,112.0,108.0,0.0,141ms_sad,study1,0.134858180023798
,20.0,0.7530289001297206,1.0,neutral,neutral,25ms,113.0,109.0,0.0,25ms_neutral,study1,0.0243377799168342
,20.0,0.4568493000697344,1.0,sad,sad,141ms,114.0,110.0,0.0,141ms_sad,study1,0.131330580171209
,20.0,0.6454282000195235,1.0,happy,happy,25ms,115.0,111.0,0.0,25ms_happy,study1,0.0260221799370015
,20.0,0.4673208999447524,1.0,neutral,neutral,141ms,116.0,112.0,0.0,141ms_neutral,study1,0.1723316800315046
,20.0,0.9643771999981254,1.0,sad,sad,25ms,117.0,113.0,0.0,25ms_sad,study1,0.0266554799861751
,20.0,0.4907162999734282,1.0,happy,happy,25ms,118.0,114.0,0.0,25ms_happy,study1,0.0259445798118349
,20.0,0.5329458999913186,1.0,happy,happy,25ms,119.0,115.0,0.0,25ms_happy,study1,0.0240916800219679
,20.0,0.9777540999930352,1.0,sad,sad,25ms,120.0,116.0,0.0,25ms_sad,study1,0.0257968799676859
,20.0,0.7177080998662859,1.0,neutral,neutral,25ms,121.0,117.0,0.0,25ms_neutral,study1,0.0257713798899317
,20.0,1.0174426001030952,1.0,neutral,neutral,25ms,122.0,118.0,0.0,25ms_neutral,study1,0.0257035798393303
,20.0,0.8060652001295239,1.0,neutral,neutral,25ms,123.0,119.0,0.0,25ms_neutral,study1,0.0258599798661407
,20.0,0.6923838998191059,1.0,sad,sad,16ms,124.0,0.0,1.0,16ms_sad,study1,0.016169880004611
,20.0,0.8245495001319796,1.0,neutral,neutral,16ms,125.0,1.0,1.0,16ms_neutral,study1,0.0171860800590479
,20.0,1.2787371999584138,1.0,sad,sad,141ms,126.0,2.0,1.0,141ms_sad,study1,0.1569253801833952
,20.0,1.0996565001551062,1.0,neutral,neutral,141ms,128.0,4.0,1.0,141ms_neutral,study1,0.1595692799426729
,20.0,1.272639499977231,1.0,neutral,neutral,16ms,129.0,5.0,1.0,16ms_neutral,study1,0.017143180081689
,20.0,0.8880316999275237,0.0,neutral,sad,16ms,130.0,6.0,1.0,16ms_sad,study1,0.015420280117496
,20.0,0.9056977001018822,1.0,neutral,neutral,141ms,131.0,7.0,1.0,141ms_neutral,study1,0.1586420801003214
,20.0,0.7666265000589192,1.0,sad,sad,141ms,132.0,8.0,1.0,141ms_sad,study1,0.1365859801415467
,20.0,0.8018048000521958,0.0,neutral,sad,16ms,133.0,9.0,1.0,16ms_sad,study1,0.0149214798119032
,20.0,0.5456167999655008,1.0,neutral,neutral,141ms,135.0,11.0,1.0,141ms_neutral,study1,0.1588250800966761
,20.0,0.7253494998440146,1.0,sad,sad,16ms,136.0,12.0,1.0,16ms_sad,study1,0.0155693802051359
,20.0,0.6069038000423461,1.0,happy,happy,141ms,137.0,13.0,1.0,141ms_happy,study1,0.1356674800161954
,20.0,0.3373805000446737,1.0,happy,happy,141ms,138.0,14.0,1.0,141ms_happy,study1,0.1547867799644109
,20.0,0.8473677998408675,1.0,neutral,neutral,16ms,140.0,16.0,1.0,16ms_neutral,study1,0.0170839800964586
,20.0,0.9760844002012165,1.0,happy,happy,16ms,141.0,17.0,1.0,16ms_happy,study1,0.0170415800064915
,20.0,0.8099062999244779,0.0,neutral,sad,16ms,142.0,18.0,1.0,16ms_sad,study1,0.0152720799204075
,20.0,0.9320340000558645,1.0,happy,happy,16ms,143.0,19.0,1.0,16ms_happy,study1,0.0150360799860322
,20.0,0.6526991000864655,1.0,happy,happy,16ms,144.0,20.0,1.0,16ms_happy,study1,0.015629580197924
,20.0,0.6885198000818491,1.0,happy,happy,16ms,145.0,21.0,1.0,16ms_happy,study1,0.0153906798921639
,20.0,0.9153324000071734,1.0,neutral,neutral,16ms,147.0,23.0,1.0,16ms_neutral,study1,0.0167972798925006
,20.0,0.6007010999601334,1.0,neutral,neutral,141ms,148.0,24.0,1.0,141ms_neutral,study1,0.1619068800471836
,20.0,0.6477753999643028,1.0,happy,happy,141ms,149.0,25.0,1.0,141ms_happy,study1,0.1344282801262579
,20.0,0.7154699999373406,1.0,neutral,neutral,141ms,150.0,26.0,1.0,141ms_neutral,study1,0.1564959799404732
,20.0,0.4293839999008924,1.0,happy,happy,141ms,151.0,27.0,1.0,141ms_happy,study1,0.1597224799450032
,20.0,0.8631619999650866,0.0,neutral,sad,16ms,152.0,28.0,1.0,16ms_sad,study1,0.0158401799387775
,20.0,0.7755473998840898,1.0,happy,happy,16ms,153.0,29.0,1.0,16ms_happy,study1,0.0170757800340197
,20.0,0.489698100136593,1.0,happy,happy,141ms,154.0,30.0,1.0,141ms_happy,study1,0.132701080013021
,20.0,0.6057889999356121,1.0,happy,happy,16ms,155.0,31.0,1.0,16ms_happy,study1,0.0170777798164181
,20.0,0.5426647001877427,1.0,neutral,neutral,141ms,156.0,32.0,1.0,141ms_neutral,study1,0.1671699799596808
,20.0,0.9421307002194226,1.0,sad,sad,141ms,157.0,33.0,1.0,141ms_sad,study1,0.1352524798828653
,20.0,1.1985156000591817,1.0,neutral,neutral,141ms,158.0,34.0,1.0,141ms_neutral,study1,0.1615758800878666
,20.0,0.6247312999330461,1.0,happy,happy,16ms,159.0,35.0,1.0,16ms_happy,study1,0.0153097800910018
,20.0,0.5043756000231951,1.0,neutral,neutral,141ms,160.0,36.0,1.0,141ms_neutral,study1,0.1690993802155844
,20.0,0.8336116001009941,1.0,neutral,neutral,16ms,161.0,37.0,1.0,16ms_neutral,study1,0.0173548799473337
,20.0,0.4168030999135226,1.0,happy,happy,141ms,162.0,38.0,1.0,141ms_happy,study1,0.1567207800223968
,20.0,0.6980628999881446,1.0,happy,happy,16ms,163.0,39.0,1.0,16ms_happy,study1,0.0160004798788122
,20.0,0.6278031000401825,1.0,happy,happy,16ms,164.0,40.0,1.0,16ms_happy,study1,0.0148906800429813
,20.0,0.9011379999574274,1.0,neutral,neutral,141ms,165.0,41.0,1.0,141ms_neutral,study1,0.1552731799426965
,20.0,0.5231977000366896,1.0,happy,happy,141ms,166.0,42.0,1.0,141ms_happy,study1,0.1347347797825477
,20.0,0.3889613000210374,1.0,happy,happy,141ms,167.0,43.0,1.0,141ms_happy,study1,0.1686649801674775
,20.0,0.6068274998106062,0.0,happy,sad,16ms,168.0,44.0,1.0,16ms_sad,study1,0.0151762798893742
,20.0,0.4768326000776142,1.0,neutral,neutral,141ms,169.0,45.0,1.0,141ms_neutral,study1,0.1648955801035754
,20.0,0.6786816001404077,1.0,neutral,neutral,141ms,170.0,46.0,1.0,141ms_neutral,study1,0.1606158799957029
,20.0,0.8161417001392692,1.0,happy,happy,16ms,171.0,47.0,1.0,16ms_happy,study1,0.0173838799353234
,20.0,0.8596547001507133,1.0,neutral,neutral,141ms,172.0,48.0,1.0,141ms_neutral,study1,0.1654430799651436
,20.0,0.5793806000147015,1.0,happy,happy,141ms,173.0,49.0,1.0,141ms_happy,study1,0.1390884799882314
,20.0,0.4753221001010388,1.0,happy,happy,141ms,174.0,50.0,1.0,141ms_happy,study1,0.1698058801237039
,20.0,0.57036880007945,1.0,neutral,neutral,16ms,175.0,51.0,1.0,16ms_neutral,study1,0.0169959801248751
,20.0,0.6455943000037223,1.0,happy,happy,141ms,176.0,52.0,1.0,141ms_happy,study1,0.1366627797949604
,20.0,0.3666608999483287,1.0,happy,happy,141ms,177.0,53.0,1.0,141ms_happy,study1,0.1362663800362042
,20.0,0.557318199891597,1.0,happy,happy,16ms,178.0,54.0,1.0,16ms_happy,study1,0.015115580009251
,20.0,0.6491397998761386,1.0,happy,happy,16ms,179.0,55.0,1.0,16ms_happy,study1,0.0149456799961171
,20.0,0.4057087001856416,1.0,neutral,neutral,141ms,180.0,56.0,1.0,141ms_neutral,study1,0.1553771800361119
,20.0,0.7785191000439227,1.0,neutral,neutral,16ms,182.0,58.0,1.0,16ms_neutral,study1,0.0166212799492768
,20.0,0.637476900126785,1.0,sad,sad,141ms,183.0,59.0,1.0,141ms_sad,study1,0.1381859799846552
,20.0,0.6607462998945266,1.0,neutral,neutral,16ms,184.0,60.0,1.0,16ms_neutral,study1,0.0173325801267765
,20.0,0.7485565000679344,1.0,sad,sad,141ms,185.0,61.0,1.0,141ms_sad,study1,0.136157880024939
,20.0,0.9692356002051384,1.0,neutral,neutral,16ms,186.0,62.0,1.0,16ms_neutral,study1,0.0173661801497928
,20.0,0.6058489000424743,1.0,sad,sad,141ms,187.0,63.0,1.0,141ms_sad,study1,0.1354719798080168
,20.0,0.7636011000722647,1.0,happy,happy,16ms,188.0,64.0,1.0,16ms_happy,study1,0.0152853801380388
,20.0,0.6005021999590099,1.0,neutral,neutral,16ms,189.0,65.0,1.0,16ms_neutral,study1,0.0174335801973484
,20.0,0.9833219998981804,1.0,sad,sad,16ms,190.0,66.0,1.0,16ms_sad,study1,0.0154304799623332
,20.0,0.5807223001029342,1.0,happy,happy,16ms,191.0,67.0,1.0,16ms_happy,study1,0.0159330798312566
,20.0,0.6662576999515295,1.0,sad,sad,141ms,192.0,68.0,1.0,141ms_sad,study1,0.1692551800049386
,20.0,1.3114829999394717,1.0,neutral,neutral,16ms,193.0,69.0,1.0,16ms_neutral,study1,0.0164398799649916
,20.0,1.4131351998075845,0.0,neutral,sad,16ms,194.0,70.0,1.0,16ms_sad,study1,0.0165589800569705
,20.0,0.8848581998609006,1.0,neutral,neutral,16ms,196.0,72.0,1.0,16ms_neutral,study1,0.017644880060061
,20.0,0.5499449998605996,1.0,sad,sad,141ms,197.0,73.0,1.0,141ms_sad,study1,0.1650855801533453
,20.0,1.1084016999229789,0.0,sad,neutral,16ms,198.0,74.0,1.0,16ms_neutral,study1,0.0175496798008225
,20.0,0.5211491000372916,1.0,sad,sad,141ms,199.0,75.0,1.0,141ms_sad,study1,0.1381529799662075
,20.0,0.4961010999977588,1.0,neutral,neutral,141ms,200.0,76.0,1.0,141ms_neutral,study1,0.15906617995347
,20.0,0.4293760000728071,1.0,sad,sad,141ms,201.0,77.0,1.0,141ms_sad,study1,0.1368189800530217
,20.0,0.6542112999595702,1.0,neutral,neutral,16ms,202.0,78.0,1.0,16ms_neutral,study1,0.0172802798449538
,20.0,0.4007640001364052,1.0,happy,happy,141ms,203.0,79.0,1.0,141ms_happy,study1,0.1301726800854794
,20.0,0.6023626001551747,1.0,neutral,neutral,16ms,204.0,80.0,1.0,16ms_neutral,study1,0.0171713798306427
,20.0,0.6284482998307794,1.0,happy,happy,16ms,205.0,81.0,1.0,16ms_happy,study1,0.0149778800084732
,20.0,0.3492651998531073,1.0,happy,happy,141ms,206.0,82.0,1.0,141ms_happy,study1,0.1677637800573848
,20.0,0.2683151999954134,1.0,happy,happy,141ms,207.0,83.0,1.0,141ms_happy,study1,0.1302073800004564
,20.0,0.4143407999072224,1.0,neutral,neutral,141ms,208.0,84.0,1.0,141ms_neutral,study1,0.1582375799305282
,20.0,0.3909932000096887,1.0,neutral,neutral,141ms,209.0,85.0,1.0,141ms_neutral,study1,0.1581941800657205
,20.0,0.4149044998921454,1.0,happy,happy,141ms,210.0,86.0,1.0,141ms_happy,study1,0.1356728800572
,20.0,0.7760056999977678,0.0,happy,sad,16ms,212.0,88.0,1.0,16ms_sad,study1,0.0149118799715779
,20.0,0.8017472000792623,1.0,happy,happy,16ms,213.0,89.0,1.0,16ms_happy,study1,0.0156926800962082
,20.0,0.4931656999979168,1.0,happy,happy,16ms,214.0,90.0,1.0,16ms_happy,study1,0.0154503799974463
,20.0,0.7100801998749375,0.0,neutral,sad,16ms,215.0,91.0,1.0,16ms_sad,study1,0.0148924798238567
,20.0,0.4580039998982101,1.0,sad,sad,141ms,216.0,92.0,1.0,141ms_sad,study1,0.1355127801186881
,20.0,0.4176899001467973,1.0,neutral,neutral,141ms,217.0,93.0,1.0,141ms_neutral,study1,0.1613073800224356
,20.0,0.45825309981592,1.0,sad,sad,141ms,218.0,94.0,1.0,141ms_sad,study1,0.1625466800294361
,20.0,0.7569893999025226,1.0,neutral,neutral,141ms,219.0,95.0,1.0,141ms_neutral,study1,0.1713949800002865
,20.0,0.3893887000158429,1.0,happy,happy,141ms,220.0,96.0,1.0,141ms_happy,study1,0.1350243798922292
,20.0,0.9930910998955368,0.0,neutral,sad,16ms,221.0,97.0,1.0,16ms_sad,study1,0.0151199800427548
,20.0,0.5087421999778599,1.0,sad,sad,141ms,222.0,98.0,1.0,141ms_sad,study1,0.1367553800344012
,20.0,0.5067543999757618,1.0,sad,sad,141ms,223.0,99.0,1.0,141ms_sad,study1,0.1583379799965314
,20.0,0.9045422999188304,1.0,neutral,neutral,16ms,224.0,100.0,1.0,16ms_neutral,study1,0.0174891801550529
,20.0,0.3036810997873544,1.0,happy,happy,141ms,225.0,101.0,1.0,141ms_happy,study1,0.1332824800163052
,20.0,0.5238681000191718,1.0,sad,sad,141ms,226.0,102.0,1.0,141ms_sad,study1,0.136097280029162
,20.0,0.6524509000591934,1.0,neutral,neutral,16ms,227.0,103.0,1.0,16ms_neutral,study1,0.0175746799911848
,20.0,0.8237407999113202,1.0,happy,happy,16ms,228.0,104.0,1.0,16ms_happy,study1,0.0151486801448754
,20.0,0.88169139996171,1.0,neutral,neutral,141ms,229.0,105.0,1.0,141ms_neutral,study1,0.1574370800051383
,20.0,0.5497997999191284,1.0,sad,sad,141ms,230.0,106.0,1.0,141ms_sad,study1,0.1333908801432244
,20.0,0.7273730000015348,1.0,happy,happy,16ms,231.0,107.0,1.0,16ms_happy,study1,0.0160108799580029
,20.0,0.5419161999598145,1.0,sad,sad,141ms,232.0,108.0,1.0,141ms_sad,study1,0.1533639800734363
,20.0,0.9304853999055922,0.0,happy,sad,16ms,233.0,109.0,1.0,16ms_sad,study1,0.0159313799347273
,20.0,0.8465313999913633,1.0,happy,happy,141ms,234.0,110.0,1.0,141ms_happy,study1,0.1538109799846552
,20.0,0.4959955001249909,1.0,neutral,neutral,141ms,235.0,111.0,1.0,141ms_neutral,study1,0.1520667799748025
,20.0,0.4394364999607205,1.0,sad,sad,141ms,236.0,112.0,1.0,141ms_sad,study1,0.1345897800754301
,20.0,0.5107206001412123,1.0,happy,happy,16ms,237.0,113.0,1.0,16ms_happy,study1,0.0150668799876712
,20.0,1.058535800082609,0.0,happy,sad,16ms,238.0,114.0,1.0,16ms_sad,study1,0.0172172800637326
,20.0,0.5124125999864191,1.0,happy,happy,16ms,239.0,115.0,1.0,16ms_happy,study1,0.0172916801645897
,20.0,0.9527398000936956,1.0,neutral,neutral,16ms,240.0,116.0,1.0,16ms_neutral,study1,0.0175392799544624
,20.0,1.2876232000999153,1.0,neutral,neutral,16ms,241.0,117.0,1.0,16ms_neutral,study1,0.0162428798619203
,20.0,0.803220700006932,1.0,neutral,neutral,16ms,242.0,118.0,1.0,16ms_neutral,study1,0.0169678800273231
,20.0,1.4419986999128014,1.0,happy,happy,8ms,244.0,0.0,2.0,8ms_happy,study1,0.0083561799954168
,20.0,1.0224309000186622,0.0,neutral,sad,8ms,246.0,2.0,2.0,8ms_sad,study1,0.0083561799954168
,20.0,0.5353228999301791,1.0,happy,happy,141ms,247.0,3.0,2.0,141ms_happy,study1,0.1595280800945602
,20.0,0.8931100000627339,0.0,happy,sad,8ms,248.0,4.0,2.0,8ms_sad,study1,0.0083561799954168
,20.0,1.0035419000778347,1.0,neutral,neutral,141ms,249.0,5.0,2.0,141ms_neutral,study1,0.1637681801337294
,20.0,1.172355600167066,0.0,happy,neutral,8ms,250.0,6.0,2.0,8ms_neutral,study1,0.0083561799954168
,20.0,0.8278226000256836,1.0,neutral,neutral,8ms,251.0,7.0,2.0,8ms_neutral,study1,0.0083561799954168
,20.0,0.5372874999884516,1.0,happy,happy,141ms,253.0,9.0,2.0,141ms_happy,study1,0.1523056800476752
,20.0,0.6221284999046475,1.0,neutral,neutral,141ms,254.0,10.0,2.0,141ms_neutral,study1,0.1612185800447605
,20.0,0.473620600067079,1.0,neutral,neutral,141ms,255.0,11.0,2.0,141ms_neutral,study1,0.1648797799832664
,20.0,1.488173799822107,1.0,neutral,neutral,8ms,256.0,12.0,2.0,8ms_neutral,study1,0.0083561799954168
,20.0,0.5377164001110941,0.0,happy,neutral,8ms,257.0,13.0,2.0,8ms_neutral,study1,0.0083561799954168
,20.0,0.5869605999905616,0.0,happy,sad,8ms,258.0,14.0,2.0,8ms_sad,study1,0.0083561799954168
,20.0,1.0919005000032485,1.0,happy,happy,8ms,259.0,15.0,2.0,8ms_happy,study1,0.0083561799954168
,20.0,0.583165799966082,1.0,sad,sad,141ms,260.0,16.0,2.0,141ms_sad,study1,0.1358570800628058
,20.0,1.007505200104788,1.0,neutral,neutral,8ms,261.0,17.0,2.0,8ms_neutral,study1,0.0083561799954168
,20.0,0.9605964999645948,0.0,happy,sad,8ms,262.0,18.0,2.0,8ms_sad,study1,0.0083561799954168
,20.0,0.5262629999779165,0.0,sad,neutral,141ms,263.0,19.0,2.0,141ms_neutral,study1,0.1594758799299143
,20.0,0.5647454001009464,1.0,neutral,neutral,141ms,264.0,20.0,2.0,141ms_neutral,study1,0.1545059799216233
,20.0,1.3111026999540627,0.0,happy,sad,8ms,265.0,21.0,2.0,8ms_sad,study1,0.0083561799954168
,20.0,0.8699511999730021,0.0,neutral,happy,8ms,266.0,22.0,2.0,8ms_happy,study1,0.0083561799954168
,20.0,0.6261571999639273,1.0,happy,happy,141ms,267.0,23.0,2.0,141ms_happy,study1,0.1382911798543773
,20.0,0.352693900000304,1.0,happy,happy,141ms,269.0,25.0,2.0,141ms_happy,study1,0.1558202800340495
,20.0,0.6723905000835657,0.0,happy,sad,8ms,270.0,26.0,2.0,8ms_sad,study1,0.0083561799954168
,20.0,0.755713599966839,0.0,happy,neutral,8ms,271.0,27.0,2.0,8ms_neutral,study1,0.0083561799954168
,20.0,0.8664029000792652,1.0,happy,happy,141ms,272.0,28.0,2.0,141ms_happy,study1,0.1377250798511795
,20.0,1.493282400071621,1.0,neutral,neutral,8ms,273.0,29.0,2.0,8ms_neutral,study1,0.0083561799954168
,20.0,0.4850496998988092,1.0,neutral,neutral,141ms,274.0,30.0,2.0,141ms_neutral,study1,0.1549146801232837
,20.0,0.5491029999684542,1.0,sad,sad,141ms,275.0,31.0,2.0,141ms_sad,study1,0.1619841800536505
,20.0,1.4915095998439938,0.0,happy,sad,8ms,276.0,32.0,2.0,8ms_sad,study1,0.0083561799951894
,20.0,0.5609659000765532,1.0,neutral,neutral,141ms,278.0,34.0,2.0,141ms_neutral,study1,0.1579638800583325
,20.0,0.5136982998810709,1.0,happy,happy,141ms,279.0,35.0,2.0,141ms_happy,study1,0.1634255798531967
,20.0,0.6328948999289423,0.0,happy,sad,8ms,280.0,36.0,2.0,8ms_sad,study1,0.0083561799951894
,20.0,0.8302672000136226,1.0,happy,happy,8ms,281.0,37.0,2.0,8ms_happy,study1,0.0083561799955305
,20.0,0.9373228999320418,0.0,happy,neutral,8ms,282.0,38.0,2.0,8ms_neutral,study1,0.0083561799954168
,20.0,0.6255731000564992,1.0,neutral,neutral,141ms,283.0,39.0,2.0,141ms_neutral,study1,0.1609515801072802
,20.0,0.5257076998241246,1.0,neutral,neutral,141ms,284.0,40.0,2.0,141ms_neutral,study1,0.158472080202614
,20.0,0.6613178998231888,1.0,happy,happy,141ms,285.0,41.0,2.0,141ms_happy,study1,0.1577672799584206
,20.0,1.4078069999814034,0.0,happy,sad,8ms,286.0,42.0,2.0,8ms_sad,study1,0.0083561799955305
,20.0,0.450805600034073,1.0,happy,happy,141ms,287.0,43.0,2.0,141ms_happy,study1,0.1365665799939961
,20.0,0.7106069000437856,0.0,neutral,happy,8ms,288.0,44.0,2.0,8ms_happy,study1,0.0083561799956441
,20.0,0.5049268000293523,1.0,sad,sad,141ms,289.0,45.0,2.0,141ms_sad,study1,0.1376312800683763
,20.0,0.483962400117889,1.0,sad,sad,141ms,291.0,47.0,2.0,141ms_sad,study1,0.1367485799826227
,20.0,0.5674399000126868,0.0,happy,sad,8ms,292.0,48.0,2.0,8ms_sad,study1,0.0083561799954168
,20.0,0.3342792999465018,1.0,happy,happy,141ms,293.0,49.0,2.0,141ms_happy,study1,0.1546105800196073
,20.0,0.9585506001021712,1.0,neutral,neutral,141ms,294.0,50.0,2.0,141ms_neutral,study1,0.1585545800160162
,20.0,0.6680876000318676,1.0,happy,happy,8ms,295.0,51.0,2.0,8ms_happy,study1,0.0083561799951894
,20.0,0.5144412000663579,1.0,sad,sad,141ms,296.0,52.0,2.0,141ms_sad,study1,0.1375492799094217
,20.0,1.0566378000658003,1.0,neutral,neutral,141ms,297.0,53.0,2.0,141ms_neutral,study1,0.1550723798105764
,20.0,1.4223482999950647,0.0,neutral,sad,8ms,298.0,54.0,2.0,8ms_sad,study1,0.0083561799951894
,20.0,0.8515355999115855,1.0,happy,happy,141ms,299.0,55.0,2.0,141ms_happy,study1,0.1338007801211915
,20.0,1.2555737998336554,0.0,happy,sad,8ms,300.0,56.0,2.0,8ms_sad,study1,0.0083561799955305
,20.0,1.206339200027287,1.0,neutral,neutral,8ms,301.0,57.0,2.0,8ms_neutral,study1,0.0083561799955305
,20.0,0.4704096999485045,1.0,happy,happy,141ms,302.0,58.0,2.0,141ms_happy,study1,0.1585178798529796
,20.0,0.635747899999842,1.0,happy,happy,8ms,303.0,59.0,2.0,8ms_happy,study1,0.0083561799954168
,20.0,0.460620200028643,1.0,happy,happy,141ms,305.0,61.0,2.0,141ms_happy,study1,0.1613974801265385
,20.0,0.9081530999392272,1.0,happy,happy,8ms,306.0,62.0,2.0,8ms_happy,study1,0.0083561799954168
,20.0,0.9527457999065518,1.0,neutral,neutral,8ms,307.0,63.0,2.0,8ms_neutral,study1,0.0083561799956441
,20.0,0.7038422001060098,1.0,happy,happy,141ms,308.0,64.0,2.0,141ms_happy,study1,0.1351270798594441
,20.0,0.700195100158453,0.0,happy,sad,8ms,309.0,65.0,2.0,8ms_sad,study1,0.0083561799954168
,20.0,0.6534969999920577,0.0,happy,sad,8ms,310.0,66.0,2.0,8ms_sad,study1,0.0083561799956441
,20.0,0.4441002001985907,1.0,sad,sad,141ms,311.0,67.0,2.0,141ms_sad,study1,0.1631426799108339
,20.0,0.5145912000443786,1.0,neutral,neutral,141ms,312.0,68.0,2.0,141ms_neutral,study1,0.1583754799327152
,20.0,0.4907303000800311,1.0,neutral,neutral,141ms,313.0,69.0,2.0,141ms_neutral,study1,0.1571952800263716
,20.0,0.4577309999149292,1.0,happy,happy,141ms,314.0,70.0,2.0,141ms_happy,study1,0.1621385800652888
,20.0,0.5179550000466406,1.0,neutral,neutral,141ms,315.0,71.0,2.0,141ms_neutral,study1,0.1565061800180274
,20.0,0.4582601001020521,1.0,sad,sad,141ms,316.0,72.0,2.0,141ms_sad,study1,0.1381905800195682
,20.0,0.7105028000660241,1.0,neutral,neutral,141ms,317.0,73.0,2.0,141ms_neutral,study1,0.1583220799918763
,20.0,0.5093404999934137,1.0,happy,happy,141ms,318.0,74.0,2.0,141ms_happy,study1,0.1381653800606272
,20.0,1.148381100036204,1.0,neutral,neutral,8ms,319.0,75.0,2.0,8ms_neutral,study1,0.0083561799954168
,20.0,1.122278800001368,0.0,neutral,happy,8ms,320.0,76.0,2.0,8ms_happy,study1,0.0083561799954168
,20.0,0.7248485998716205,1.0,happy,happy,8ms,321.0,77.0,2.0,8ms_happy,study1,0.0083561799956441
,20.0,1.2389702999498695,1.0,sad,sad,141ms,322.0,78.0,2.0,141ms_sad,study1,0.1613359800073794
,20.0,0.9939054998103528,1.0,happy,happy,141ms,323.0,79.0,2.0,141ms_happy,study1,0.1305085799656353
,20.0,1.013625199906528,0.0,happy,sad,8ms,324.0,80.0,2.0,8ms_sad,study1,0.0083561799954168
,20.0,0.7720707999542356,0.0,neutral,happy,8ms,325.0,81.0,2.0,8ms_happy,study1,0.0083561799954168
,20.0,0.8697389999870211,1.0,neutral,neutral,141ms,326.0,82.0,2.0,141ms_neutral,study1,0.1612606800163121
,20.0,1.3736547001171855,1.0,happy,happy,8ms,327.0,83.0,2.0,8ms_happy,study1,0.0083561799956441
,20.0,0.53862200002186,1.0,happy,happy,141ms,328.0,84.0,2.0,141ms_happy,study1,0.1594692798794312
,20.0,0.8034580999519676,0.0,neutral,happy,8ms,329.0,85.0,2.0,8ms_happy,study1,0.0083561799951894
,20.0,0.3309172999579459,0.0,happy,sad,8ms,330.0,86.0,2.0,8ms_sad,study1,0.0083561799954168
,20.0,1.0076737999916077,1.0,sad,sad,141ms,331.0,87.0,2.0,141ms_sad,study1,0.1310797801240824
,20.0,0.4286530001554638,1.0,sad,sad,141ms,332.0,88.0,2.0,141ms_sad,study1,0.1352008799558461
,20.0,0.680544100003317,1.0,sad,sad,141ms,333.0,89.0,2.0,141ms_sad,study1,0.1362872800789318
,20.0,0.4059520000591874,1.0,sad,sad,141ms,334.0,90.0,2.0,141ms_sad,study1,0.1596474798395775
,20.0,0.4260885000694543,1.0,sad,sad,141ms,335.0,91.0,2.0,141ms_sad,study1,0.1307994799688003
,20.0,0.6209712000563741,1.0,happy,happy,141ms,336.0,92.0,2.0,141ms_happy,study1,0.1376697800119473
,20.0,0.4942099000327289,0.0,happy,neutral,8ms,337.0,93.0,2.0,8ms_neutral,study1,0.0083561799954168
,20.0,0.5562513000331819,1.0,neutral,neutral,141ms,338.0,94.0,2.0,141ms_neutral,study1,0.1612360798287682
,20.0,0.4830999998375773,1.0,sad,sad,141ms,340.0,96.0,2.0,141ms_sad,study1,0.1376115800346724
,20.0,0.5034523999784142,1.0,neutral,neutral,141ms,341.0,97.0,2.0,141ms_neutral,study1,0.1660539800768674
,20.0,0.4746099999174475,1.0,happy,happy,8ms,342.0,98.0,2.0,8ms_happy,study1,0.0083561799954168
,20.0,0.4572125000413507,0.0,happy,sad,8ms,343.0,99.0,2.0,8ms_sad,study1,0.0083561799954168
,20.0,0.8521544001996517,1.0,sad,sad,8ms,344.0,100.0,2.0,8ms_sad,study1,0.0083561799954168
,20.0,0.7564731000456959,0.0,happy,neutral,8ms,345.0,101.0,2.0,8ms_neutral,study1,0.0083561799954168
,20.0,0.6683205000590533,1.0,sad,sad,141ms,346.0,102.0,2.0,141ms_sad,study1,0.1602844800333969
,20.0,0.780849999981001,0.0,happy,neutral,8ms,348.0,104.0,2.0,8ms_neutral,study1,0.0083561799954168
,20.0,0.513625199906528,1.0,happy,happy,141ms,349.0,105.0,2.0,141ms_happy,study1,0.1379583801142416
,20.0,0.4761399999260902,1.0,neutral,neutral,141ms,350.0,106.0,2.0,141ms_neutral,study1,0.1665773798708869
,20.0,1.1887844998855144,0.0,happy,sad,8ms,351.0,107.0,2.0,8ms_sad,study1,0.0083561799954168
,20.0,0.7673583999276161,1.0,neutral,neutral,8ms,352.0,108.0,2.0,8ms_neutral,study1,0.0083561799954168
,20.0,0.5043390998616815,0.0,happy,neutral,8ms,354.0,110.0,2.0,8ms_neutral,study1,0.0083561799954168
,20.0,0.4946725000627339,1.0,happy,happy,8ms,355.0,111.0,2.0,8ms_happy,study1,0.0083561799954168
,20.0,0.5495325999800116,1.0,happy,happy,141ms,356.0,112.0,2.0,141ms_happy,study1,0.1341806798707239
,20.0,0.4761554999276995,1.0,sad,sad,141ms,357.0,113.0,2.0,141ms_sad,study1,0.1302056801036997
,20.0,1.267269399948418,0.0,happy,neutral,8ms,358.0,114.0,2.0,8ms_neutral,study1,0.0083561799954168
,20.0,1.0489614000543952,1.0,sad,sad,141ms,359.0,115.0,2.0,141ms_sad,study1,0.1316393799613706
,20.0,0.4548559000249952,1.0,sad,sad,141ms,360.0,116.0,2.0,141ms_sad,study1,0.1317317799662305
,20.0,0.7115201998967677,0.0,neutral,sad,8ms,361.0,117.0,2.0,8ms_sad,study1,0.0083561799954168
,20.0,0.6786954998970032,1.0,neutral,neutral,8ms,362.0,118.0,2.0,8ms_neutral,study1,0.0083561799954168
,20.0,1.2285209000110626,1.0,happy,happy,8ms,363.0,119.0,2.0,8ms_happy,study1,0.0083561799954168
,15.0,1.212821499997517,1.0,sad,sad,141ms,6.0,2.0,0.0,141ms_sad,study1,0.1666464800022424
,15.0,0.942969900002936,0.0,sad,happy,141ms,7.0,3.0,0.0,141ms_happy,study1,0.1525502800017477
,15.0,1.0097296999992975,1.0,sad,sad,25ms,8.0,4.0,0.0,25ms_sad,study1,0.0255421800015085
,15.0,1.024385100001382,1.0,sad,sad,25ms,9.0,5.0,0.0,25ms_sad,study1,0.0266851799991911
,15.0,0.8167203000011796,1.0,happy,happy,141ms,12.0,8.0,0.0,141ms_happy,study1,0.1604448800011653
,15.0,0.6221772999997484,1.0,neutral,neutral,141ms,13.0,9.0,0.0,141ms_neutral,study1,0.1600116800021993
,15.0,0.7200860999982979,1.0,happy,happy,141ms,14.0,10.0,0.0,141ms_happy,study1,0.1564557799996748
,15.0,0.7533765000007406,1.0,sad,sad,141ms,15.0,11.0,0.0,141ms_sad,study1,0.1347101800005674
,15.0,0.9736773999975412,1.0,neutral,neutral,25ms,16.0,12.0,0.0,25ms_neutral,study1,0.0256151800007415
,15.0,0.9558450000004086,1.0,happy,happy,25ms,17.0,13.0,0.0,25ms_happy,study1,0.0227274800003414
,15.0,0.6067430000002787,1.0,happy,happy,25ms,18.0,14.0,0.0,25ms_happy,study1,0.0230712800024832
,15.0,0.5981466000012006,1.0,neutral,neutral,141ms,19.0,15.0,0.0,141ms_neutral,study1,0.1692689799987334
,15.0,1.1421785999991698,1.0,sad,sad,25ms,20.0,16.0,0.0,25ms_sad,study1,0.022977179998989
,15.0,0.7911104000013438,1.0,happy,happy,25ms,21.0,17.0,0.0,25ms_happy,study1,0.0232225799976788
,15.0,0.6269389000008232,1.0,happy,happy,25ms,22.0,18.0,0.0,25ms_happy,study1,0.0256291800018431
,15.0,0.4529012999992119,1.0,happy,happy,141ms,23.0,19.0,0.0,141ms_happy,study1,0.1308961800008461
,15.0,0.5462898000005225,1.0,happy,happy,25ms,24.0,20.0,0.0,25ms_happy,study1,0.0275754800007916
,15.0,0.9263998999995238,1.0,sad,sad,25ms,25.0,21.0,0.0,25ms_sad,study1,0.0254573799997217
,15.0,0.8599897999993118,1.0,sad,sad,141ms,26.0,22.0,0.0,141ms_sad,study1,0.1371464800016895
,15.0,0.5232548000021779,1.0,happy,happy,141ms,27.0,23.0,0.0,141ms_happy,study1,0.1356064800006038
,15.0,0.5465236999989429,1.0,happy,happy,25ms,28.0,24.0,0.0,25ms_happy,study1,0.0235456799986479
,15.0,0.7483089000015752,0.0,sad,neutral,25ms,29.0,25.0,0.0,25ms_neutral,study1,0.0259679799986827
,15.0,0.6511266000015894,1.0,happy,happy,141ms,30.0,26.0,0.0,141ms_happy,study1,0.1369979799987106
,15.0,0.533305000000837,1.0,happy,happy,25ms,31.0,27.0,0.0,25ms_happy,study1,0.0218431800007294
,15.0,0.656277099998988,1.0,sad,sad,141ms,32.0,28.0,0.0,141ms_sad,study1,0.157545580003358
,15.0,0.9258058999985224,1.0,neutral,neutral,25ms,33.0,29.0,0.0,25ms_neutral,study1,0.0253214799981265
,15.0,0.5195547000002989,1.0,neutral,neutral,25ms,34.0,30.0,0.0,25ms_neutral,study1,0.0256302799993193
,15.0,0.7892921999991813,1.0,neutral,neutral,141ms,35.0,31.0,0.0,141ms_neutral,study1,0.1576741800002992
,15.0,0.6467439000007289,1.0,neutral,neutral,25ms,36.0,32.0,0.0,25ms_neutral,study1,0.0254233799991254
,15.0,0.6788287999988825,0.0,sad,neutral,25ms,37.0,33.0,0.0,25ms_neutral,study1,0.0266212800001142
,15.0,0.7743618999993487,0.0,sad,neutral,141ms,38.0,34.0,0.0,141ms_neutral,study1,0.157840880000009
,15.0,0.6007992999984708,1.0,happy,happy,25ms,39.0,35.0,0.0,25ms_happy,study1,0.0265375800030653
,15.0,0.7200721000008343,1.0,sad,sad,141ms,40.0,36.0,0.0,141ms_sad,study1,0.1607284799996762
,15.0,0.6589020999999775,1.0,neutral,neutral,25ms,41.0,37.0,0.0,25ms_neutral,study1,0.0254702799996948
,15.0,0.8895689999990282,1.0,sad,sad,25ms,42.0,38.0,0.0,25ms_sad,study1,0.0230027799974834
,15.0,1.053677299998526,1.0,neutral,neutral,141ms,43.0,39.0,0.0,141ms_neutral,study1,0.1682336799989627
,15.0,0.98242780000146,1.0,sad,sad,25ms,44.0,40.0,0.0,25ms_sad,study1,0.0225420800001359
,15.0,0.524169799999072,1.0,happy,happy,141ms,45.0,41.0,0.0,141ms_happy,study1,0.1592479800005151
,15.0,0.4329170000019076,1.0,happy,happy,141ms,46.0,42.0,0.0,141ms_happy,study1,0.1305816799998922
,15.0,0.9010292999992088,1.0,sad,sad,25ms,47.0,43.0,0.0,25ms_sad,study1,0.0225822799970103
,15.0,0.6464130999993358,1.0,happy,happy,25ms,48.0,44.0,0.0,25ms_happy,study1,0.0231083799975806
,15.0,0.5088332000013907,1.0,sad,sad,141ms,49.0,45.0,0.0,141ms_sad,study1,0.1363964800024177
,15.0,0.5227072000016051,1.0,neutral,neutral,141ms,50.0,46.0,0.0,141ms_neutral,study1,0.1599799800009691
,15.0,1.335851100000582,0.0,sad,happy,25ms,51.0,47.0,0.0,25ms_happy,study1,0.0223505800007899
,15.0,0.653482100002293,1.0,neutral,neutral,25ms,52.0,48.0,0.0,25ms_neutral,study1,0.0269681800004661
,15.0,0.6258326999995916,1.0,neutral,neutral,141ms,53.0,49.0,0.0,141ms_neutral,study1,0.161136479999584
,15.0,0.4473509000017657,1.0,happy,happy,141ms,54.0,50.0,0.0,141ms_happy,study1,0.138116680000536
,15.0,0.4478347999975085,1.0,neutral,neutral,141ms,55.0,51.0,0.0,141ms_neutral,study1,0.1597923799985778
,15.0,0.5566588000001502,1.0,neutral,neutral,25ms,56.0,52.0,0.0,25ms_neutral,study1,0.0253492799987782
,15.0,0.3486033000008319,1.0,happy,happy,141ms,57.0,53.0,0.0,141ms_happy,study1,0.1605214799987209
,15.0,1.3199071000017284,1.0,neutral,neutral,25ms,58.0,54.0,0.0,25ms_neutral,study1,0.025620079998049
,15.0,0.5596499999992375,1.0,neutral,neutral,25ms,59.0,55.0,0.0,25ms_neutral,study1,0.0256388799992919
,15.0,0.4507612000015797,1.0,happy,happy,25ms,60.0,56.0,0.0,25ms_happy,study1,0.0225496799998552
,15.0,0.9930225999996763,0.0,sad,neutral,25ms,61.0,57.0,0.0,25ms_neutral,study1,0.0256396800017455
,15.0,0.5860265000010259,1.0,neutral,neutral,141ms,62.0,58.0,0.0,141ms_neutral,study1,0.1606945799998413
,15.0,0.4497454999982437,1.0,neutral,neutral,141ms,63.0,59.0,0.0,141ms_neutral,study1,0.1681052799999349
,15.0,1.0780692000007548,1.0,sad,sad,25ms,64.0,60.0,0.0,25ms_sad,study1,0.0229791799996803
,15.0,0.551111699998728,1.0,neutral,neutral,25ms,65.0,61.0,0.0,25ms_neutral,study1,0.0277583800001366
,15.0,0.8084792999979982,1.0,happy,happy,25ms,66.0,62.0,0.0,25ms_happy,study1,0.0228517800009626
,15.0,0.5596559000005072,1.0,happy,happy,25ms,67.0,63.0,0.0,25ms_happy,study1,0.0224399800011951
,15.0,0.4056547000000137,1.0,happy,happy,141ms,68.0,64.0,0.0,141ms_happy,study1,0.1383744799990438
,15.0,1.275952399999369,1.0,sad,sad,25ms,69.0,65.0,0.0,25ms_sad,study1,0.0230056800013755
,15.0,0.6189878999975917,1.0,happy,happy,25ms,70.0,66.0,0.0,25ms_happy,study1,0.0222641799977338
,15.0,0.501612700001715,1.0,happy,happy,141ms,71.0,67.0,0.0,141ms_happy,study1,0.1595123800019848
,15.0,0.4913788000012573,1.0,happy,happy,25ms,72.0,68.0,0.0,25ms_happy,study1,0.0223526799986188
,15.0,0.826998000000458,1.0,sad,sad,25ms,73.0,69.0,0.0,25ms_sad,study1,0.0229273799981513
,15.0,0.5692768000008073,1.0,happy,happy,141ms,74.0,70.0,0.0,141ms_happy,study1,0.1382613800000172
,15.0,0.3340195999990101,1.0,happy,happy,141ms,75.0,71.0,0.0,141ms_happy,study1,0.1615264800005889
,15.0,0.4430729000014253,1.0,happy,happy,25ms,76.0,72.0,0.0,25ms_happy,study1,0.0251814799979683
,15.0,0.6787943999988784,0.0,happy,sad,25ms,77.0,73.0,0.0,25ms_sad,study1,0.025933980001696
,15.0,0.3233259999979054,1.0,happy,happy,141ms,78.0,74.0,0.0,141ms_happy,study1,0.1626619799993705
,15.0,0.6665983999992022,1.0,sad,sad,141ms,79.0,75.0,0.0,141ms_sad,study1,0.1681435800004465
,15.0,0.9935208999995666,1.0,sad,sad,141ms,81.0,77.0,0.0,141ms_sad,study1,0.1307607800030155
,15.0,0.5519903000022168,1.0,happy,happy,25ms,82.0,78.0,0.0,25ms_happy,study1,0.0256793799984507
,15.0,0.6749296000016329,1.0,sad,sad,25ms,83.0,79.0,0.0,25ms_sad,study1,0.0228352799989579
,15.0,0.8098013999988325,1.0,sad,sad,141ms,84.0,80.0,0.0,141ms_sad,study1,0.1329356800000596
,15.0,0.5417419000004884,1.0,sad,sad,25ms,85.0,81.0,0.0,25ms_sad,study1,0.0225910799985058
,15.0,0.54026089999752,1.0,happy,happy,141ms,86.0,82.0,0.0,141ms_happy,study1,0.1374347799995803
,15.0,0.5331349000007322,1.0,sad,sad,141ms,87.0,83.0,0.0,141ms_sad,study1,0.1306898800015687
,15.0,0.525725000003149,1.0,sad,sad,141ms,88.0,84.0,0.0,141ms_sad,study1,0.1325757800026394
,15.0,0.3994912999987718,1.0,sad,sad,141ms,89.0,85.0,0.0,141ms_sad,study1,0.133169380000595
,15.0,0.580858299999818,0.0,sad,neutral,25ms,90.0,86.0,0.0,25ms_neutral,study1,0.0259670799990772
,15.0,0.4733844000002136,1.0,happy,happy,141ms,91.0,87.0,0.0,141ms_happy,study1,0.1612287800001581
,15.0,0.433038299997861,1.0,sad,sad,141ms,92.0,88.0,0.0,141ms_sad,study1,0.1313894799990294
,15.0,0.3365377000009175,1.0,sad,sad,141ms,93.0,89.0,0.0,141ms_sad,study1,0.1313904799993679
,15.0,1.1166019999982382,1.0,sad,sad,141ms,94.0,90.0,0.0,141ms_sad,study1,0.1327048799997783
,15.0,0.7525820000009844,0.0,sad,neutral,25ms,95.0,91.0,0.0,25ms_neutral,study1,0.026031179999677
,15.0,0.6065732999995816,1.0,sad,sad,25ms,96.0,92.0,0.0,25ms_sad,study1,0.0224510799984045
,15.0,0.5324103000020841,1.0,sad,sad,25ms,97.0,93.0,0.0,25ms_sad,study1,0.0231926799991697
,15.0,0.5402071999997133,1.0,sad,sad,25ms,98.0,94.0,0.0,25ms_sad,study1,0.0260256799979288
,15.0,0.4301814999998896,1.0,sad,sad,25ms,99.0,95.0,0.0,25ms_sad,study1,0.0270871800006489
,15.0,0.7684516999979678,0.0,sad,neutral,25ms,100.0,96.0,0.0,25ms_neutral,study1,0.027028380000388
,15.0,0.635948200000712,1.0,happy,happy,25ms,101.0,97.0,0.0,25ms_happy,study1,0.0262531799984344
,15.0,1.4700106999989655,1.0,neutral,neutral,25ms,102.0,98.0,0.0,25ms_neutral,study1,0.0252518800028838
,15.0,1.1488048999999592,1.0,sad,sad,25ms,103.0,99.0,0.0,25ms_sad,study1,0.0216146799997432
,15.0,0.6402999999991152,1.0,sad,sad,141ms,105.0,101.0,0.0,141ms_sad,study1,0.1712297800025908
,15.0,0.367889400000422,1.0,happy,happy,141ms,106.0,102.0,0.0,141ms_happy,study1,0.162643379999622
,15.0,1.2336031000013463,1.0,sad,sad,25ms,107.0,103.0,0.0,25ms_sad,study1,0.0257756800004926
,15.0,0.6219759999985399,1.0,sad,sad,141ms,108.0,104.0,0.0,141ms_sad,study1,0.1605290799983549
,15.0,0.4493384000015794,1.0,happy,happy,141ms,109.0,105.0,0.0,141ms_happy,study1,0.1364276800035213
,15.0,0.9764332999984616,1.0,neutral,neutral,141ms,110.0,106.0,0.0,141ms_neutral,study1,0.1638556800011201
,15.0,0.428008700000646,1.0,happy,happy,141ms,111.0,107.0,0.0,141ms_happy,study1,0.1703486800019504
,15.0,0.5038324999986799,1.0,sad,sad,141ms,112.0,108.0,0.0,141ms_sad,study1,0.1382359799994219
,15.0,0.7034025000029942,1.0,neutral,neutral,141ms,113.0,109.0,0.0,141ms_neutral,study1,0.1560677799992618
,15.0,0.8145318000024417,1.0,sad,sad,141ms,114.0,110.0,0.0,141ms_sad,study1,0.134904779997953
,15.0,0.405208300002414,1.0,happy,happy,141ms,115.0,111.0,0.0,141ms_happy,study1,0.1603392800010397
,15.0,1.2335189000004902,1.0,neutral,neutral,141ms,116.0,112.0,0.0,141ms_neutral,study1,0.1621485799972788
,15.0,0.5545410000013362,1.0,sad,sad,141ms,117.0,113.0,0.0,141ms_sad,study1,0.1591207799996254
,15.0,0.4843352999996568,1.0,happy,happy,141ms,118.0,114.0,0.0,141ms_happy,study1,0.1581363799981545
,15.0,0.3986860000004526,1.0,happy,happy,141ms,119.0,115.0,0.0,141ms_happy,study1,0.1501772799987293
,15.0,1.0454339999996591,1.0,sad,sad,141ms,120.0,116.0,0.0,141ms_sad,study1,0.1546743799975729
,15.0,0.572871699998359,1.0,neutral,neutral,141ms,121.0,117.0,0.0,141ms_neutral,study1,0.1553336800010925
,15.0,0.6341294999983802,1.0,neutral,neutral,141ms,122.0,118.0,0.0,141ms_neutral,study1,0.1595225799995887
,15.0,0.4607720999993034,1.0,neutral,neutral,141ms,123.0,119.0,0.0,141ms_neutral,study1,0.1625012800017771
,15.0,1.4903174999999464,1.0,sad,sad,16ms,124.0,0.0,1.0,16ms_sad,study1,0.0153685799982099
,15.0,0.9726388000017324,1.0,neutral,neutral,141ms,125.0,1.0,1.0,141ms_neutral,study1,0.1694449800000939
,15.0,0.751587799997651,1.0,sad,sad,141ms,126.0,2.0,1.0,141ms_sad,study1,0.1576182800002925
,15.0,1.4235530000005383,0.0,neutral,sad,16ms,127.0,3.0,1.0,16ms_sad,study1,0.0151334800014524
,15.0,0.7438631000004534,1.0,neutral,neutral,16ms,128.0,4.0,1.0,16ms_neutral,study1,0.017184479997411
,15.0,0.6771923000014795,0.0,sad,neutral,141ms,129.0,5.0,1.0,141ms_neutral,study1,0.1630107799995244
,15.0,0.7075604999990901,1.0,sad,sad,141ms,130.0,6.0,1.0,141ms_sad,study1,0.1356327800007193
,15.0,0.5569031000013638,1.0,neutral,neutral,141ms,131.0,7.0,1.0,141ms_neutral,study1,0.1584286800010659
,15.0,0.5872750000016822,1.0,sad,sad,141ms,132.0,8.0,1.0,141ms_sad,study1,0.136632579999457
,15.0,0.649879399999918,1.0,sad,sad,141ms,133.0,9.0,1.0,141ms_sad,study1,0.1341003799992677
,15.0,0.4749111000019184,1.0,neutral,neutral,141ms,135.0,11.0,1.0,141ms_neutral,study1,0.1673424800013663
,15.0,0.5678602000007231,1.0,sad,sad,141ms,136.0,12.0,1.0,141ms_sad,study1,0.1352605800005903
,15.0,1.1552260999997088,0.0,neutral,happy,16ms,137.0,13.0,1.0,16ms_happy,study1,0.0147088800025585
,15.0,0.6546918999993068,1.0,happy,happy,16ms,138.0,14.0,1.0,16ms_happy,study1,0.0173895799983938
,15.0,0.4478050999969127,1.0,neutral,neutral,141ms,140.0,16.0,1.0,141ms_neutral,study1,0.1555129799984342
,15.0,0.6186114999982237,1.0,happy,happy,16ms,141.0,17.0,1.0,16ms_happy,study1,0.0176722800010225
,15.0,0.747595699998783,1.0,sad,sad,16ms,142.0,18.0,1.0,16ms_sad,study1,0.0153371800027457
,15.0,0.740992399998504,1.0,happy,happy,16ms,143.0,19.0,1.0,16ms_happy,study1,0.0148189800005411
,15.0,0.605999299998075,1.0,happy,happy,16ms,144.0,20.0,1.0,16ms_happy,study1,0.0158072799989668
,15.0,0.4033797000010963,1.0,happy,happy,141ms,145.0,21.0,1.0,141ms_happy,study1,0.1312367800004494
,15.0,0.832221099997696,1.0,neutral,neutral,141ms,147.0,23.0,1.0,141ms_neutral,study1,0.1528290800000604
,15.0,0.5852720000002591,1.0,happy,happy,16ms,149.0,25.0,1.0,16ms_happy,study1,0.0153444800001807
,15.0,1.096855300002062,1.0,neutral,neutral,16ms,150.0,26.0,1.0,16ms_neutral,study1,0.0166100800000776
,15.0,0.5216782000024978,1.0,happy,happy,16ms,151.0,27.0,1.0,16ms_happy,study1,0.0172288800006867
,15.0,0.7347613999991154,1.0,sad,sad,16ms,152.0,28.0,1.0,16ms_sad,study1,0.0154592800012096
,15.0,0.3705832999985432,1.0,happy,happy,141ms,153.0,29.0,1.0,141ms_happy,study1,0.1691318799988153
,15.0,0.486217999998189,1.0,happy,happy,141ms,154.0,30.0,1.0,141ms_happy,study1,0.1314865799998301
,15.0,0.293939399998635,1.0,happy,happy,141ms,155.0,31.0,1.0,141ms_happy,study1,0.1608866800001465
,15.0,0.5959965999973065,1.0,sad,sad,16ms,157.0,33.0,1.0,16ms_sad,study1,0.0151817800019102
,15.0,1.4160792000002402,0.0,sad,neutral,16ms,158.0,34.0,1.0,16ms_neutral,study1,0.0184576800005515
,15.0,0.475610699999379,1.0,happy,happy,141ms,159.0,35.0,1.0,141ms_happy,study1,0.134943380000891
,15.0,0.8139798000011069,1.0,neutral,neutral,16ms,160.0,36.0,1.0,16ms_neutral,study1,0.0166793800002551
,15.0,1.183334899997135,1.0,neutral,neutral,16ms,161.0,37.0,1.0,16ms_neutral,study1,0.0170590800029231
,15.0,0.3804541999998037,1.0,happy,happy,141ms,162.0,38.0,1.0,141ms_happy,study1,0.161464580002189
,15.0,0.413788800000475,1.0,happy,happy,141ms,163.0,39.0,1.0,141ms_happy,study1,0.131572980002943
,15.0,0.4730196999989857,1.0,happy,happy,141ms,164.0,40.0,1.0,141ms_happy,study1,0.1363517800003819
,15.0,1.1842944000018178,1.0,neutral,neutral,141ms,165.0,41.0,1.0,141ms_neutral,study1,0.1646912800009659
,15.0,0.3852120999981707,1.0,happy,happy,141ms,166.0,42.0,1.0,141ms_happy,study1,0.1316549799979611
,15.0,0.3982237000018358,1.0,happy,happy,141ms,167.0,43.0,1.0,141ms_happy,study1,0.1591813800026784
,15.0,0.6458057000018016,1.0,sad,sad,141ms,168.0,44.0,1.0,141ms_sad,study1,0.1309275799998204
,15.0,0.6159998000002815,1.0,neutral,neutral,141ms,169.0,45.0,1.0,141ms_neutral,study1,0.1644108800013555
,15.0,0.3664291000022786,1.0,happy,happy,141ms,171.0,47.0,1.0,141ms_happy,study1,0.1584005799981014
,15.0,0.3697738000009849,1.0,happy,happy,141ms,173.0,49.0,1.0,141ms_happy,study1,0.135894080000412
,15.0,0.2760782999976072,1.0,happy,happy,141ms,174.0,50.0,1.0,141ms_happy,study1,0.1601171800015208
,15.0,0.5856320999992022,1.0,neutral,neutral,16ms,175.0,51.0,1.0,16ms_neutral,study1,0.0170024800012242
,15.0,0.4982141999971645,1.0,happy,happy,141ms,176.0,52.0,1.0,141ms_happy,study1,0.1385232799970026
,15.0,0.3315430000002379,1.0,happy,happy,141ms,177.0,53.0,1.0,141ms_happy,study1,0.1310577800016972
,15.0,0.2778150999984063,1.0,happy,happy,141ms,178.0,54.0,1.0,141ms_happy,study1,0.1358260799992194
,15.0,0.246249899999384,1.0,happy,happy,141ms,179.0,55.0,1.0,141ms_happy,study1,0.1376682799985928
,15.0,0.6414393999984895,1.0,neutral,neutral,16ms,180.0,56.0,1.0,16ms_neutral,study1,0.0170805799992876
,15.0,1.002229599998827,1.0,sad,sad,16ms,181.0,57.0,1.0,16ms_sad,study1,0.0152249799997434
,15.0,1.2946941000009249,1.0,neutral,neutral,16ms,182.0,58.0,1.0,16ms_neutral,study1,0.017539480001119
,15.0,0.7528692000014416,1.0,sad,sad,141ms,183.0,59.0,1.0,141ms_sad,study1,0.1382311799992521
,15.0,0.7539794999975129,1.0,neutral,neutral,141ms,184.0,60.0,1.0,141ms_neutral,study1,0.1538426799983199
,15.0,0.5660040000002482,1.0,sad,sad,141ms,185.0,61.0,1.0,141ms_sad,study1,0.1319956800019781
,15.0,0.7053706000006059,0.0,sad,neutral,16ms,186.0,62.0,1.0,16ms_neutral,study1,0.0170414799998752
,15.0,0.584449099998892,1.0,sad,sad,16ms,187.0,63.0,1.0,16ms_sad,study1,0.0150511800005688
,15.0,0.4575188000017078,1.0,happy,happy,141ms,188.0,64.0,1.0,141ms_happy,study1,0.1309709799992333
,15.0,0.9320742999989308,0.0,happy,neutral,16ms,189.0,65.0,1.0,16ms_neutral,study1,0.0166585800019447
,15.0,0.7407655000024533,1.0,sad,sad,16ms,190.0,66.0,1.0,16ms_sad,study1,0.0159052800030394
,15.0,0.7326837999971758,1.0,happy,happy,16ms,191.0,67.0,1.0,16ms_happy,study1,0.0152737800002569
,15.0,0.4466084000014234,1.0,sad,sad,141ms,192.0,68.0,1.0,141ms_sad,study1,0.1552406799986556
,15.0,0.774780899999314,1.0,neutral,neutral,16ms,193.0,69.0,1.0,16ms_neutral,study1,0.016823479998834
,15.0,0.5873597000027075,1.0,sad,sad,141ms,194.0,70.0,1.0,141ms_sad,study1,0.1572578799990651
,15.0,0.769972099998995,0.0,sad,neutral,141ms,195.0,71.0,1.0,141ms_neutral,study1,0.1587778800006845
,15.0,0.5637311999998929,0.0,sad,neutral,141ms,196.0,72.0,1.0,141ms_neutral,study1,0.160618780001073
,15.0,0.4011897999989742,1.0,sad,sad,141ms,197.0,73.0,1.0,141ms_sad,study1,0.1586589799975399
,15.0,0.9032838000021002,0.0,sad,neutral,16ms,198.0,74.0,1.0,16ms_neutral,study1,0.0177606799974228
,15.0,0.5757713000020885,1.0,sad,sad,16ms,199.0,75.0,1.0,16ms_sad,study1,0.0154691800001955
,15.0,0.5184721000005084,1.0,neutral,neutral,141ms,200.0,76.0,1.0,141ms_neutral,study1,0.1561615800004574
,15.0,0.6502421000004688,0.0,neutral,sad,16ms,201.0,77.0,1.0,16ms_sad,study1,0.0152271800019434
,15.0,0.5454874999995809,1.0,neutral,neutral,141ms,202.0,78.0,1.0,141ms_neutral,study1,0.1628169800009118
,15.0,0.6086797999996634,1.0,happy,happy,16ms,203.0,79.0,1.0,16ms_happy,study1,0.0152115799995726
,15.0,0.6711891000013566,1.0,neutral,neutral,16ms,204.0,80.0,1.0,16ms_neutral,study1,0.0168241800005262
,15.0,0.7695118000010552,1.0,happy,happy,141ms,205.0,81.0,1.0,141ms_happy,study1,0.134719480002218
,15.0,0.3989942000007431,1.0,happy,happy,141ms,206.0,82.0,1.0,141ms_happy,study1,0.1572965799990697
,15.0,0.3613536000011663,1.0,happy,happy,141ms,207.0,83.0,1.0,141ms_happy,study1,0.1383482799996045
,15.0,1.462237499999901,1.0,neutral,neutral,16ms,208.0,84.0,1.0,16ms_neutral,study1,0.0169439799996098
,15.0,0.703154099999665,1.0,neutral,neutral,16ms,209.0,85.0,1.0,16ms_neutral,study1,0.0165581800014251
,15.0,0.636309400000755,1.0,happy,happy,16ms,210.0,86.0,1.0,16ms_happy,study1,0.0155687800018995
,15.0,0.5568564000022889,1.0,sad,sad,141ms,212.0,88.0,1.0,141ms_sad,study1,0.1312810800030774
,15.0,0.701996899999358,1.0,happy,happy,141ms,213.0,89.0,1.0,141ms_happy,study1,0.1315402800013316
,15.0,0.7244544999994105,1.0,happy,happy,16ms,214.0,90.0,1.0,16ms_happy,study1,0.014826680000965
,15.0,1.3734915999993973,0.0,happy,sad,16ms,215.0,91.0,1.0,16ms_sad,study1,0.0154903800015517
,15.0,0.6227395000023535,1.0,sad,sad,16ms,216.0,92.0,1.0,16ms_sad,study1,0.0157542800028522
,15.0,1.1464398999996774,0.0,sad,neutral,16ms,217.0,93.0,1.0,16ms_neutral,study1,0.0167766800026356
,15.0,0.713589700000739,1.0,neutral,neutral,16ms,219.0,95.0,1.0,16ms_neutral,study1,0.0169069800016359
,15.0,0.3633561999995436,1.0,happy,happy,141ms,220.0,96.0,1.0,141ms_happy,study1,0.1307800800008181
,15.0,0.6817095000005793,1.0,sad,sad,141ms,221.0,97.0,1.0,141ms_sad,study1,0.1313554799984331
,15.0,0.5576046999995015,1.0,sad,sad,16ms,222.0,98.0,1.0,16ms_sad,study1,0.0147876799986761
,15.0,0.6216168999999354,1.0,sad,sad,16ms,223.0,99.0,1.0,16ms_sad,study1,0.0173191800007543
,15.0,0.508582699996623,1.0,neutral,neutral,141ms,224.0,100.0,1.0,141ms_neutral,study1,0.1632179800020594
,15.0,0.3723131000006106,1.0,happy,happy,141ms,225.0,101.0,1.0,141ms_happy,study1,0.1355280800001992
,15.0,0.5992350000014994,1.0,sad,sad,141ms,226.0,102.0,1.0,141ms_sad,study1,0.136713880000002
,15.0,0.619557400001213,1.0,neutral,neutral,16ms,227.0,103.0,1.0,16ms_neutral,study1,0.017618379997998
,15.0,0.414357800000289,1.0,happy,happy,141ms,228.0,104.0,1.0,141ms_happy,study1,0.1306585799997037
,15.0,0.8704466999988654,0.0,sad,neutral,16ms,229.0,105.0,1.0,16ms_neutral,study1,0.0167361799998388
,15.0,0.4338537000003271,1.0,sad,sad,141ms,230.0,106.0,1.0,141ms_sad,study1,0.1355785799991054
,15.0,0.854002500000206,1.0,happy,happy,16ms,231.0,107.0,1.0,16ms_happy,study1,0.0153961800009483
,15.0,0.7853764999999839,1.0,sad,sad,16ms,232.0,108.0,1.0,16ms_sad,study1,0.0174591800008556
,15.0,0.4200061999981699,1.0,sad,sad,141ms,233.0,109.0,1.0,141ms_sad,study1,0.1388680799994972
,15.0,0.4289273000031244,1.0,happy,happy,141ms,234.0,110.0,1.0,141ms_happy,study1,0.1578846800024393
,15.0,1.468450500000472,0.0,happy,neutral,16ms,235.0,111.0,1.0,16ms_neutral,study1,0.0169467799991025
,15.0,0.7145358000016131,1.0,sad,sad,141ms,236.0,112.0,1.0,141ms_sad,study1,0.1362814799998659
,15.0,0.6393833000001905,1.0,happy,happy,141ms,237.0,113.0,1.0,141ms_happy,study1,0.1373273800003289
,15.0,0.6547820000014326,1.0,sad,sad,16ms,238.0,114.0,1.0,16ms_sad,study1,0.0169382799998629
,15.0,0.7116538000009314,1.0,happy,happy,16ms,239.0,115.0,1.0,16ms_happy,study1,0.0173726800006761
,15.0,1.416035499998543,1.0,neutral,neutral,141ms,240.0,116.0,1.0,141ms_neutral,study1,0.1644228800017799
,15.0,0.9265087999992828,1.0,neutral,neutral,16ms,241.0,117.0,1.0,16ms_neutral,study1,0.0177535799979295
,15.0,0.4349906999996165,1.0,neutral,neutral,141ms,242.0,118.0,1.0,141ms_neutral,study1,0.1705632799988734
,15.0,0.7541799999999057,1.0,sad,sad,16ms,243.0,119.0,1.0,16ms_sad,study1,0.0151578800017659
,15.0,0.5141239000004134,1.0,happy,happy,141ms,244.0,0.0,2.0,141ms_happy,study1,0.1611685800002078
,15.0,0.373048800000106,1.0,happy,happy,141ms,245.0,1.0,2.0,141ms_happy,study1,0.1617923800025664
,15.0,0.3966636000004655,1.0,sad,sad,141ms,246.0,2.0,2.0,141ms_sad,study1,0.1383665800007065
,15.0,0.3479545000009238,1.0,happy,happy,141ms,247.0,3.0,2.0,141ms_happy,study1,0.163249180003163
,15.0,0.9452621999989788,1.0,sad,sad,141ms,248.0,4.0,2.0,141ms_sad,study1,0.1369234800025651
,15.0,1.080532800002402,1.0,neutral,neutral,8ms,249.0,5.0,2.0,8ms_neutral,study1,0.0083441800001082
,15.0,1.0660925999982285,1.0,neutral,neutral,8ms,250.0,6.0,2.0,8ms_neutral,study1,0.0083441800001082
,15.0,0.7085174000021652,1.0,neutral,neutral,141ms,251.0,7.0,2.0,141ms_neutral,study1,0.1645476799989182
,15.0,0.3987193000029947,1.0,happy,happy,141ms,252.0,8.0,2.0,141ms_happy,study1,0.160679179998965
,15.0,0.462125099998957,1.0,happy,happy,141ms,253.0,9.0,2.0,141ms_happy,study1,0.1590357799999537
,15.0,0.4806953000006615,1.0,neutral,neutral,141ms,254.0,10.0,2.0,141ms_neutral,study1,0.1597607800016476
,15.0,1.2133708000001209,1.0,neutral,neutral,141ms,261.0,17.0,2.0,141ms_neutral,study1,0.1608010799994872
,15.0,0.693810199998552,1.0,sad,sad,141ms,262.0,18.0,2.0,141ms_sad,study1,0.1357790799978602
,15.0,0.5559203000011621,1.0,happy,happy,141ms,267.0,23.0,2.0,141ms_happy,study1,0.1382027800012792
,15.0,0.9089134999994712,1.0,neutral,neutral,141ms,268.0,24.0,2.0,141ms_neutral,study1,0.1685519799997337
,15.0,0.8403866000007838,1.0,sad,sad,8ms,270.0,26.0,2.0,8ms_sad,study1,0.0083441800001082
,15.0,1.0372126000002029,1.0,neutral,neutral,141ms,273.0,29.0,2.0,141ms_neutral,study1,0.160498679999705
,15.0,0.5195340999998734,1.0,sad,sad,141ms,276.0,32.0,2.0,141ms_sad,study1,0.1350219799991237
,15.0,0.6144085999985691,1.0,sad,sad,141ms,277.0,33.0,2.0,141ms_sad,study1,0.131174980002811
,15.0,0.5964683999991394,1.0,happy,happy,141ms,279.0,35.0,2.0,141ms_happy,study1,0.1706513800003222
,15.0,0.6225384999997914,1.0,sad,sad,141ms,280.0,36.0,2.0,141ms_sad,study1,0.1344812800001591
,15.0,0.6820761000017228,1.0,happy,happy,141ms,281.0,37.0,2.0,141ms_happy,study1,0.1324020800005882
,15.0,0.6194753000017954,1.0,neutral,neutral,141ms,284.0,40.0,2.0,141ms_neutral,study1,0.1601139800026203
,15.0,1.245032099999662,1.0,happy,happy,141ms,285.0,41.0,2.0,141ms_happy,study1,0.1593244800009188
,15.0,0.5797840999985056,1.0,sad,sad,141ms,286.0,42.0,2.0,141ms_sad,study1,0.1309200800009193
,15.0,0.4537416000021039,1.0,happy,happy,141ms,288.0,44.0,2.0,141ms_happy,study1,0.1307118800018543
,15.0,0.496190599998954,1.0,sad,sad,141ms,289.0,45.0,2.0,141ms_sad,study1,0.131494079998788
,15.0,0.37803939999867,1.0,happy,happy,141ms,293.0,49.0,2.0,141ms_happy,study1,0.1534538799992333
,15.0,0.3583867999986978,1.0,happy,happy,141ms,295.0,51.0,2.0,141ms_happy,study1,0.1352320800017423
,15.0,0.4725335999974049,1.0,sad,sad,141ms,296.0,52.0,2.0,141ms_sad,study1,0.1315997799995329
,15.0,0.4247407000002567,1.0,sad,sad,141ms,298.0,54.0,2.0,141ms_sad,study1,0.1317253799991249
,15.0,0.6092227000008279,1.0,sad,sad,141ms,300.0,56.0,2.0,141ms_sad,study1,0.1313885800030902
,15.0,0.3120601000009628,1.0,happy,happy,141ms,302.0,58.0,2.0,141ms_happy,study1,0.1690801799982182
,15.0,0.8774096999986796,1.0,happy,happy,8ms,305.0,61.0,2.0,8ms_happy,study1,0.0083441800002219
,15.0,0.5656774999988556,1.0,sad,sad,8ms,309.0,65.0,2.0,8ms_sad,study1,0.0083441800001082
,15.0,0.4640620999998646,1.0,sad,sad,141ms,310.0,66.0,2.0,141ms_sad,study1,0.1368788800011771
,15.0,0.3835354999973788,0.0,sad,neutral,141ms,312.0,68.0,2.0,141ms_neutral,study1,0.1599076799998329
,15.0,0.4074910000017553,1.0,happy,happy,141ms,314.0,70.0,2.0,141ms_happy,study1,0.1553339799995683
,15.0,1.113075999997818,1.0,sad,sad,141ms,316.0,72.0,2.0,141ms_sad,study1,0.1350164800010134
,15.0,0.7982618000023649,1.0,neutral,neutral,141ms,317.0,73.0,2.0,141ms_neutral,study1,0.1544985800013592
,15.0,0.472853600000235,1.0,happy,happy,141ms,318.0,74.0,2.0,141ms_happy,study1,0.1304345800002693
,15.0,0.6622500000012224,1.0,neutral,neutral,141ms,319.0,75.0,2.0,141ms_neutral,study1,0.1593935799994597
,15.0,0.4403424000011,1.0,happy,happy,141ms,320.0,76.0,2.0,141ms_happy,study1,0.1400488800012453
,15.0,0.4815602000016952,1.0,happy,happy,141ms,321.0,77.0,2.0,141ms_happy,study1,0.1571552799999835
,15.0,0.4399903000012273,1.0,happy,happy,141ms,323.0,79.0,2.0,141ms_happy,study1,0.1353315799991605
,15.0,0.5537365999989561,1.0,sad,sad,141ms,324.0,80.0,2.0,141ms_sad,study1,0.1369950800019523
,15.0,0.9895766000008734,1.0,happy,happy,141ms,325.0,81.0,2.0,141ms_happy,study1,0.1378384800032108
,15.0,0.4743312000027799,1.0,neutral,neutral,141ms,326.0,82.0,2.0,141ms_neutral,study1,0.1697251799984087
,15.0,0.5233451000021887,1.0,sad,sad,141ms,330.0,86.0,2.0,141ms_sad,study1,0.1382465800002137
,15.0,0.4979349999994156,1.0,sad,sad,141ms,331.0,87.0,2.0,141ms_sad,study1,0.1360202800010483
,15.0,0.448561699999118,1.0,sad,sad,141ms,332.0,88.0,2.0,141ms_sad,study1,0.138555379997797
,15.0,1.1441114999979618,1.0,sad,sad,8ms,333.0,89.0,2.0,8ms_sad,study1,0.0083441800002219
,15.0,0.4893534000002546,1.0,sad,sad,141ms,335.0,91.0,2.0,141ms_sad,study1,0.1361317799987773
,15.0,0.4285460999999486,1.0,happy,happy,141ms,336.0,92.0,2.0,141ms_happy,study1,0.1315435799974693
,15.0,0.5937954999972135,1.0,neutral,neutral,141ms,337.0,93.0,2.0,141ms_neutral,study1,0.154193180000675
,15.0,0.4388265000015963,1.0,happy,happy,141ms,342.0,98.0,2.0,141ms_happy,study1,0.1307469799999125
,15.0,0.4198505000022123,1.0,sad,sad,141ms,343.0,99.0,2.0,141ms_sad,study1,0.1325477799969121
,15.0,0.5022542000006069,1.0,sad,sad,141ms,344.0,100.0,2.0,141ms_sad,study1,0.1341130799980874
,15.0,1.0414780999999491,1.0,neutral,neutral,8ms,345.0,101.0,2.0,8ms_neutral,study1,0.0083441800002219
,15.0,0.4086504999977478,1.0,happy,happy,141ms,347.0,103.0,2.0,141ms_happy,study1,0.1363482799993107
,15.0,0.7922395999994478,1.0,neutral,neutral,141ms,348.0,104.0,2.0,141ms_neutral,study1,0.1605037799986348
,15.0,0.503091200000199,1.0,happy,happy,141ms,349.0,105.0,2.0,141ms_happy,study1,0.1313369799997872
,15.0,0.5946291000000201,1.0,neutral,neutral,141ms,352.0,108.0,2.0,141ms_neutral,study1,0.163091680000889
,15.0,0.917303099999117,1.0,sad,sad,141ms,353.0,109.0,2.0,141ms_sad,study1,0.1371049799986394
,15.0,1.244369000000006,1.0,happy,happy,141ms,355.0,111.0,2.0,141ms_happy,study1,0.1671785800012912
,15.0,0.8241994999989402,1.0,happy,happy,8ms,356.0,112.0,2.0,8ms_happy,study1,0.0083441799999945
,15.0,0.6005820000027597,1.0,sad,sad,141ms,360.0,116.0,2.0,141ms_sad,study1,0.1365833799995925
,15.0,0.5457891000005475,1.0,sad,sad,141ms,361.0,117.0,2.0,141ms_sad,study1,0.1373974799994357
,15.0,1.1831057000017609,1.0,neutral,neutral,8ms,362.0,118.0,2.0,8ms_neutral,study1,0.0083441800002219
,4.0,0.711024499963969,1.0,sad,sad,141ms,6.0,2.0,0.0,141ms_sad,study1,0.1694310299877557
,4.0,0.9584476000163704,1.0,happy,happy,25ms,7.0,3.0,0.0,25ms_happy,study1,0.027185029984686
,4.0,0.9324923999956808,0.0,neutral,sad,25ms,8.0,4.0,0.0,25ms_sad,study1,0.025773130002193
,4.0,1.3577244999469258,0.0,sad,neutral,141ms,10.0,6.0,0.0,141ms_neutral,study1,0.1698063299932926
,4.0,1.229079799959436,1.0,neutral,neutral,25ms,11.0,7.0,0.0,25ms_neutral,study1,0.0261954300163722
,4.0,0.5333255000296049,1.0,happy,happy,141ms,12.0,8.0,0.0,141ms_happy,study1,0.1592994299658983
,4.0,0.4008389000082388,1.0,neutral,neutral,141ms,13.0,9.0,0.0,141ms_neutral,study1,0.1585737299697882
,4.0,0.5706290999660268,0.0,neutral,happy,25ms,14.0,10.0,0.0,25ms_happy,study1,0.02654992997995
,4.0,1.406390400021337,1.0,sad,sad,25ms,15.0,11.0,0.0,25ms_sad,study1,0.0214736300345919
,4.0,0.5703991000191309,1.0,neutral,neutral,141ms,16.0,12.0,0.0,141ms_neutral,study1,0.1593183299933969
,4.0,0.7324785999953747,1.0,happy,happy,25ms,17.0,13.0,0.0,25ms_happy,study1,0.0224636300059444
,4.0,0.6297944000107236,1.0,happy,happy,25ms,18.0,14.0,0.0,25ms_happy,study1,0.0216451300017013
,4.0,0.3865732999984175,1.0,neutral,neutral,141ms,19.0,15.0,0.0,141ms_neutral,study1,0.1605546299775682
,4.0,0.363225599983707,0.0,neutral,sad,141ms,20.0,16.0,0.0,141ms_sad,study1,0.1339786300028151
,4.0,0.7181138999876566,1.0,happy,happy,25ms,21.0,17.0,0.0,25ms_happy,study1,0.0225031300156643
,4.0,0.4714317999896593,1.0,happy,happy,141ms,22.0,18.0,0.0,141ms_happy,study1,0.1704391300387016
,4.0,0.8096998000401072,1.0,happy,happy,25ms,23.0,19.0,0.0,25ms_happy,study1,0.0222075299767112
,4.0,0.3167838999652304,1.0,happy,happy,141ms,24.0,20.0,0.0,141ms_happy,study1,0.1618100299907325
,4.0,0.8567617000080645,1.0,sad,sad,25ms,25.0,21.0,0.0,25ms_sad,study1,0.0251210299844331
,4.0,0.645959599991329,1.0,sad,sad,141ms,26.0,22.0,0.0,141ms_sad,study1,0.1319012300169504
,4.0,0.8285025000222959,1.0,happy,happy,141ms,27.0,23.0,0.0,141ms_happy,study1,0.1311654300021558
,4.0,0.4150555999949574,1.0,happy,happy,141ms,28.0,24.0,0.0,141ms_happy,study1,0.1304882299678809
,4.0,0.6013753999723122,1.0,neutral,neutral,141ms,29.0,25.0,0.0,141ms_neutral,study1,0.1587807300325749
,4.0,0.4746550000272691,1.0,happy,happy,141ms,30.0,26.0,0.0,141ms_happy,study1,0.1348953299981019
,4.0,0.3565480999532155,1.0,happy,happy,141ms,31.0,27.0,0.0,141ms_happy,study1,0.1381514299951902
,4.0,0.6636024999897927,1.0,sad,sad,141ms,32.0,28.0,0.0,141ms_sad,study1,0.161944830027636
,4.0,0.6010353000019677,1.0,neutral,neutral,25ms,33.0,29.0,0.0,25ms_neutral,study1,0.0256900300097129
,4.0,0.7130561999510974,1.0,neutral,neutral,25ms,34.0,30.0,0.0,25ms_neutral,study1,0.0259148299752212
,4.0,0.8909551999531686,0.0,sad,neutral,141ms,35.0,31.0,0.0,141ms_neutral,study1,0.1591823300055637
,4.0,0.7334659000043757,1.0,neutral,neutral,141ms,36.0,32.0,0.0,141ms_neutral,study1,0.1603863299766033
,4.0,0.8661526999785565,0.0,sad,neutral,141ms,38.0,34.0,0.0,141ms_neutral,study1,0.1662989300035349
,4.0,0.5096557000069879,1.0,happy,happy,141ms,39.0,35.0,0.0,141ms_happy,study1,0.1604408300423472
,4.0,1.2349550000508316,0.0,neutral,sad,25ms,40.0,36.0,0.0,25ms_sad,study1,0.0268116299936025
,4.0,0.4588482000399381,1.0,neutral,neutral,25ms,41.0,37.0,0.0,25ms_neutral,study1,0.0258455299714057
,4.0,1.1665763999917544,0.0,neutral,sad,141ms,42.0,38.0,0.0,141ms_sad,study1,0.1346027299819923
,4.0,0.3586627999902703,1.0,neutral,neutral,141ms,43.0,39.0,0.0,141ms_neutral,study1,0.1565667299961148
,4.0,1.0037654000334442,1.0,happy,happy,141ms,45.0,41.0,0.0,141ms_happy,study1,0.1634704300027749
,4.0,0.3104084000224247,1.0,happy,happy,141ms,46.0,42.0,0.0,141ms_happy,study1,0.1357065300049669
,4.0,0.6315827000071295,1.0,sad,sad,141ms,47.0,43.0,0.0,141ms_sad,study1,0.1350119299546293
,4.0,1.0490347999730147,1.0,happy,happy,141ms,48.0,44.0,0.0,141ms_happy,study1,0.1333699300245143
,4.0,0.5801857999758795,1.0,sad,sad,141ms,49.0,45.0,0.0,141ms_sad,study1,0.1321026299788741
,4.0,0.444647199998144,1.0,neutral,neutral,141ms,50.0,46.0,0.0,141ms_neutral,study1,0.1667475299851162
,4.0,0.5373868000460789,1.0,happy,happy,25ms,51.0,47.0,0.0,25ms_happy,study1,0.0222446300263925
,4.0,0.5215213000192307,1.0,neutral,neutral,25ms,52.0,48.0,0.0,25ms_neutral,study1,0.0252222299982918
,4.0,0.771228700003121,0.0,sad,neutral,141ms,53.0,49.0,0.0,141ms_neutral,study1,0.1600223299989807
,4.0,0.6402767999679781,1.0,happy,happy,141ms,54.0,50.0,0.0,141ms_happy,study1,0.1366370299889467
,4.0,0.3863079000147991,1.0,neutral,neutral,141ms,55.0,51.0,0.0,141ms_neutral,study1,0.1608355300209609
,4.0,0.707133200019598,1.0,neutral,neutral,25ms,56.0,52.0,0.0,25ms_neutral,study1,0.0266980300017394
,4.0,0.3030606000102125,1.0,happy,happy,141ms,57.0,53.0,0.0,141ms_happy,study1,0.1699991300062038
,4.0,1.2918535000062548,1.0,neutral,neutral,25ms,58.0,54.0,0.0,25ms_neutral,study1,0.026260529988292
,4.0,0.4202857000054791,1.0,neutral,neutral,141ms,59.0,55.0,0.0,141ms_neutral,study1,0.1546144300315006
,4.0,0.4241800000309013,1.0,happy,happy,141ms,60.0,56.0,0.0,141ms_happy,study1,0.1341364299819929
,4.0,0.6491720000049099,1.0,neutral,neutral,141ms,61.0,57.0,0.0,141ms_neutral,study1,0.1501660300360185
,4.0,0.4212072000373155,1.0,neutral,neutral,141ms,62.0,58.0,0.0,141ms_neutral,study1,0.1623707300110197
,4.0,0.3897861000150442,1.0,neutral,neutral,141ms,63.0,59.0,0.0,141ms_neutral,study1,0.1581206300121209
,4.0,0.923954900004901,0.0,neutral,sad,141ms,64.0,60.0,0.0,141ms_sad,study1,0.1316508299729264
,4.0,0.4126057999674231,1.0,neutral,neutral,141ms,65.0,61.0,0.0,141ms_neutral,study1,0.1703292299585825
,4.0,0.4974463999969885,1.0,happy,happy,141ms,66.0,62.0,0.0,141ms_happy,study1,0.1335579300007623
,4.0,1.216933699965011,1.0,happy,happy,25ms,67.0,63.0,0.0,25ms_happy,study1,0.0222173299931682
,4.0,0.5474816000205465,1.0,happy,happy,141ms,68.0,64.0,0.0,141ms_happy,study1,0.1307101299695148
,4.0,1.0720631000003775,1.0,sad,sad,141ms,69.0,65.0,0.0,141ms_sad,study1,0.1375247299961586
,4.0,0.3072070999769494,1.0,happy,happy,141ms,71.0,67.0,0.0,141ms_happy,study1,0.1612075300014055
,4.0,0.3525994999799877,1.0,happy,happy,141ms,72.0,68.0,0.0,141ms_happy,study1,0.1331285299907847
,4.0,0.9583330999594182,1.0,sad,sad,141ms,73.0,69.0,0.0,141ms_sad,study1,0.1303586299705728
,4.0,1.1332047000178136,0.0,neutral,happy,25ms,74.0,70.0,0.0,25ms_happy,study1,0.02240442996262
,4.0,0.934983299986925,1.0,happy,happy,25ms,75.0,71.0,0.0,25ms_happy,study1,0.0259182300011389
,4.0,0.2381744000012986,1.0,happy,happy,141ms,76.0,72.0,0.0,141ms_happy,study1,0.1594219300255872
,4.0,0.7325748999719508,1.0,sad,sad,25ms,77.0,73.0,0.0,25ms_sad,study1,0.0264083300077118
,4.0,1.0573772999923676,1.0,happy,happy,141ms,78.0,74.0,0.0,141ms_happy,study1,0.1593358300102636
,4.0,1.0204400000511669,0.0,neutral,sad,25ms,79.0,75.0,0.0,25ms_sad,study1,0.0261616299918046
,4.0,0.4704712000093423,1.0,neutral,neutral,141ms,80.0,76.0,0.0,141ms_neutral,study1,0.1691471299797058
,4.0,0.4085000000195578,0.0,neutral,sad,141ms,81.0,77.0,0.0,141ms_sad,study1,0.1370109299838873
,4.0,0.5284999999566935,1.0,happy,happy,25ms,82.0,78.0,0.0,25ms_happy,study1,0.0268138300103828
,4.0,0.6484875999740325,0.0,neutral,sad,141ms,84.0,80.0,0.0,141ms_sad,study1,0.1368706300214626
,4.0,1.3844606000347994,0.0,neutral,sad,25ms,85.0,81.0,0.0,25ms_sad,study1,0.0228839300049799
,4.0,0.55529970000498,1.0,happy,happy,25ms,86.0,82.0,0.0,25ms_happy,study1,0.0226768299996251
,4.0,0.9847787999897264,0.0,neutral,sad,25ms,87.0,83.0,0.0,25ms_sad,study1,0.0224885300210075
,4.0,0.9288813999737612,1.0,sad,sad,141ms,88.0,84.0,0.0,141ms_sad,study1,0.1313167299900897
,4.0,0.4391162999672815,1.0,sad,sad,141ms,89.0,85.0,0.0,141ms_sad,study1,0.1348034299968503
,4.0,0.406500400044024,0.0,sad,neutral,141ms,90.0,86.0,0.0,141ms_neutral,study1,0.16332422999551
,4.0,0.6718262000358663,1.0,happy,happy,141ms,91.0,87.0,0.0,141ms_happy,study1,0.1562866300170071
,4.0,0.5557659999467432,1.0,sad,sad,141ms,92.0,88.0,0.0,141ms_sad,study1,0.1369894299947418
,4.0,0.5907273999764584,1.0,sad,sad,141ms,93.0,89.0,0.0,141ms_sad,study1,0.1356441299955122
,4.0,0.5178093000431545,1.0,neutral,neutral,141ms,95.0,91.0,0.0,141ms_neutral,study1,0.1548286299745314
,4.0,0.8650035999598913,0.0,neutral,sad,25ms,96.0,92.0,0.0,25ms_sad,study1,0.0220283300092205
,4.0,0.5155736000160687,1.0,sad,sad,141ms,98.0,94.0,0.0,141ms_sad,study1,0.1583881300117582
,4.0,0.3315673999604769,1.0,sad,sad,141ms,99.0,95.0,0.0,141ms_sad,study1,0.160647329984954
,4.0,1.13907219999237,1.0,neutral,neutral,25ms,100.0,96.0,0.0,25ms_neutral,study1,0.0257280300079969
,4.0,0.5947939000325277,1.0,happy,happy,25ms,101.0,97.0,0.0,25ms_happy,study1,0.0260577300156228
,4.0,0.7434342000051402,1.0,neutral,neutral,25ms,102.0,98.0,0.0,25ms_neutral,study1,0.0270696299791097
,4.0,0.7736645999830216,0.0,neutral,sad,25ms,103.0,99.0,0.0,25ms_sad,study1,0.0228409299684813
