Person;primeGender;prime;primeEmotion;corrAnsPrime;targetPerson;targetGender;target;targetEmotion;Cond;corrAnsTar;gender;condition;ID_primer;ID_target;PrimerTime;PrimerTime120;JitterTime;conditionsFile;primePerson;emotion_condition;Condition;example.thisRepN;example.thisTrialN;example.thisN;example.thisIndex;readinBlocks.thisRepN;readinBlocks.thisTrialN;readinBlocks.thisN;readinBlocks.thisIndex;trials.thisRepN;trials.thisTrialN;trials.thisN;trials.thisIndex;text_intro.started;text_intro.stopped;text_probe.started;text_probe.stopped;key_resp_2.keys;key_resp_2.rt;key_resp_2.started;key_resp_2.stopped;polygon_ISI.started;polygon_ISI.stopped;polygon.started;polygon.stopped;primerImage.started;primerImage.stopped;maskImage.started;maskImage.stopped;response.started;response.stopped;key_resp.keys;key_resp.corr;key_resp.started;key_resp.stopped;text.started;text.stopped;key_resp_Rating.keys;key_resp_Rating.started;key_resp_Rating.stopped;text_start.started;text_start.stopped;text_pause.started;text_pause.stopped;text_ende.started;text_ende.stopped;participant;date;expName;psychopyVersion;frameRate;
;;;;;;;;;;;;;;;;;;;;;;;;;;;;;;;;;;24.724228700157255;29.69227400003001;29.69227400003001;None;f9;23.347037799889222;24.724228700157255;None;;;;;;;;;;;;;;;;;;;;;;;;;;Emoconpilot031;2021_Nov_10_1210;BackwardMask;2020.2.8;120.08175149607206;
2;f;1113_y_f_s_a.jpg;sad;7;1;m;1111_m_m_h_a.jpg;happy;incongruent;9;mix;s+h;130;150;1;2;148;;;;;0;0;0;0;;;;;;;;;;;;;;;;;48.123010700102895;None;49.37544410000555;49.69001550017856;49.69001550017856;49.70874930010177;49.70874930010177;49.741640600143;49.741640600143;None;None;0;49.741640600143;None;51.2427228000015;None;None;51.2427228000015;None;;;;;;;Emoconpilot031;2021_Nov_10_1210;BackwardMask;2020.2.8;120.08175149607206;
2;f;1111_m_m_h_a.jpg;happy;9;3;f;1113_y_f_s_a.jpg;sad;incongruent;7;mix;h+s;120;160;9;18;195;;;;;0;1;1;1;;;;;;;;;;;;;;;;;54.242252400144935;None;55.88953480008058;56.18452400015667;56.18452400015667;56.33412930020131;56.33412930020131;56.374749100068584;56.374749100068584;None;None;0;56.374749100068584;None;57.87486800015904;None;None;57.87486800015904;None;;;;;;;Emoconpilot031;2021_Nov_10_1210;BackwardMask;2020.2.8;120.08175149607206;
2;f;1112_m_f_n_a.jpg;neutral;8;2;f;1112_m_f_n_a.jpg;neutral;congruent;8;match;n+n;140;170;9;18;134;;;;;0;2;2;2;;;;;;;;;;;;;;;;;60.87517370004207;None;62.01603850000538;62.30982130020857;62.30982130020857;62.45916740014218;62.45916740014218;62.49994630017318;62.49994630017318;None;None;0;62.49994630017318;None;64.00009010010399;None;None;64.00009010010399;None;;;;;;;Emoconpilot031;2021_Nov_10_1210;BackwardMask;2020.2.8;120.08175149607206;
;m;033_o_m_h_a.jpg;happy;9;30;f;030_o_f_n_a.jpg;neutral;incongruent;8;mismatch;;120;170;;18;238;block1_Pilot_2;33;h_n;h_n_strong;;;;;0;0;0;0;0;0;0;0;;;;;;;;;68.03931860020384;None;70.03279830003157;70.32620850019157;70.32620850019157;70.47605400020257;70.47605400020257;70.51678920001723;70.51678920001723;None;None;0;70.51678920001723;None;72.01778670004569;None;None;72.01778670004569;None;67.00058860005811;None;None;None;;;Emoconpilot031;2021_Nov_10_1210;BackwardMask;2020.2.8;120.08175149607206;
;m;004_o_m_h_a.jpg;happy;9;12;f;012_o_f_h_a.jpg;happy;congruent;9;mismatch;;120;150;;2;218;block1_Pilot_2;4;h_h;h_h_weak;;;;;0;0;0;0;0;1;1;1;;;;;;;;;75.01727640000172;None;76.85830760002136;77.15164210018702;77.15164210018702;77.1678133001551;77.1678133001551;77.2085482000839;77.2085482000839;None;None;0;77.2085482000839;None;78.70869250013493;None;None;78.70869250013493;None;;;;;;;Emoconpilot031;2021_Nov_10_1210;BackwardMask;2020.2.8;120.08175149607206;
;f;012_o_f_h_a.jpg;happy;9;33;m;033_o_m_h_a.jpg;happy;congruent;9;mismatch;;120;150;;2;140;block1_Pilot_2;12;h_h;h_h_weak;;;;;0;0;0;0;0;2;2;2;;;;;;;;;81.70887950016186;None;82.88790920004249;83.17648760019802;83.17648760019802;83.19294740003534;83.19294740003534;83.23386760009453;83.23386760009453;None;None;0;83.23386760009453;None;84.73388620000333;None;None;84.73388620000333;None;;;;;;;Emoconpilot031;2021_Nov_10_1210;BackwardMask;2020.2.8;120.08175149607206;
;f;040_y_f_n_a.jpg;neutral;8;40;f;040_y_f_h_a.jpg;happy;incongruent;9;match;;140;150;;2;192;block1_Pilot_2;40;n_h;n_h_weak;;;;;0;0;0;0;0;3;3;3;;;;;;;;;87.73463950003497;None;89.35894380020909;89.6518866000697;89.6518866000697;89.66810830007307;89.66810830007307;89.70890620001592;89.70890620001592;None;None;0;89.70890620001592;None;91.20909380004741;None;None;91.20909380004741;None;;;;;;;Emoconpilot031;2021_Nov_10_1210;BackwardMask;2020.2.8;120.08175149607206;
;m;013_y_m_s_a.jpg;sad;7;16;m;016_y_m_n_a.jpg;neutral;incongruent;8;match;;130;170;;3;155;block1_Pilot_2;13;s_n;s_n_weak;;;;;0;0;0;0;0;4;4;4;;;;;;;;;94.20944060012698;None;95.51067090011202;95.80167230009101;95.80167230009101;95.8265064000152;95.8265064000152;95.86718360008672;95.86718360008672;None;None;0;95.86718360008672;None;97.36734920018353;None;None;97.36734920018353;None;;;;;;;Emoconpilot031;2021_Nov_10_1210;BackwardMask;2020.2.8;120.08175149607206;
;f;012_o_f_h_a.jpg;happy;9;21;f;021_o_f_h_a.jpg;happy;congruent;9;match;;120;150;;2;216;block1_Pilot_2;12;h_h;h_h_strong;;;;;0;0;0;0;0;5;5;5;;;;;;;;;100.36824450013228;None;102.1742579001002;102.46851330017671;102.46851330017671;102.48494480014779;102.48494480014779;102.52583380020224;102.52583380020224;None;None;0;102.52583380020224;None;104.02597270021215;None;None;104.02597270021215;None;;;;;;;Emoconpilot031;2021_Nov_10_1210;BackwardMask;2020.2.8;120.08175149607206;
;f;040_y_f_s_a.jpg;sad;7;40;f;040_y_f_h_a.jpg;happy;incongruent;9;match;;130;150;;1;238;block1_Pilot_2;40;s_h;s_h_weak;;;;;0;0;0;0;0;6;6;6;;;;;;;;;107.02649300009944;None;109.01935870014131;109.31034180009738;109.31034180009738;109.31857940019108;109.31857940019108;109.35932180006057;109.35932180006057;None;None;0;109.35932180006057;None;110.8598446000833;None;None;110.8598446000833;None;;;;;;;Emoconpilot031;2021_Nov_10_1210;BackwardMask;2020.2.8;120.08175149607206;
;m;033_o_m_n_a.jpg;neutral;8;27;m;027_o_m_n_a.jpg;neutral;congruent;8;match;;140;170;;18;238;block1_Pilot_2;33;n_n;n_n_weak;;;;;0;0;0;0;0;7;7;7;;;;;;;;;113.85942760016769;None;115.8679849000182;116.16090510017239;116.16090510017239;116.31033960008062;116.31033960008062;116.35107780015096;116.35107780015096;None;None;0;116.35107780015096;None;117.85136650013737;None;None;117.85136650013737;None;;;;;;;Emoconpilot031;2021_Nov_10_1210;BackwardMask;2020.2.8;120.08175149607206;
;f;040_y_f_h_a.jpg;happy;9;19;f;019_m_f_n_a.jpg;neutral;incongruent;8;match;;120;170;;1;238;block1_Pilot_2;40;h_n;h_n_strong;;;;;0;0;0;0;0;8;8;8;;;;;;;;;120.85191950015724;None;122.84691540012136;123.13554690009914;123.13554690009914;123.1436107000336;123.1436107000336;123.18465080019087;123.18465080019087;None;None;0;123.18465080019087;None;124.68482170021161;None;None;124.68482170021161;None;;;;;;;Emoconpilot031;2021_Nov_10_1210;BackwardMask;2020.2.8;120.08175149607206;
;m;013_y_m_h_a.jpg;happy;9;12;f;012_o_f_s_a.jpg;sad;incongruent;7;mismatch;;120;160;;3;198;block1_Pilot_2;13;h_s;h_s_weak;;;;;0;0;0;0;0;9;9;9;;;;;;;;;127.68484480003826;None;129.3599450001493;129.65279480000027;129.65279480000027;129.677271499997;129.677271499997;129.71807420020923;129.71807420020923;None;None;0;129.71807420020923;None;131.21802890021354;None;None;131.21802890021354;None;;;;;;;Emoconpilot031;2021_Nov_10_1210;BackwardMask;2020.2.8;120.08175149607206;
;m;008_y_m_h_a.jpg;happy;9;4;m;004_o_m_n_a.jpg;neutral;incongruent;8;match;;120;170;;18;150;block1_Pilot_2;8;h_n;h_n_strong;;;;;0;0;0;0;0;10;10;10;;;;;;;;;134.2181583000347;None;135.47803730005398;135.76923279999755;135.76923279999755;135.9190585000906;135.9190585000906;135.95992600009777;135.95992600009777;None;None;0;135.95992600009777;None;137.45984280016273;None;None;137.45984280016273;None;;;;;;;Emoconpilot031;2021_Nov_10_1210;BackwardMask;2020.2.8;120.08175149607206;
;f;019_m_f_h_a.jpg;happy;9;27;m;027_o_m_s_a.jpg;sad;incongruent;7;mismatch;;120;160;;1;238;block1_Pilot_2;19;h_s;h_s_weak;;;;;0;0;0;0;0;11;11;11;;;;;;;;;140.46024350007065;None;142.45317770005204;142.74441080004908;142.74441080004908;142.7524970001541;142.7524970001541;142.79314490011893;142.79314490011893;None;None;0;142.79314490011893;None;144.2933460001368;None;None;144.2933460001368;None;;;;;;;Emoconpilot031;2021_Nov_10_1210;BackwardMask;2020.2.8;120.08175149607206;
;m;016_y_m_s_a.jpg;sad;7;4;m;004_o_m_s_a.jpg;sad;congruent;7;match;;130;160;;18;142;block1_Pilot_2;16;s_s;s_s_strong;;;;;0;0;0;0;0;12;12;12;;;;;;;;;147.29362900019623;None;148.48778730002232;148.77765200007707;148.77765200007707;148.9276511000935;148.9276511000935;148.96849090000615;148.96849090000615;None;None;0;148.96849090000615;None;150.468672899995;None;None;150.468672899995;None;;;;;;;Emoconpilot031;2021_Nov_10_1210;BackwardMask;2020.2.8;120.08175149607206;
;f;021_o_f_n_a.jpg;neutral;8;21;f;021_o_f_h_a.jpg;happy;incongruent;9;match;;140;150;;3;171;block1_Pilot_2;21;n_h;n_h_weak;;;;;0;0;0;0;0;13;13;13;;;;;;;;;153.46845020004548;None;154.9177631000057;155.21173150022514;155.21173150022514;155.2360780001618;155.2360780001618;155.27703800005838;155.27703800005838;None;None;0;155.27703800005838;None;156.77709180000238;None;None;156.77709180000238;None;;;;;;;Emoconpilot031;2021_Nov_10_1210;BackwardMask;2020.2.8;120.08175149607206;
;f;012_o_f_h_a.jpg;happy;9;13;m;013_y_m_h_a.jpg;happy;congruent;9;mismatch;;120;150;;3;213;block1_Pilot_2;12;h_h;h_h_weak;;;;;0;0;0;0;0;14;14;14;;;;;;;;;159.77717890008353;None;161.56034910003655;161.85314080002718;161.85314080002718;161.877670600079;161.877670600079;161.91874220012687;161.91874220012687;None;None;0;161.91874220012687;None;163.41927980002947;None;None;163.41927980002947;None;;;;;;;Emoconpilot031;2021_Nov_10_1210;BackwardMask;2020.2.8;120.08175149607206;
;f;021_o_f_s_a.jpg;sad;7;27;m;027_o_m_n_a.jpg;neutral;incongruent;8;mismatch;;130;170;;3;174;block1_Pilot_2;21;s_n;s_n_weak;;;;;0;0;0;0;0;15;15;15;;;;;;;;;166.41880149999633;None;167.8779213000089;168.16976990015246;168.16976990015246;168.19456050009467;168.19456050009467;168.23554210015573;168.23554210015573;None;None;0;168.23554210015573;None;169.7355719001498;None;None;169.7355719001498;None;;;;;;;Emoconpilot031;2021_Nov_10_1210;BackwardMask;2020.2.8;120.08175149607206;
;f;019_m_f_n_a.jpg;neutral;8;19;f;019_m_f_h_a.jpg;happy;incongruent;9;match;;140;150;;3;238;block1_Pilot_2;19;n_h;n_h_weak;;;;;0;0;0;0;0;16;16;16;;;;;;;;;172.73583700018935;None;174.74350229999982;175.03711710008793;175.03711710008793;175.06147120008245;175.06147120008245;175.10235080006532;175.10235080006532;None;None;0;175.10235080006532;None;176.60257910005748;None;None;176.60257910005748;None;;;;;;;Emoconpilot031;2021_Nov_10_1210;BackwardMask;2020.2.8;120.08175149607206;
;f;028_y_f_n_a.jpg;neutral;8;30;f;030_o_f_s_a.jpg;sad;incongruent;7;match;;140;160;;18;219;block1_Pilot_2;28;n_s;n_s_weak;;;;;0;0;0;0;0;17;17;17;;;;;;;;;179.60309220012277;None;181.44829660002142;181.7373460000381;181.7373460000381;181.88666630000807;181.88666630000807;181.9274625000544;181.9274625000544;None;None;0;181.9274625000544;None;183.42749570007436;None;None;183.42749570007436;None;;;;;;;Emoconpilot031;2021_Nov_10_1210;BackwardMask;2020.2.8;120.08175149607206;
;m;008_y_m_h_a.jpg;happy;9;8;m;008_y_m_s_a.jpg;sad;incongruent;7;match;;120;160;;3;176;block1_Pilot_2;8;h_s;h_s_weak;;;;;0;0;0;0;0;18;18;18;;;;;;;;;186.42767840018496;None;187.90169140021317;188.19525670004077;188.19525670004077;188.22009220020846;188.22009220020846;188.26088400022127;188.26088400022127;None;None;0;188.26088400022127;None;189.76086230017245;None;None;189.76086230017245;None;;;;;;;Emoconpilot031;2021_Nov_10_1210;BackwardMask;2020.2.8;120.08175149607206;
;f;019_m_f_h_a.jpg;happy;9;33;m;033_o_m_n_a.jpg;neutral;incongruent;8;mismatch;;120;170;;18;136;block1_Pilot_2;19;h_n;h_n_weak;;;;;0;0;0;0;0;19;19;19;;;;;;;;;192.76106540020555;None;193.90274600009434;194.19536680006422;194.19536680006422;194.34523440012708;194.34523440012708;194.38614970003255;194.38614970003255;None;None;0;194.38614970003255;None;195.88603610009886;None;None;195.88603610009886;None;;;;;;;Emoconpilot031;2021_Nov_10_1210;BackwardMask;2020.2.8;120.08175149607206;
;m;013_y_m_n_a.jpg;neutral;8;12;f;012_o_f_s_a.jpg;sad;incongruent;7;mismatch;;140;160;;2;132;block1_Pilot_2;13;n_s;n_s_strong;;;;;0;0;0;0;0;20;20;20;;;;;;;;;198.88642640016042;None;200.01096790004522;200.3041670001112;200.3041670001112;200.32041020016186;200.32041020016186;200.36113820015453;200.36113820015453;None;None;0;200.36113820015453;None;201.86130400002003;None;None;201.86130400002003;None;;;;;;;Emoconpilot031;2021_Nov_10_1210;BackwardMask;2020.2.8;120.08175149607206;
;f;040_y_f_s_a.jpg;sad;7;8;m;008_y_m_h_a.jpg;happy;incongruent;9;mismatch;;130;150;;2;175;block1_Pilot_2;40;s_h;s_h_weak;;;;;0;0;0;0;0;21;21;21;;;;;;;;;204.86134700011462;None;206.3277709002141;206.62066730018705;206.62066730018705;206.63721070019528;206.63721070019528;206.67802480002865;206.67802480002865;None;None;0;206.67802480002865;None;208.17824190016836;None;None;208.17824190016836;None;;;;;;;Emoconpilot031;2021_Nov_10_1210;BackwardMask;2020.2.8;120.08175149607206;
;m;004_o_m_h_a.jpg;happy;9;40;f;040_y_f_s_a.jpg;sad;incongruent;7;mismatch;;120;160;;2;193;block1_Pilot_2;4;h_s;h_s_weak;;;;;0;0;0;0;0;22;22;22;;;;;;;;;211.1788800000213;None;212.80837060022168;213.1045537001919;213.1045537001919;213.12057890021242;213.12057890021242;213.1615081001073;213.1615081001073;None;None;0;213.1615081001073;None;214.66160860005766;None;None;214.66160860005766;None;;;;;;;Emoconpilot031;2021_Nov_10_1210;BackwardMask;2020.2.8;120.08175149607206;
;f;028_y_f_s_a.jpg;sad;7;13;m;013_y_m_n_a.jpg;neutral;incongruent;8;mismatch;;130;170;;2;126;block1_Pilot_2;28;s_n;s_n_weak;;;;;0;0;0;0;0;23;23;23;;;;;;;;;217.66160660004243;None;218.7263040000107;219.02095980010927;219.02095980010927;219.037321300013;219.037321300013;219.0780490001198;219.0780490001198;None;None;0;219.0780490001198;None;220.57829740014859;None;None;220.57829740014859;None;;;;;;;Emoconpilot031;2021_Nov_10_1210;BackwardMask;2020.2.8;120.08175149607206;
;m;004_o_m_h_a.jpg;happy;9;40;f;040_y_f_n_a.jpg;neutral;incongruent;8;mismatch;;120;170;;3;146;block1_Pilot_2;4;h_n;h_n_strong;;;;;0;0;0;0;0;24;24;24;;;;;;;;;223.5787196001038;None;224.81566530000418;225.10470880009234;225.10470880009234;225.12919520004652;225.12919520004652;225.17006080015562;225.17006080015562;None;None;0;225.17006080015562;None;226.66993309999816;None;None;226.66993309999816;None;;;;;;;Emoconpilot031;2021_Nov_10_1210;BackwardMask;2020.2.8;120.08175149607206;
;m;008_y_m_s_a.jpg;sad;7;30;f;030_o_f_n_a.jpg;neutral;incongruent;8;mismatch;;130;170;;3;132;block1_Pilot_2;8;s_n;s_n_strong;;;;;0;0;0;0;0;25;25;25;;;;;;;;;229.6702782001812;None;230.79339610016905;231.0882428002078;231.0882428002078;231.11266540014185;231.11266540014185;231.15369440009817;231.15369440009817;None;None;0;231.15369440009817;None;232.65337810013443;None;None;232.65337810013443;None;;;;;;;Emoconpilot031;2021_Nov_10_1210;BackwardMask;2020.2.8;120.08175149607206;
;f;040_y_f_n_a.jpg;neutral;8;40;f;040_y_f_s_a.jpg;sad;incongruent;7;match;;140;160;;2;123;block1_Pilot_2;40;n_s;n_s_weak;;;;;0;0;0;0;0;26;26;26;;;;;;;;;235.65354930004105;None;236.69748000008985;236.9882189000491;236.9882189000491;237.00446140021086;237.00446140021086;237.0454614001792;237.0454614001792;None;None;0;237.0454614001792;None;238.54532100004144;None;None;238.54532100004144;None;;;;;;;Emoconpilot031;2021_Nov_10_1210;BackwardMask;2020.2.8;120.08175149607206;
;f;028_y_f_s_a.jpg;sad;7;27;m;027_o_m_s_a.jpg;sad;congruent;7;mismatch;;130;160;;3;159;block1_Pilot_2;28;s_s;s_s_weak;;;;;0;0;0;0;0;27;27;27;;;;;;;;;241.54611550015397;None;242.88367550005205;243.1795776002109;243.1795776002109;243.20453360001557;243.20453360001557;243.24494060012512;243.24494060012512;None;None;0;243.24494060012512;None;244.74544910015538;None;None;244.74544910015538;None;;;;;;;Emoconpilot031;2021_Nov_10_1210;BackwardMask;2020.2.8;120.08175149607206;
;f;012_o_f_s_a.jpg;sad;7;27;m;027_o_m_s_a.jpg;sad;congruent;7;mismatch;;130;160;;18;166;block1_Pilot_2;12;s_s;s_s_weak;;;;;0;0;0;0;0;28;28;28;;;;;;;;;247.74555230000988;None;249.1357830001507;249.4295442001894;249.4295442001894;249.57954660011455;249.57954660011455;249.62029800005257;249.62029800005257;None;None;0;249.62029800005257;None;251.12059530010447;None;None;251.12059530010447;None;;;;;;;Emoconpilot031;2021_Nov_10_1210;BackwardMask;2020.2.8;120.08175149607206;
;f;028_y_f_n_a.jpg;neutral;8;28;f;028_y_f_h_a.jpg;happy;incongruent;9;match;;140;150;;2;186;block1_Pilot_2;28;n_h;n_h_weak;;;;;0;0;0;0;0;29;29;29;;;;;;;;;254.12036150018685;None;255.74554550019093;256.0381730000954;256.0381730000954;256.0543760000728;256.0543760000728;256.0950933001004;256.0950933001004;None;None;0;256.0950933001004;None;257.59522720007226;None;None;257.59522720007226;None;;;;;;;Emoconpilot031;2021_Nov_10_1210;BackwardMask;2020.2.8;120.08175149607206;
;m;027_o_m_n_a.jpg;neutral;8;16;m;016_y_m_n_a.jpg;neutral;congruent;8;match;;140;170;;2;188;block1_Pilot_2;27;n_n;n_n_weak;;;;;0;0;0;0;0;30;30;30;;;;;;;;;260.59579590009525;None;262.1814785001334;262.4719877000898;262.4719877000898;262.4879732001573;262.4879732001573;262.52906990004703;262.52906990004703;None;None;0;262.52906990004703;None;264.02886240021326;None;None;264.02886240021326;None;;;;;;;Emoconpilot031;2021_Nov_10_1210;BackwardMask;2020.2.8;120.08175149607206;
;f;012_o_f_s_a.jpg;sad;7;13;m;013_y_m_n_a.jpg;neutral;incongruent;8;mismatch;;130;170;;3;162;block1_Pilot_2;12;s_n;s_n_strong;;;;;0;0;0;0;0;31;31;31;;;;;;;;;267.0290035000071;None;268.38354180008173;268.6797098000534;268.6797098000534;268.704662400065;268.704662400065;268.7456164001487;268.7456164001487;None;None;0;268.7456164001487;None;270.24547660001554;None;None;270.24547660001554;None;;;;;;;Emoconpilot031;2021_Nov_10_1210;BackwardMask;2020.2.8;120.08175149607206;
;f;012_o_f_s_a.jpg;sad;7;16;m;016_y_m_h_a.jpg;happy;incongruent;9;mismatch;;130;150;;1;238;block1_Pilot_2;12;s_h;s_h_strong;;;;;0;0;0;0;0;32;32;32;;;;;;;;;273.2458379000891;None;275.2317404001951;275.5305122002028;275.5305122002028;275.5382569001522;275.5382569001522;275.57904310012236;275.57904310012236;None;None;0;275.57904310012236;None;277.07911970000714;None;None;277.07911970000714;None;;;;;;;Emoconpilot031;2021_Nov_10_1210;BackwardMask;2020.2.8;120.08175149607206;
;f;028_y_f_n_a.jpg;neutral;8;21;f;021_o_f_n_a.jpg;neutral;congruent;8;match;;140;170;;3;220;block1_Pilot_2;28;n_n;n_n_weak;;;;;0;0;0;0;0;33;33;33;;;;;;;;;280.0796531001106;None;282.03255150001496;282.3224142000545;282.3224142000545;282.3470840000082;282.3470840000082;282.3878282001242;282.3878282001242;None;None;0;282.3878282001242;None;283.88754530018196;None;None;283.88754530018196;None;;;;;;;Emoconpilot031;2021_Nov_10_1210;BackwardMask;2020.2.8;120.08175149607206;
;f;040_y_f_h_a.jpg;happy;9;33;m;033_o_m_s_a.jpg;sad;incongruent;7;mismatch;;120;160;;2;194;block1_Pilot_2;40;h_s;h_s_weak;;;;;0;0;0;0;0;34;34;34;;;;;;;;;286.88776000007056;None;288.51234140014276;288.80534640001133;288.80534640001133;288.8220615000464;288.8220615000464;288.8625957001932;288.8625957001932;None;None;0;288.8625957001932;None;290.3627825002186;None;None;290.3627825002186;None;;;;;;;Emoconpilot031;2021_Nov_10_1210;BackwardMask;2020.2.8;120.08175149607206;
;f;028_y_f_h_a.jpg;happy;9;8;m;008_y_m_n_a.jpg;neutral;incongruent;8;mismatch;;120;170;;3;162;block1_Pilot_2;28;h_n;h_n_weak;;;;;0;0;0;0;0;35;35;35;;;;;;;;;293.36288900021464;None;294.7253659002017;295.01387930009514;295.01387930009514;295.0386489001103;295.0386489001103;295.0794579000212;295.0794579000212;None;None;0;295.0794579000212;None;296.5794875000138;None;None;296.5794875000138;None;;;;;;;Emoconpilot031;2021_Nov_10_1210;BackwardMask;2020.2.8;120.08175149607206;
;m;013_y_m_n_a.jpg;neutral;8;27;m;027_o_m_n_a.jpg;neutral;congruent;8;match;;140;170;;2;126;block1_Pilot_2;13;n_n;n_n_strong;;;;;0;0;0;0;0;36;36;36;;;;;;;;;299.57984800008126;None;300.70241940021515;300.9976827001665;300.9976827001665;301.01375770010054;301.01375770010054;301.0546527002007;301.0546527002007;None;None;0;301.0546527002007;None;302.5568649000488;None;None;302.5568649000488;None;;;;;;;Emoconpilot031;2021_Nov_10_1210;BackwardMask;2020.2.8;120.08175149607206;
;f;028_y_f_s_a.jpg;sad;7;19;f;019_m_f_n_a.jpg;neutral;incongruent;8;match;;130;170;;2;156;block1_Pilot_2;28;s_n;s_n_strong;;;;;0;0;0;0;0;37;37;37;;;;;;;;;305.554719600128;None;306.8677335001994;307.15608610003255;307.15608610003255;307.1725255001802;307.1725255001802;307.2130650000181;307.2130650000181;None;None;0;307.2130650000181;None;308.7131294000428;None;None;308.7131294000428;None;;;;;;;Emoconpilot031;2021_Nov_10_1210;BackwardMask;2020.2.8;120.08175149607206;
;m;016_y_m_s_a.jpg;sad;7;19;f;019_m_f_n_a.jpg;neutral;incongruent;8;mismatch;;130;170;;3;138;block1_Pilot_2;16;s_n;s_n_weak;;;;;0;0;0;0;0;38;38;38;;;;;;;;;311.7132752002217;None;312.8706677001901;313.1640700001735;313.1640700001735;313.189103100216;313.189103100216;313.2298432001844;313.2298432001844;None;None;0;313.2298432001844;None;314.73000090010464;None;None;314.73000090010464;None;;;;;;;Emoconpilot031;2021_Nov_10_1210;BackwardMask;2020.2.8;120.08175149607206;
;m;033_o_m_s_a.jpg;sad;7;27;m;027_o_m_n_a.jpg;neutral;incongruent;8;match;;130;170;;3;120;block1_Pilot_2;33;s_n;s_n_strong;;;;;0;0;0;0;0;39;39;39;;;;;;;;;317.73009270010516;None;318.738772300072;319.03114800015464;319.03114800015464;319.05576550005935;319.05576550005935;319.0965277000796;319.0965277000796;None;None;0;319.0965277000796;None;320.59679640014656;None;None;320.59679640014656;None;;;;;;;Emoconpilot031;2021_Nov_10_1210;BackwardMask;2020.2.8;120.08175149607206;
;f;040_y_f_s_a.jpg;sad;7;33;m;033_o_m_n_a.jpg;neutral;incongruent;8;mismatch;;130;170;;1;238;block1_Pilot_2;40;s_n;s_n_weak;;;;;0;0;0;0;0;40;40;40;;;;;;;;;323.59718690020964;None;325.5884919001255;325.88124560005963;325.88124560005963;325.8895788001828;325.8895788001828;325.93039120011963;325.93039120011963;None;None;0;325.93039120011963;None;327.4305744001176;None;None;327.4305744001176;None;;;;;;;Emoconpilot031;2021_Nov_10_1210;BackwardMask;2020.2.8;120.08175149607206;
;f;021_o_f_n_a.jpg;neutral;8;19;f;019_m_f_s_a.jpg;sad;incongruent;7;match;;140;160;;1;238;block1_Pilot_2;21;n_s;n_s_strong;;;;;0;0;0;0;0;41;41;41;;;;;;;;;330.43073990009725;None;332.49396360013634;332.7904431000352;332.7904431000352;332.79791600001045;332.79791600001045;332.8389408001676;332.8389408001676;None;None;0;332.8389408001676;None;334.33897100016475;None;None;334.33897100016475;None;;;;;;;Emoconpilot031;2021_Nov_10_1210;BackwardMask;2020.2.8;120.08175149607206;
;m;033_o_m_h_a.jpg;happy;9;27;m;027_o_m_h_a.jpg;happy;congruent;9;match;;120;150;;3;134;block1_Pilot_2;33;h_h;h_h_weak;;;;;0;0;0;0;0;42;42;42;;;;;;;;;337.3390927000437;None;338.46374820009805;338.7567872002255;338.7567872002255;338.78157900017686;338.78157900017686;338.82238820008934;338.82238820008934;None;None;0;338.82238820008934;None;340.3238062001765;None;None;340.3238062001765;None;;;;;;;Emoconpilot031;2021_Nov_10_1210;BackwardMask;2020.2.8;120.08175149607206;
;f;040_y_f_s_a.jpg;sad;7;4;m;004_o_m_h_a.jpg;happy;incongruent;9;mismatch;;130;150;;2;225;block1_Pilot_2;40;s_h;s_h_strong;;;;;0;0;0;0;0;43;43;43;;;;;;;;;343.32269860012457;None;345.2057887001429;345.4986208002083;345.4986208002083;345.51499540009536;345.51499540009536;345.5557586001232;345.5557586001232;None;None;0;345.5557586001232;None;347.0560880000703;None;None;347.0560880000703;None;;;;;;;Emoconpilot031;2021_Nov_10_1210;BackwardMask;2020.2.8;120.08175149607206;
;m;027_o_m_s_a.jpg;sad;7;21;f;021_o_f_n_a.jpg;neutral;incongruent;8;mismatch;;130;170;;18;238;block1_Pilot_2;27;s_n;s_n_weak;;;;;0;0;0;0;0;44;44;44;;;;;;;;;350.05582550005056;None;352.0522222002037;352.3405323000625;352.3405323000625;352.4901841999963;352.4901841999963;352.53106990014203;352.53106990014203;None;None;0;352.53106990014203;None;354.03118780022487;None;None;354.03118780022487;None;;;;;;;Emoconpilot031;2021_Nov_10_1210;BackwardMask;2020.2.8;120.08175149607206;
;m;016_y_m_h_a.jpg;happy;9;16;m;016_y_m_n_a.jpg;neutral;incongruent;8;match;;120;170;;3;202;block1_Pilot_2;16;h_n;h_n_weak;;;;;0;0;0;0;0;45;45;45;;;;;;;;;357.0318097001873;None;358.72740319999866;359.02398180007003;359.02398180007003;359.0487037000712;359.0487037000712;359.08934659999795;359.08934659999795;None;None;0;359.08934659999795;None;360.58938020002097;None;None;360.58938020002097;None;;;;;;;Emoconpilot031;2021_Nov_10_1210;BackwardMask;2020.2.8;120.08175149607206;
;m;033_o_m_h_a.jpg;happy;9;13;m;013_y_m_n_a.jpg;neutral;incongruent;8;match;;120;170;;2;150;block1_Pilot_2;33;h_n;h_n_weak;;;;;0;0;0;0;0;46;46;46;;;;;;;;;363.590835200157;None;364.8484829000663;365.14080130006187;365.14080130006187;365.1567913000472;365.1567913000472;365.19805210013874;365.19805210013874;None;None;0;365.19805210013874;None;366.6978504001163;None;None;366.6978504001163;None;;;;;;;Emoconpilot031;2021_Nov_10_1210;BackwardMask;2020.2.8;120.08175149607206;
;f;012_o_f_n_a.jpg;neutral;8;16;m;016_y_m_n_a.jpg;neutral;congruent;8;mismatch;;140;170;;1;238;block1_Pilot_2;12;n_n;n_n_strong;;;;;0;0;0;0;0;47;47;47;;;;;;;;;369.6978436000645;None;371.73039880022407;372.0245391000062;372.0245391000062;372.03234180016443;372.03234180016443;372.0726722001564;372.0726722001564;None;None;0;372.0726722001564;None;373.57277830014937;None;None;373.57277830014937;None;;;;;;;Emoconpilot031;2021_Nov_10_1210;BackwardMask;2020.2.8;120.08175149607206;
;f;040_y_f_n_a.jpg;neutral;8;30;f;030_o_f_h_a.jpg;happy;incongruent;9;match;;140;150;;2;194;block1_Pilot_2;40;n_h;n_h_strong;;;;;0;0;0;0;0;48;48;48;;;;;;;;;376.57294700015336;None;378.21028720005415;378.4991910001263;378.4991910001263;378.5154026001692;378.5154026001692;378.55600720015354;378.55600720015354;None;None;0;378.55600720015354;None;380.0563488001935;None;None;380.0563488001935;None;;;;;;;Emoconpilot031;2021_Nov_10_1210;BackwardMask;2020.2.8;120.08175149607206;
;m;013_y_m_n_a.jpg;neutral;8;12;f;012_o_f_s_a.jpg;sad;incongruent;7;mismatch;;140;160;;18;238;block1_Pilot_2;13;n_s;n_s_weak;;;;;0;0;0;0;0;49;49;49;;;;;;;;;383.05735330004245;None;385.0600484001916;385.34963800013065;385.34963800013065;385.49887290014885;385.49887290014885;385.5398789001629;385.5398789001629;None;None;0;385.5398789001629;None;387.0405455001164;None;None;387.0405455001164;None;;;;;;;Emoconpilot031;2021_Nov_10_1210;BackwardMask;2020.2.8;120.08175149607206;
;f;012_o_f_h_a.jpg;happy;9;12;f;012_o_f_n_a.jpg;neutral;incongruent;8;match;;120;170;;2;125;block1_Pilot_2;12;h_n;h_n_strong;;;;;0;0;0;0;0;50;50;50;;;;;;;;;390.0404307001736;None;391.09007760020904;391.38283030013554;391.38283030013554;391.39920820016414;391.39920820016414;391.43994330009446;391.43994330009446;None;None;0;391.43994330009446;None;392.9403667000588;None;None;392.9403667000588;None;;;;;;;Emoconpilot031;2021_Nov_10_1210;BackwardMask;2020.2.8;120.08175149607206;
;m;008_y_m_s_a.jpg;sad;7;19;f;019_m_f_s_a.jpg;sad;congruent;7;mismatch;;130;160;;2;202;block1_Pilot_2;8;s_s;s_s_strong;;;;;0;0;0;0;0;51;51;51;;;;;;;;;395.9398177000694;None;397.65785529999994;397.950197200058;397.950197200058;397.9659315000754;397.9659315000754;398.0066281000618;398.0066281000618;None;None;0;398.0066281000618;None;399.5070086000487;None;None;399.5070086000487;None;;;;;;;Emoconpilot031;2021_Nov_10_1210;BackwardMask;2020.2.8;120.08175149607206;
;f;028_y_f_n_a.jpg;neutral;8;12;f;012_o_f_n_a.jpg;neutral;congruent;8;match;;140;170;;2;214;block1_Pilot_2;28;n_n;n_n_strong;;;;;0;0;0;0;0;52;52;52;;;;;;;;;402.50719920010306;None;404.30930360010825;404.59993630019017;404.59993630019017;404.6162189000752;404.6162189000752;404.6571776000783;404.6571776000783;None;None;0;404.6571776000783;None;406.15755750006065;None;None;406.15755750006065;None;;;;;;;Emoconpilot031;2021_Nov_10_1210;BackwardMask;2020.2.8;120.08175149607206;
;m;027_o_m_h_a.jpg;happy;9;19;f;019_m_f_h_a.jpg;happy;congruent;9;mismatch;;120;150;;3;165;block1_Pilot_2;27;h_h;h_h_strong;;;;;0;0;0;0;0;53;53;53;;;;;;;;;409.1572666000575;None;410.5548599001486;410.8504086001776;410.8504086001776;410.8747897001449;410.8747897001449;410.91558190016076;410.91558190016076;None;None;0;410.91558190016076;None;412.41559610003605;None;None;412.41559610003605;None;;;;;;;Emoconpilot031;2021_Nov_10_1210;BackwardMask;2020.2.8;120.08175149607206;
;m;008_y_m_s_a.jpg;sad;7;13;m;013_y_m_h_a.jpg;happy;incongruent;9;match;;130;150;;18;200;block1_Pilot_2;8;s_h;s_h_strong;;;;;0;0;0;0;0;54;54;54;;;;;;;;;415.4156990000047;None;417.1013253000565;417.3921616000589;417.3921616000589;417.5414899000898;417.5414899000898;417.5823837001808;417.5823837001808;None;None;0;417.5823837001808;None;419.08227080013603;None;None;419.08227080013603;None;;;;;;;Emoconpilot031;2021_Nov_10_1210;BackwardMask;2020.2.8;120.08175149607206;
;f;030_o_f_n_a.jpg;neutral;8;28;f;028_y_f_s_a.jpg;sad;incongruent;7;match;;140;160;;18;238;block1_Pilot_2;30;n_s;n_s_weak;;;;;0;0;0;0;0;55;55;55;;;;;;;;;422.0826175000984;None;424.0888078000862;424.38396690017544;424.38396690017544;424.5334133000579;424.5334133000579;424.5741608000826;424.5741608000826;None;None;0;424.5741608000826;None;426.07415610016324;None;None;426.07415610016324;None;;;;;;;Emoconpilot031;2021_Nov_10_1210;BackwardMask;2020.2.8;120.08175149607206;
;f;019_m_f_h_a.jpg;happy;9;27;m;027_o_m_h_a.jpg;happy;congruent;9;mismatch;;120;150;;1;238;block1_Pilot_2;19;h_h;h_h_strong;;;;;0;0;0;0;0;56;56;56;;;;;;;;;429.07432660018094;None;431.06587240006775;431.35890400013886;431.35890400013886;431.3666475000791;431.3666475000791;431.40771360020153;431.40771360020153;None;None;0;431.40771360020153;None;432.9077445000876;None;None;432.9077445000876;None;;;;;;;Emoconpilot031;2021_Nov_10_1210;BackwardMask;2020.2.8;120.08175149607206;
;m;004_o_m_s_a.jpg;sad;7;4;m;004_o_m_h_a.jpg;happy;incongruent;9;match;;130;150;;18;155;block1_Pilot_2;4;s_h;s_h_weak;;;;;0;0;0;0;0;57;57;57;;;;;;;;;435.90793030010536;None;437.2117171001155;437.50031480006874;437.50031480006874;437.65018790005706;437.65018790005706;437.69097360013984;437.69097360013984;None;None;0;437.69097360013984;None;439.1911657000892;None;None;439.1911657000892;None;;;;;;;Emoconpilot031;2021_Nov_10_1210;BackwardMask;2020.2.8;120.08175149607206;
;f;021_o_f_s_a.jpg;sad;7;27;m;027_o_m_n_a.jpg;neutral;incongruent;8;mismatch;;130;170;;3;224;block1_Pilot_2;21;s_n;s_n_weak;;;;;0;0;0;0;0;58;58;58;;;;;;;;;442.19131560018286;None;444.0643469002098;444.3593103000894;444.3593103000894;444.3834846999962;444.3834846999962;444.42435139999725;444.42435139999725;None;None;0;444.42435139999725;None;445.9245247000363;None;None;445.9245247000363;None;;;;;;;Emoconpilot031;2021_Nov_10_1210;BackwardMask;2020.2.8;120.08175149607206;
;f;021_o_f_h_a.jpg;happy;9;27;m;027_o_m_n_a.jpg;neutral;incongruent;8;mismatch;;120;170;;2;147;block1_Pilot_2;21;h_n;h_n_strong;;;;;0;0;0;0;0;59;59;59;;;;;;;;;448.92476540012285;None;450.2147214000579;450.50961550022475;450.50961550022475;450.5254378002137;450.5254378002137;450.5662684000563;450.5662684000563;None;None;0;450.5662684000563;None;452.0666234001983;None;None;452.0666234001983;None;;;;;;;Emoconpilot031;2021_Nov_10_1210;BackwardMask;2020.2.8;120.08175149607206;
;f;040_y_f_n_a.jpg;neutral;8;13;m;013_y_m_h_a.jpg;happy;incongruent;9;mismatch;;140;150;;3;237;block1_Pilot_2;40;n_h;n_h_strong;;;;;0;0;0;0;0;60;60;60;;;;;;;;;455.0667690001428;None;457.0605263002217;457.3512723001186;457.3512723001186;457.37566610006616;457.37566610006616;457.41647430020384;457.41647430020384;None;None;0;457.41647430020384;None;458.91644760011695;None;None;458.91644760011695;None;;;;;;;Emoconpilot031;2021_Nov_10_1210;BackwardMask;2020.2.8;120.08175149607206;
;m;027_o_m_n_a.jpg;neutral;8;19;f;019_m_f_h_a.jpg;happy;incongruent;9;mismatch;;140;150;;3;199;block1_Pilot_2;27;n_h;n_h_strong;;;;;0;0;0;0;0;61;61;61;;;;;;;;;461.91685540019535;None;463.59405720001087;463.88477330002934;463.88477330002934;463.90924340020865;463.90924340020865;463.9499222000595;463.9499222000595;None;None;0;463.9499222000595;None;465.45022480003536;None;None;465.45022480003536;None;;;;;;;Emoconpilot031;2021_Nov_10_1210;BackwardMask;2020.2.8;120.08175149607206;
;m;027_o_m_h_a.jpg;happy;9;21;f;021_o_f_s_a.jpg;sad;incongruent;7;mismatch;;120;160;;2;169;block1_Pilot_2;27;h_s;h_s_strong;;;;;0;0;0;0;0;62;62;62;;;;;;;;;468.45010350015946;None;469.8773045002017;470.1682353001088;470.1682353001088;470.18431190005504;470.18431190005504;470.2252462001052;470.2252462001052;None;None;0;470.2252462001052;None;471.7253421000205;None;None;471.7253421000205;None;;;;;;;Emoconpilot031;2021_Nov_10_1210;BackwardMask;2020.2.8;120.08175149607206;
;m;013_y_m_n_a.jpg;neutral;8;33;m;033_o_m_h_a.jpg;happy;incongruent;9;match;;140;150;;18;238;block1_Pilot_2;13;n_h;n_h_strong;;;;;0;0;0;0;0;63;63;63;;;;;;;;;474.72533350018784;None;476.72714740014635;477.0184328001924;477.0184328001924;477.16772360005416;477.16772360005416;477.2086069001816;477.2086069001816;None;None;0;477.2086069001816;None;478.708568100119;None;None;478.708568100119;None;;;;;;;Emoconpilot031;2021_Nov_10_1210;BackwardMask;2020.2.8;120.08175149607206;
;m;033_o_m_n_a.jpg;neutral;8;30;f;030_o_f_s_a.jpg;sad;incongruent;7;mismatch;;140;160;;1;238;block1_Pilot_2;33;n_s;n_s_weak;;;;;0;0;0;0;0;64;64;64;;;;;;;;;481.70894780009985;None;483.71121740015224;484.0019104999956;484.0019104999956;484.0095589000266;484.0095589000266;484.05032400018536;484.05032400018536;None;None;0;484.05032400018536;None;485.5505270001013;None;None;485.5505270001013;None;;;;;;;Emoconpilot031;2021_Nov_10_1210;BackwardMask;2020.2.8;120.08175149607206;
;m;033_o_m_s_a.jpg;sad;7;4;m;004_o_m_s_a.jpg;sad;congruent;7;match;;130;160;;18;146;block1_Pilot_2;33;s_s;s_s_weak;;;;;0;0;0;0;0;65;65;65;;;;;;;;;488.55072759999894;None;489.77510000020266;490.0681967001874;490.0681967001874;490.21819879999384;490.21819879999384;490.25888790003955;490.25888790003955;None;None;0;490.25888790003955;None;491.7588346002158;None;None;491.7588346002158;None;;;;;;;Emoconpilot031;2021_Nov_10_1210;BackwardMask;2020.2.8;120.08175149607206;
;m;016_y_m_s_a.jpg;sad;7;28;f;028_y_f_h_a.jpg;happy;incongruent;9;mismatch;;130;150;;18;238;block1_Pilot_2;16;s_h;s_h_strong;;;;;0;0;0;0;0;66;66;66;;;;;;;;;494.7591308001429;None;496.7493247000966;497.0433085002005;497.0433085002005;497.19330990011804;497.19330990011804;497.2339562000707;497.2339562000707;None;None;0;497.2339562000707;None;498.73404270014726;None;None;498.73404270014726;None;;;;;;;Emoconpilot031;2021_Nov_10_1210;BackwardMask;2020.2.8;120.08175149607206;
;f;030_o_f_h_a.jpg;happy;9;28;f;028_y_f_h_a.jpg;happy;congruent;9;match;;120;150;;3;234;block1_Pilot_2;30;h_h;h_h_weak;;;;;0;0;0;0;0;67;67;67;;;;;;;;;501.73419580003247;None;503.71248690015636;504.0022874001879;504.0022874001879;504.02659160015173;504.02659160015173;504.06743480009027;504.06743480009027;None;None;0;504.06743480009027;None;505.56753660016693;None;None;505.56753660016693;None;;;;;;;Emoconpilot031;2021_Nov_10_1210;BackwardMask;2020.2.8;120.08175149607206;
;m;013_y_m_h_a.jpg;happy;9;4;m;004_o_m_h_a.jpg;happy;congruent;9;match;;120;150;;2;141;block1_Pilot_2;13;h_h;h_h_strong;;;;;0;0;0;0;0;68;68;68;;;;;;;;;508.568324000109;None;509.7625337000936;510.0522850002162;510.0522850002162;510.0683711001184;510.0683711001184;510.10932990000583;510.10932990000583;None;None;0;510.10932990000583;None;511.6092407000251;None;None;511.6092407000251;None;;;;;;;Emoconpilot031;2021_Nov_10_1210;BackwardMask;2020.2.8;120.08175149607206;
;f;028_y_f_s_a.jpg;sad;7;8;m;008_y_m_s_a.jpg;sad;congruent;7;mismatch;;130;160;;1;238;block1_Pilot_2;28;s_s;s_s_strong;;;;;0;0;0;0;0;69;69;69;;;;;;;;;514.6093524000607;None;516.603088100208;516.8937507001683;516.8937507001683;516.9018478000071;516.9018478000071;516.9428165000863;516.9428165000863;None;None;0;516.9428165000863;None;518.442774000112;None;None;518.442774000112;None;;;;;;;Emoconpilot031;2021_Nov_10_1210;BackwardMask;2020.2.8;120.08175149607206;
;f;028_y_f_s_a.jpg;sad;7;30;f;030_o_f_h_a.jpg;happy;incongruent;9;match;;130;150;;2;199;block1_Pilot_2;28;s_h;s_h_weak;;;;;0;0;0;0;0;70;70;70;;;;;;;;;521.4429035000503;None;523.1112234001048;523.4023499002215;523.4023499002215;523.4186703001615;523.4186703001615;523.4596944001969;523.4596944001969;None;None;0;523.4596944001969;None;524.9596652002074;None;None;524.9596652002074;None;;;;;;;Emoconpilot031;2021_Nov_10_1210;BackwardMask;2020.2.8;120.08175149607206;
;m;008_y_m_h_a.jpg;happy;9;21;f;021_o_f_n_a.jpg;neutral;incongruent;8;mismatch;;120;170;;2;137;block1_Pilot_2;8;h_n;h_n_weak;;;;;0;0;0;0;0;71;71;71;;;;;;;;;527.9599500000477;None;529.1093118002173;529.4023074000143;529.4023074000143;529.4186679001432;529.4186679001432;529.4595423000865;529.4595423000865;None;None;0;529.4595423000865;None;530.9596366002224;None;None;530.9596366002224;None;;;;;;;Emoconpilot031;2021_Nov_10_1210;BackwardMask;2020.2.8;120.08175149607206;
;f;012_o_f_n_a.jpg;neutral;8;8;m;008_y_m_s_a.jpg;sad;incongruent;7;mismatch;;140;160;;2;208;block1_Pilot_2;12;n_s;n_s_weak;;;;;0;0;0;0;0;72;72;72;;;;;;;;;533.9604615001008;None;535.7280038001481;536.0194509001449;536.0194509001449;536.0356058001053;536.0356058001053;536.0763751000632;536.0763751000632;None;None;0;536.0763751000632;None;537.5765368000139;None;None;537.5765368000139;None;;;;;;;Emoconpilot031;2021_Nov_10_1210;BackwardMask;2020.2.8;120.08175149607206;
;m;016_y_m_n_a.jpg;neutral;8;8;m;008_y_m_n_a.jpg;neutral;congruent;8;match;;140;170;;3;211;block1_Pilot_2;16;n_n;n_n_strong;;;;;0;0;0;0;0;73;73;73;;;;;;;;;540.5765856001526;None;542.3579817002174;542.6529500000179;542.6529500000179;542.6774386002216;542.6774386002216;542.7183412001468;542.7183412001468;None;None;0;542.7183412001468;None;544.2181953000836;None;None;544.2181953000836;None;;;;;;;Emoconpilot031;2021_Nov_10_1210;BackwardMask;2020.2.8;120.08175149607206;
;m;016_y_m_h_a.jpg;happy;9;13;m;013_y_m_s_a.jpg;sad;incongruent;7;match;;120;160;;3;138;block1_Pilot_2;16;h_s;h_s_weak;;;;;0;0;0;0;0;74;74;74;;;;;;;;;547.2183473000769;None;548.3765479000285;548.6694817000534;548.6694817000534;548.6943706001621;548.6943706001621;548.7351385001093;548.7351385001093;None;None;0;548.7351385001093;None;550.2350050001405;None;None;550.2350050001405;None;;;;;;;Emoconpilot031;2021_Nov_10_1210;BackwardMask;2020.2.8;120.08175149607206;
;m;016_y_m_n_a.jpg;neutral;8;19;f;019_m_f_s_a.jpg;sad;incongruent;7;mismatch;;140;160;;2;185;block1_Pilot_2;16;n_s;n_s_strong;;;;;0;0;0;0;0;75;75;75;;;;;;;;;553.2354031000286;None;554.8077512001619;555.1033738001715;555.1033738001715;555.1194609000813;555.1194609000813;555.1603176000062;555.1603176000062;None;None;0;555.1603176000062;None;556.660347300116;None;None;556.660347300116;None;;;;;;;Emoconpilot031;2021_Nov_10_1210;BackwardMask;2020.2.8;120.08175149607206;
;m;027_o_m_s_a.jpg;sad;7;8;m;008_y_m_s_a.jpg;sad;congruent;7;match;;130;160;;1;238;block1_Pilot_2;27;s_s;s_s_strong;;;;;0;0;0;0;0;76;76;76;;;;;;;;;559.6604988002218;None;561.6517858000007;561.9447680001613;561.9447680001613;561.9527825000696;561.9527825000696;561.993713100208;561.993713100208;None;None;0;561.993713100208;None;563.4936995001044;None;None;563.4936995001044;None;;;;;;;Emoconpilot031;2021_Nov_10_1210;BackwardMask;2020.2.8;120.08175149607206;
;f;019_m_f_n_a.jpg;neutral;8;27;m;027_o_m_n_a.jpg;neutral;congruent;8;mismatch;;140;170;;3;186;block1_Pilot_2;19;n_n;n_n_strong;;;;;0;0;0;0;0;77;77;77;;;;;;;;;566.4938709000126;None;568.084695200203;568.3786361000966;568.3786361000966;568.4030316001736;568.4030316001736;568.4437013000716;568.4437013000716;None;None;0;568.4437013000716;None;569.9437555000186;None;None;569.9437555000186;None;;;;;;;Emoconpilot031;2021_Nov_10_1210;BackwardMask;2020.2.8;120.08175149607206;
;m;004_o_m_s_a.jpg;sad;7;12;f;012_o_f_s_a.jpg;sad;congruent;7;mismatch;;130;160;;1;238;block1_Pilot_2;4;s_s;s_s_strong;;;;;0;0;0;0;0;78;78;78;;;;;;;;;572.9439565001521;None;574.935718000168;575.2284505001735;575.2284505001735;575.2364435000345;575.2364435000345;575.2771825001109;575.2771825001109;None;None;0;575.2771825001109;None;576.7775821001269;None;None;576.7775821001269;None;;;;;;;Emoconpilot031;2021_Nov_10_1210;BackwardMask;2020.2.8;120.08175149607206;
;f;019_m_f_n_a.jpg;neutral;8;13;m;013_y_m_s_a.jpg;sad;incongruent;7;mismatch;;140;160;;3;207;block1_Pilot_2;19;n_s;n_s_strong;;;;;0;0;0;0;0;79;79;79;;;;;;;;;579.7774561000988;None;581.537465600064;581.8288035001606;581.8288035001606;581.8532513000537;581.8532513000537;581.8941069000866;581.8941069000866;None;None;0;581.8941069000866;None;583.3941394002177;None;None;583.3941394002177;None;;;;;;;Emoconpilot031;2021_Nov_10_1210;BackwardMask;2020.2.8;120.08175149607206;
;m;027_o_m_h_a.jpg;happy;9;33;m;033_o_m_h_a.jpg;happy;congruent;9;match;;120;150;;1;238;block1_Pilot_2;27;h_h;h_h_strong;;;;;0;0;0;0;0;80;80;80;;;;;;;;;586.3943791000638;None;588.3973789000884;588.6873490000144;588.6873490000144;588.6949678000528;588.6949678000528;588.7359766000882;588.7359766000882;None;None;0;588.7359766000882;None;590.2367788001429;None;None;590.2367788001429;None;;;;;;;Emoconpilot031;2021_Nov_10_1210;BackwardMask;2020.2.8;120.08175149607206;
;m;027_o_m_h_a.jpg;happy;9;21;f;021_o_f_s_a.jpg;sad;incongruent;7;mismatch;;120;160;;1;238;block1_Pilot_2;27;h_s;h_s_weak;;;;;0;0;0;0;0;81;81;81;;;;;;;;;593.2360154001508;None;595.2381390000228;595.529197800206;595.529197800206;595.5368541001808;595.5368541001808;595.5777377001941;595.5777377001941;None;None;0;595.5777377001941;None;597.0784748001024;None;None;597.0784748001024;None;;;;;;;Emoconpilot031;2021_Nov_10_1210;BackwardMask;2020.2.8;120.08175149607206;
;m;033_o_m_s_a.jpg;sad;7;40;f;040_y_f_n_a.jpg;neutral;incongruent;8;mismatch;;130;170;;3;146;block1_Pilot_2;33;s_n;s_n_weak;;;;;0;0;0;0;0;82;82;82;;;;;;;;;600.0777288000099;None;601.3022626000457;601.5954297001008;601.5954297001008;601.6203650000971;601.6203650000971;601.6611989000812;601.6611989000812;None;None;0;601.6611989000812;None;603.1611163001508;None;None;603.1611163001508;None;;;;;;;Emoconpilot031;2021_Nov_10_1210;BackwardMask;2020.2.8;120.08175149607206;
;m;008_y_m_h_a.jpg;happy;9;4;m;004_o_m_s_a.jpg;sad;incongruent;7;match;;120;160;;2;225;block1_Pilot_2;8;h_s;h_s_weak;;;;;0;0;0;0;0;83;83;83;;;;;;;;;606.1612134000752;None;608.0430479000788;608.3373448001221;608.3373448001221;608.3538718000054;608.3538718000054;608.394636400044;608.394636400044;None;None;0;608.394636400044;None;609.894632200012;None;None;609.894632200012;None;;;;;;;Emoconpilot031;2021_Nov_10_1210;BackwardMask;2020.2.8;120.08175149607206;
;f;012_o_f_n_a.jpg;neutral;8;4;m;004_o_m_s_a.jpg;sad;incongruent;7;mismatch;;140;160;;3;150;block1_Pilot_2;12;n_s;n_s_strong;;;;;0;0;0;0;0;84;84;84;;;;;;;;;612.8953234001528;None;614.16686210013;614.4628161001019;614.4628161001019;614.48726850003;614.48726850003;614.5279923002236;614.5279923002236;None;None;0;614.5279923002236;None;616.0280348001979;None;None;616.0280348001979;None;;;;;;;Emoconpilot031;2021_Nov_10_1210;BackwardMask;2020.2.8;120.08175149607206;
;f;021_o_f_s_a.jpg;sad;7;40;f;040_y_f_n_a.jpg;neutral;incongruent;8;match;;130;170;;2;156;block1_Pilot_2;21;s_n;s_n_strong;;;;;0;0;0;0;0;85;85;85;;;;;;;;;619.028334800154;None;620.3339081001468;620.629183200188;620.629183200188;620.6456895000301;620.6456895000301;620.6864812001586;620.6864812001586;None;None;0;620.6864812001586;None;622.1866590001155;None;None;622.1866590001155;None;;;;;;;Emoconpilot031;2021_Nov_10_1210;BackwardMask;2020.2.8;120.08175149607206;
;m;004_o_m_n_a.jpg;neutral;8;13;m;013_y_m_n_a.jpg;neutral;congruent;8;match;;140;170;;2;225;block1_Pilot_2;4;n_n;n_n_strong;;;;;0;0;0;0;0;86;86;86;;;;;;;;;625.1885003000498;None;627.0867622001097;627.3798081001732;627.3798081001732;627.3956327000633;627.3956327000633;627.4368009001482;627.4368009001482;None;None;0;627.4368009001482;None;628.9367533000186;None;None;628.9367533000186;None;;;;;;;Emoconpilot031;2021_Nov_10_1210;BackwardMask;2020.2.8;120.08175149607206;
;m;016_y_m_n_a.jpg;neutral;8;16;m;016_y_m_h_a.jpg;happy;incongruent;9;match;;140;150;;18;193;block1_Pilot_2;16;n_h;n_h_strong;;;;;0;0;0;0;0;87;87;87;;;;;;;;;631.937024500221;None;633.5654349999968;633.8549414000008;633.8549414000008;634.0041522001848;634.0041522001848;634.0450516000856;634.0450516000856;None;None;0;634.0450516000856;None;635.5450736000203;None;None;635.5450736000203;None;;;;;;;Emoconpilot031;2021_Nov_10_1210;BackwardMask;2020.2.8;120.08175149607206;
;m;033_o_m_h_a.jpg;happy;9;4;m;004_o_m_h_a.jpg;happy;congruent;9;match;;120;150;;2;195;block1_Pilot_2;33;h_h;h_h_strong;;;;;0;0;0;0;0;88;88;88;;;;;;;;;638.5454355000984;None;640.1784155000933;640.4714946001768;640.4714946001768;640.4876748002134;640.4876748002134;640.5285132001154;640.5285132001154;None;None;0;640.5285132001154;None;642.0285114001017;None;None;642.0285114001017;None;;;;;;;Emoconpilot031;2021_Nov_10_1210;BackwardMask;2020.2.8;120.08175149607206;
;m;027_o_m_h_a.jpg;happy;9;16;m;016_y_m_h_a.jpg;happy;congruent;9;match;;120;150;;3;209;block1_Pilot_2;27;h_h;h_h_weak;;;;;0;0;0;0;0;89;89;89;;;;;;;;;645.0287096002139;None;646.7938727000728;647.0883882001508;647.0883882001508;647.1130244000815;647.1130244000815;647.1537702002097;647.1537702002097;None;None;0;647.1537702002097;None;648.6537336001638;None;None;648.6537336001638;None;;;;;;;Emoconpilot031;2021_Nov_10_1210;BackwardMask;2020.2.8;120.08175149607206;
;m;033_o_m_s_a.jpg;sad;7;16;m;016_y_m_s_a.jpg;sad;congruent;7;match;;130;160;;3;128;block1_Pilot_2;33;s_s;s_s_strong;;;;;0;0;0;0;0;90;90;90;;;;;;;;;651.6540433000773;None;652.7289077001624;653.0215552002192;653.0215552002192;653.0460758002009;653.0460758002009;653.0871486000251;653.0871486000251;None;None;0;653.0871486000251;None;654.5873849000782;None;None;654.5873849000782;None;;;;;;;Emoconpilot031;2021_Nov_10_1210;BackwardMask;2020.2.8;120.08175149607206;
;f;021_o_f_s_a.jpg;sad;7;30;f;030_o_f_s_a.jpg;sad;congruent;7;match;;130;160;;1;238;block1_Pilot_2;21;s_s;s_s_strong;;;;;0;0;0;0;0;91;91;91;;;;;;;;;657.5872766000684;None;659.5765418000519;659.8715510000475;659.8715510000475;659.8799094001297;659.8799094001297;659.9206188002136;659.9206188002136;None;None;0;659.9206188002136;None;661.4206906000618;None;None;661.4206906000618;None;;;;;;;Emoconpilot031;2021_Nov_10_1210;BackwardMask;2020.2.8;120.08175149607206;
;m;033_o_m_n_a.jpg;neutral;8;28;f;028_y_f_s_a.jpg;sad;incongruent;7;mismatch;;140;160;;18;166;block1_Pilot_2;33;n_s;n_s_strong;;;;;0;0;0;0;0;92;92;92;;;;;;;;;664.4211497001816;None;665.8437950001098;666.1386436000466;666.1386436000466;666.288463700097;666.288463700097;666.3286972001661;666.3286972001661;None;None;0;666.3286972001661;None;667.8292144001462;None;None;667.8292144001462;None;;;;;;;Emoconpilot031;2021_Nov_10_1210;BackwardMask;2020.2.8;120.08175149607206;
;f;019_m_f_n_a.jpg;neutral;8;30;f;030_o_f_n_a.jpg;neutral;congruent;8;match;;140;170;;18;228;block1_Pilot_2;19;n_n;n_n_weak;;;;;0;0;0;0;0;93;93;93;;;;;;;;;670.8293124001939;None;672.7497698999941;673.0389642000664;673.0389642000664;673.1883457000367;673.1883457000367;673.2293025001418;673.2293025001418;None;None;0;673.2293025001418;None;674.729261000175;None;None;674.729261000175;None;;;;;;;Emoconpilot031;2021_Nov_10_1210;BackwardMask;2020.2.8;120.08175149607206;
;m;008_y_m_s_a.jpg;sad;7;12;f;012_o_f_h_a.jpg;happy;incongruent;9;mismatch;;130;150;;3;130;block1_Pilot_2;8;s_h;s_h_weak;;;;;0;0;0;0;0;94;94;94;;;;;;;;;677.7308845000807;None;678.8325240002014;679.1225823001005;679.1225823001005;679.1468880001921;679.1468880001921;679.1876984999981;679.1876984999981;None;None;0;679.1876984999981;None;680.6880910000764;None;None;680.6880910000764;None;;;;;;;Emoconpilot031;2021_Nov_10_1210;BackwardMask;2020.2.8;120.08175149607206;
;m;016_y_m_n_a.jpg;neutral;8;28;f;028_y_f_n_a.jpg;neutral;congruent;8;mismatch;;140;170;;18;189;block1_Pilot_2;16;n_n;n_n_strong;;;;;0;0;0;0;0;95;95;95;;;;;;;;;683.6884621002246;None;685.2825197000057;685.5726299001835;685.5726299001835;685.7220107000321;685.7220107000321;685.7631929002237;685.7631929002237;None;None;0;685.7631929002237;None;687.2631006001029;None;None;687.2631006001029;None;;;;;;;Emoconpilot031;2021_Nov_10_1210;BackwardMask;2020.2.8;120.08175149607206;
;f;012_o_f_s_a.jpg;sad;7;16;m;016_y_m_h_a.jpg;happy;incongruent;9;mismatch;;130;150;;3;238;block1_Pilot_2;12;s_h;s_h_strong;;;;;0;0;0;0;0;96;96;96;;;;;;;;;690.2632460000459;None;692.2500649001449;692.5472704002168;692.5472704002168;692.5722065002192;692.5722065002192;692.6128538001794;692.6128538001794;None;None;0;692.6128538001794;None;694.1131148000713;None;None;694.1131148000713;None;;;;;;;Emoconpilot031;2021_Nov_10_1210;BackwardMask;2020.2.8;120.08175149607206;
;m;013_y_m_h_a.jpg;happy;9;27;m;027_o_m_h_a.jpg;happy;congruent;9;match;;120;150;;18;238;block1_Pilot_2;13;h_h;h_h_strong;;;;;0;0;0;0;0;97;97;97;;;;;;;;;697.1131524001248;None;699.1172882001847;699.406080200104;699.406080200104;699.5556250000373;699.5556250000373;699.5965799000114;699.5965799000114;None;None;0;699.5965799000114;None;701.096529400209;None;None;701.096529400209;None;;;;;;;Emoconpilot031;2021_Nov_10_1210;BackwardMask;2020.2.8;120.08175149607206;
;m;016_y_m_s_a.jpg;sad;7;33;m;033_o_m_n_a.jpg;neutral;incongruent;8;match;;130;170;;1;238;block1_Pilot_2;16;s_n;s_n_weak;;;;;0;0;0;0;0;98;98;98;;;;;;;;;704.0966849001125;None;706.0886647000443;706.3809561000671;706.3809561000671;706.3891214001924;706.3891214001924;706.4299966001417;706.4299966001417;None;None;0;706.4299966001417;None;707.9301224001683;None;None;707.9301224001683;None;;;;;;;Emoconpilot031;2021_Nov_10_1210;BackwardMask;2020.2.8;120.08175149607206;
;m;008_y_m_n_a.jpg;neutral;8;30;f;030_o_f_n_a.jpg;neutral;congruent;8;mismatch;;140;170;;1;238;block1_Pilot_2;8;n_n;n_n_weak;;;;;0;0;0;0;0;99;99;99;;;;;;;;;710.9301290002186;None;712.9470757001545;713.2398229001556;713.2398229001556;713.2475874000229;713.2475874000229;713.2884891000576;713.2884891000576;None;None;0;713.2884891000576;None;714.7884880001657;None;None;714.7884880001657;None;;;;;;;Emoconpilot031;2021_Nov_10_1210;BackwardMask;2020.2.8;120.08175149607206;
;m;008_y_m_s_a.jpg;sad;7;30;f;030_o_f_s_a.jpg;sad;congruent;7;mismatch;;130;160;;2;133;block1_Pilot_2;8;s_s;s_s_weak;;;;;0;0;0;0;0;100;100;100;;;;;;;;;717.7884631000925;None;718.9157475000247;719.2066038001794;719.2066038001794;719.222881300142;719.222881300142;719.2636251000222;719.2636251000222;None;None;0;719.2636251000222;None;720.7636977999937;None;None;720.7636977999937;None;;;;;;;Emoconpilot031;2021_Nov_10_1210;BackwardMask;2020.2.8;120.08175149607206;
;f;040_y_f_n_a.jpg;neutral;8;30;f;030_o_f_s_a.jpg;sad;incongruent;7;match;;140;160;;3;197;block1_Pilot_2;40;n_s;n_s_strong;;;;;0;0;0;0;0;101;101;101;;;;;;;;;723.7644218001515;None;725.4246820001863;725.7150903001893;725.7150903001893;725.739557400113;725.739557400113;725.7804674000945;725.7804674000945;None;None;0;725.7804674000945;None;727.2804658000823;None;None;727.2804658000823;None;;;;;;;Emoconpilot031;2021_Nov_10_1210;BackwardMask;2020.2.8;120.08175149607206;
;m;004_o_m_h_a.jpg;happy;9;30;f;030_o_f_s_a.jpg;sad;incongruent;7;mismatch;;120;160;;3;121;block1_Pilot_2;4;h_s;h_s_strong;;;;;0;0;0;0;0;102;102;102;;;;;;;;;730.2810971001163;None;731.3078882000409;731.5986485001631;731.5986485001631;731.6230998001993;731.6230998001993;731.663883100031;731.663883100031;None;None;0;731.663883100031;None;733.1639964000788;None;None;733.1639964000788;None;;;;;;;Emoconpilot031;2021_Nov_10_1210;BackwardMask;2020.2.8;120.08175149607206;
;f;040_y_f_h_a.jpg;happy;9;8;m;008_y_m_h_a.jpg;happy;congruent;9;mismatch;;120;150;;18;211;block1_Pilot_2;40;h_h;h_h_weak;;;;;0;0;0;0;0;103;103;103;;;;;;;;;736.1639601001516;None;737.9304266001564;738.2233918001875;738.2233918001875;738.3731083001476;738.3731083001476;738.4139363002032;738.4139363002032;None;None;0;738.4139363002032;None;739.9139285001438;None;None;739.9139285001438;None;;;;;;;Emoconpilot031;2021_Nov_10_1210;BackwardMask;2020.2.8;120.08175149607206;
;f;019_m_f_s_a.jpg;sad;7;16;m;016_y_m_n_a.jpg;neutral;incongruent;8;mismatch;;130;170;;2;198;block1_Pilot_2;19;s_n;s_n_strong;;;;;0;0;0;0;0;104;104;104;;;;;;;;;742.9147401000373;None;744.6105525000021;744.9072013001423;744.9072013001423;744.9233491001651;744.9233491001651;744.9640016001649;744.9640016001649;None;None;0;744.9640016001649;None;746.4640445001423;None;None;746.4640445001423;None;;;;;;;Emoconpilot031;2021_Nov_10_1210;BackwardMask;2020.2.8;120.08175149607206;
;f;040_y_f_s_a.jpg;sad;7;12;f;012_o_f_s_a.jpg;sad;congruent;7;match;;130;160;;18;240;block1_Pilot_2;40;s_s;s_s_strong;;;;;0;0;0;0;0;105;105;105;;;;;;;;;749.464238300221;None;751.4717210000381;751.7656197000761;751.7656197000761;751.9150361001957;751.9150361001957;751.9557656000834;751.9557656000834;None;None;0;751.9557656000834;None;753.4559386000037;None;None;753.4559386000037;None;;;;;;;Emoconpilot031;2021_Nov_10_1210;BackwardMask;2020.2.8;120.08175149607206;
;f;040_y_f_n_a.jpg;neutral;8;33;m;033_o_m_s_a.jpg;sad;incongruent;7;mismatch;;140;160;;3;188;block1_Pilot_2;40;n_s;n_s_weak;;;;;0;0;0;0;0;106;106;106;;;;;;;;;756.4560019001365;None;758.0542163001373;758.3490832000971;758.3490832000971;758.373624100117;758.373624100117;758.4143537001219;758.4143537001219;None;None;0;758.4143537001219;None;759.9143407000229;None;None;759.9143407000229;None;;;;;;;Emoconpilot031;2021_Nov_10_1210;BackwardMask;2020.2.8;120.08175149607206;
;f;028_y_f_h_a.jpg;happy;9;21;f;021_o_f_s_a.jpg;sad;incongruent;7;match;;120;160;;3;193;block1_Pilot_2;28;h_s;h_s_strong;;;;;0;0;0;0;0;107;107;107;;;;;;;;;762.9147048001178;None;764.5340028000064;764.8237848000135;764.8237848000135;764.8486474000383;764.8486474000383;764.889580400195;764.889580400195;None;None;0;764.889580400195;None;766.3896002999973;None;None;766.3896002999973;None;;;;;;;Emoconpilot031;2021_Nov_10_1210;BackwardMask;2020.2.8;120.08175149607206;
;f;040_y_f_s_a.jpg;sad;7;13;m;013_y_m_n_a.jpg;neutral;incongruent;8;mismatch;;130;170;;2;198;block1_Pilot_2;40;s_n;s_n_strong;;;;;0;0;0;0;0;108;108;108;;;;;;;;;769.3898532001767;None;771.0474123000167;771.3408402001951;771.3408402001951;771.3571373000741;771.3571373000741;771.3979195000138;771.3979195000138;None;None;0;771.3979195000138;None;772.8979853000492;None;None;772.8979853000492;None;;;;;;;Emoconpilot031;2021_Nov_10_1210;BackwardMask;2020.2.8;120.08175149607206;
;f;030_o_f_n_a.jpg;neutral;8;33;m;033_o_m_s_a.jpg;sad;incongruent;7;mismatch;;140;160;;1;238;block1_Pilot_2;30;n_s;n_s_strong;;;;;0;0;0;0;0;109;109;109;;;;;;;;;775.8981141000986;None;777.9022443001159;778.1910877001937;778.1910877001937;778.1989119001664;778.1989119001664;778.2397524002008;778.2397524002008;None;None;0;778.2397524002008;None;779.7397393002175;None;None;779.7397393002175;None;;;;;;;Emoconpilot031;2021_Nov_10_1210;BackwardMask;2020.2.8;120.08175149607206;
;f;021_o_f_h_a.jpg;happy;9;40;f;040_y_f_n_a.jpg;neutral;incongruent;8;match;;120;170;;2;125;block1_Pilot_2;21;h_n;h_n_weak;;;;;0;0;0;0;0;110;110;110;;;;;;;;;782.7404263000935;None;783.8018216001801;784.0913628002163;784.0913628002163;784.1073440001346;784.1073440001346;784.1483973001596;784.1483973001596;None;None;0;784.1483973001596;None;785.6484164001886;None;None;785.6484164001886;None;;;;;;;Emoconpilot031;2021_Nov_10_1210;BackwardMask;2020.2.8;120.08175149607206;
;f;021_o_f_h_a.jpg;happy;9;16;m;016_y_m_s_a.jpg;sad;incongruent;7;mismatch;;120;160;;1;238;block1_Pilot_2;21;h_s;h_s_strong;;;;;0;0;0;0;0;111;111;111;;;;;;;;;788.6490899000783;None;790.6511888001114;790.9415276001673;790.9415276001673;790.9490460001398;790.9490460001398;790.9900566001888;790.9900566001888;None;None;0;790.9900566001888;None;792.4900781000033;None;None;792.4900781000033;None;;;;;;;Emoconpilot031;2021_Nov_10_1210;BackwardMask;2020.2.8;120.08175149607206;
;f;012_o_f_h_a.jpg;happy;9;8;m;008_y_m_s_a.jpg;sad;incongruent;7;mismatch;;120;160;;1;238;block1_Pilot_2;12;h_s;h_s_weak;;;;;0;0;0;0;0;112;112;112;;;;;;;;;795.4907425001729;None;797.4817404001951;797.7745706001297;797.7745706001297;797.7826532002073;797.7826532002073;797.8236479000188;797.8236479000188;None;None;0;797.8236479000188;None;799.323541900143;None;None;799.323541900143;None;;;;;;;Emoconpilot031;2021_Nov_10_1210;BackwardMask;2020.2.8;120.08175149607206;
;m;013_y_m_h_a.jpg;happy;9;16;m;016_y_m_s_a.jpg;sad;incongruent;7;match;;120;160;;3;202;block1_Pilot_2;13;h_s;h_s_weak;;;;;0;0;0;0;0;113;113;113;;;;;;;;;802.3238072001841;None;804.0381588002201;804.33328910009;804.33328910009;804.3576127002016;804.3576127002016;804.3986017000861;804.3986017000861;None;None;0;804.3986017000861;None;805.8989170000423;None;None;805.8989170000423;None;;;;;;;Emoconpilot031;2021_Nov_10_1210;BackwardMask;2020.2.8;120.08175149607206;
;f;019_m_f_s_a.jpg;sad;7;4;m;004_o_m_n_a.jpg;neutral;incongruent;8;mismatch;;130;170;;1;238;block1_Pilot_2;19;s_n;s_n_strong;;;;;0;0;0;0;0;114;114;114;;;;;;;;;808.8989896001294;None;810.9023962002248;811.1918888001237;811.1918888001237;811.1996180000715;811.1996180000715;811.2403045000974;811.2403045000974;None;None;0;811.2403045000974;None;812.7406132000033;None;None;812.7406132000033;None;;;;;;;Emoconpilot031;2021_Nov_10_1210;BackwardMask;2020.2.8;120.08175149607206;
;f;028_y_f_n_a.jpg;neutral;8;27;m;027_o_m_s_a.jpg;sad;incongruent;7;mismatch;;140;160;;18;238;block1_Pilot_2;28;n_s;n_s_strong;;;;;0;0;0;0;0;115;115;115;;;;;;;;;815.7406687000766;None;817.7434043001849;818.0336056000087;818.0336056000087;818.18323710002;818.18323710002;818.2240142000373;818.2240142000373;None;None;0;818.2240142000373;None;819.7239052001387;None;None;819.7239052001387;None;;;;;;;Emoconpilot031;2021_Nov_10_1210;BackwardMask;2020.2.8;120.08175149607206;
;m;013_y_m_s_a.jpg;sad;7;12;f;012_o_f_h_a.jpg;happy;incongruent;9;mismatch;;130;150;;1;238;block1_Pilot_2;13;s_h;s_h_strong;;;;;0;0;0;0;0;116;116;116;;;;;;;;;822.7240686002187;None;824.715209200047;825.0085035001393;825.0085035001393;825.0166732000653;825.0166732000653;825.0574744001497;825.0574744001497;None;None;0;825.0574744001497;None;826.5574984000996;None;None;826.5574984000996;None;;;;;;;Emoconpilot031;2021_Nov_10_1210;BackwardMask;2020.2.8;120.08175149607206;
;m;016_y_m_s_a.jpg;sad;7;19;f;019_m_f_h_a.jpg;happy;incongruent;9;mismatch;;130;150;;1;238;block1_Pilot_2;16;s_h;s_h_strong;;;;;0;0;0;0;0;117;117;117;;;;;;;;;829.5575928001199;None;831.5477613999974;831.8417296002153;831.8417296002153;831.8500155000947;831.8500155000947;831.8911271002144;831.8911271002144;None;None;0;831.8911271002144;None;833.3910329001956;None;None;833.3910329001956;None;;;;;;;Emoconpilot031;2021_Nov_10_1210;BackwardMask;2020.2.8;120.08175149607206;
;m;013_y_m_s_a.jpg;sad;7;21;f;021_o_f_h_a.jpg;happy;incongruent;9;mismatch;;130;150;;18;238;block1_Pilot_2;13;s_h;s_h_strong;;;;;0;0;0;0;0;118;118;118;;;;;;;;;836.3911763001233;None;838.3826500000432;838.6752249000128;838.6752249000128;838.8251872002147;838.8251872002147;838.8660087001044;838.8660087001044;None;None;0;838.8660087001044;None;840.3661725001875;None;None;840.3661725001875;None;;;;;;;Emoconpilot031;2021_Nov_10_1210;BackwardMask;2020.2.8;120.08175149607206;
;f;012_o_f_s_a.jpg;sad;7;13;m;013_y_m_h_a.jpg;happy;incongruent;9;mismatch;;130;150;;3;235;block1_Pilot_2;12;s_h;s_h_weak;;;;;0;0;0;0;0;119;119;119;;;;;;;;;843.3662928000558;None;845.3293336001225;845.6255403000396;845.6255403000396;845.6501584001817;845.6501584001817;845.6911894001532;845.6911894001532;None;None;0;845.6911894001532;None;847.1913052001037;None;None;847.1913052001037;None;;;;;;;Emoconpilot031;2021_Nov_10_1210;BackwardMask;2020.2.8;120.08175149607206;
;f;019_m_f_s_a.jpg;sad;7;30;f;030_o_f_h_a.jpg;happy;incongruent;9;match;;130;150;;3;235;block2_Pilot_2;19;s_h;s_h_strong;;;;;0;1;1;1;0;0;0;0;;;;;;;;;870.2252230001613;None;872.2140133001376;872.5096344000194;872.5096344000194;872.5342055000365;872.5342055000365;872.5750904001761;872.5750904001761;None;None;0;872.5750904001761;None;874.075928500155;None;None;874.075928500155;None;;;850.1921067000367;None;;;Emoconpilot031;2021_Nov_10_1210;BackwardMask;2020.2.8;120.08175149607206;
;m;008_y_m_n_a.jpg;neutral;8;40;f;040_y_f_h_a.jpg;happy;incongruent;9;mismatch;;140;150;;2;121;block2_Pilot_2;8;n_h;n_h_strong;;;;;0;1;1;1;0;1;1;1;;;;;;;;;877.0759688001126;None;878.1035394000355;878.3932806001976;878.3932806001976;878.4094330000225;878.4094330000225;878.4503799001686;878.4503799001686;None;None;0;878.4503799001686;None;879.9503565002233;None;None;879.9503565002233;None;;;;;;;Emoconpilot031;2021_Nov_10_1210;BackwardMask;2020.2.8;120.08175149607206;
;f;012_o_f_h_a.jpg;happy;9;27;m;027_o_m_n_a.jpg;neutral;incongruent;8;mismatch;;120;170;;2;240;block2_Pilot_2;12;h_n;h_n_weak;;;;;0;1;1;1;0;2;2;2;;;;;;;;;882.9507909000386;None;884.9578956000041;885.2513141999952;885.2513141999952;885.2678092001006;885.2678092001006;885.3087041000836;885.3087041000836;None;None;0;885.3087041000836;None;886.808743200032;None;None;886.808743200032;None;;;;;;;Emoconpilot031;2021_Nov_10_1210;BackwardMask;2020.2.8;120.08175149607206;
;m;008_y_m_h_a.jpg;happy;9;40;f;040_y_f_h_a.jpg;happy;congruent;9;mismatch;;120;150;;18;195;block2_Pilot_2;8;h_h;h_h_strong;;;;;0;1;1;1;0;3;3;3;;;;;;;;;889.8089477000758;None;891.4417065000162;891.7348327999935;891.7348327999935;891.8848222000524;891.8848222000524;891.9253493000288;891.9253493000288;None;None;0;891.9253493000288;None;893.4254749000538;None;None;893.4254749000538;None;;;;;;;Emoconpilot031;2021_Nov_10_1210;BackwardMask;2020.2.8;120.08175149607206;
;m;004_o_m_n_a.jpg;neutral;8;33;m;033_o_m_s_a.jpg;sad;incongruent;7;match;;140;160;;18;126;block2_Pilot_2;4;n_s;n_s_weak;;;;;0;1;1;1;0;4;4;4;;;;;;;;;896.4255485001486;None;897.5228659000713;897.8186840000562;897.8186840000562;897.9679063002113;897.9679063002113;898.008838100126;898.008838100126;None;None;0;898.008838100126;None;899.5090512000024;None;None;899.5090512000024;None;;;;;;;Emoconpilot031;2021_Nov_10_1210;BackwardMask;2020.2.8;120.08175149607206;
;f;028_y_f_s_a.jpg;sad;7;27;m;027_o_m_n_a.jpg;neutral;incongruent;8;mismatch;;130;170;;18;225;block2_Pilot_2;28;s_n;s_n_strong;;;;;0;1;1;1;0;5;5;5;;;;;;;;;902.5095261000097;None;904.3952638001647;904.6852269000374;904.6852269000374;904.8349165001418;904.8349165001418;904.8758495000657;904.8758495000657;None;None;0;904.8758495000657;None;906.3758955001831;None;None;906.3758955001831;None;;;;;;;Emoconpilot031;2021_Nov_10_1210;BackwardMask;2020.2.8;120.08175149607206;
;m;027_o_m_s_a.jpg;sad;7;30;f;030_o_f_h_a.jpg;happy;incongruent;9;mismatch;;130;150;;18;238;block2_Pilot_2;27;s_h;s_h_weak;;;;;0;1;1;1;0;6;6;6;;;;;;;;;909.3762903001625;None;911.3671331000514;911.6602107000072;911.6602107000072;911.8100953001995;911.8100953001995;911.8510012000334;911.8510012000334;None;None;0;911.8510012000334;None;913.351067500189;None;None;913.351067500189;None;;;;;;;Emoconpilot031;2021_Nov_10_1210;BackwardMask;2020.2.8;120.08175149607206;
;m;033_o_m_h_a.jpg;happy;9;40;f;040_y_f_s_a.jpg;sad;incongruent;7;mismatch;;120;160;;1;238;block2_Pilot_2;33;h_s;h_s_strong;;;;;0;1;1;1;0;7;7;7;;;;;;;;;916.3512000001501;None;918.3424927000888;918.6356674002018;918.6356674002018;918.6435786001384;918.6435786001384;918.6843293001875;918.6843293001875;None;None;0;918.6843293001875;None;920.1843404001556;None;None;920.1843404001556;None;;;;;;;Emoconpilot031;2021_Nov_10_1210;BackwardMask;2020.2.8;120.08175149607206;
;f;012_o_f_n_a.jpg;neutral;8;12;f;012_o_f_h_a.jpg;happy;incongruent;9;match;;140;150;;2;200;block2_Pilot_2;12;n_h;n_h_weak;;;;;0;1;1;1;0;8;8;8;;;;;;;;;923.1852698000148;None;924.8885681000538;925.1776519000996;925.1776519000996;925.1936280000955;925.1936280000955;925.2345911001321;925.2345911001321;None;None;0;925.2345911001321;None;926.7345770001411;None;None;926.7345770001411;None;;;;;;;Emoconpilot031;2021_Nov_10_1210;BackwardMask;2020.2.8;120.08175149607206;
;f;030_o_f_n_a.jpg;neutral;8;19;f;019_m_f_n_a.jpg;neutral;congruent;8;match;;140;170;;1;238;block2_Pilot_2;30;n_n;n_n_weak;;;;;0;1;1;1;0;9;9;9;;;;;;;;;929.7347023000475;None;931.7378237000667;932.02777600009;932.02777600009;932.0354634001851;932.0354634001851;932.0761981001124;932.0761981001124;None;None;0;932.0761981001124;None;933.5764326001517;None;None;933.5764326001517;None;;;;;;;Emoconpilot031;2021_Nov_10_1210;BackwardMask;2020.2.8;120.08175149607206;
;m;013_y_m_h_a.jpg;happy;9;8;m;008_y_m_n_a.jpg;neutral;incongruent;8;match;;120;170;;1;238;block2_Pilot_2;13;h_n;h_n_strong;;;;;0;1;1;1;0;10;10;10;;;;;;;;;936.5765599000733;None;938.5811869001482;938.8776837000623;938.8776837000623;938.8855630001053;938.8855630001053;938.92630130006;938.92630130006;None;None;0;938.92630130006;None;940.426468500169;None;None;940.426468500169;None;;;;;;;Emoconpilot031;2021_Nov_10_1210;BackwardMask;2020.2.8;120.08175149607206;
;f;040_y_f_h_a.jpg;happy;9;19;f;019_m_f_s_a.jpg;sad;incongruent;7;match;;120;160;;3;133;block2_Pilot_2;40;h_s;h_s_strong;;;;;0;1;1;1;0;11;11;11;;;;;;;;;943.4266782000195;None;944.5426164001692;944.8359502002131;944.8359502002131;944.860785700148;944.860785700148;944.9014669000171;944.9014669000171;None;None;0;944.9014669000171;None;946.4015005000401;None;None;946.4015005000401;None;;;;;;;Emoconpilot031;2021_Nov_10_1210;BackwardMask;2020.2.8;120.08175149607206;
;f;040_y_f_h_a.jpg;happy;9;13;m;013_y_m_s_a.jpg;sad;incongruent;7;mismatch;;120;160;;3;226;block2_Pilot_2;40;h_s;h_s_strong;;;;;0;1;1;1;0;12;12;12;;;;;;;;;949.4018526000436;None;951.2934199001174;951.5859722001478;951.5859722001478;951.6110448001418;951.6110448001418;951.6516830001492;951.6516830001492;None;None;0;951.6516830001492;None;953.1522460000124;None;None;953.1522460000124;None;;;;;;;Emoconpilot031;2021_Nov_10_1210;BackwardMask;2020.2.8;120.08175149607206;
;f;030_o_f_s_a.jpg;sad;7;27;m;027_o_m_h_a.jpg;happy;incongruent;9;mismatch;;130;150;;1;238;block2_Pilot_2;30;s_h;s_h_strong;;;;;0;1;1;1;0;13;13;13;;;;;;;;;956.1517510002013;None;958.1616622000001;958.45320980018;958.45320980018;958.4611782000866;958.4611782000866;958.5015773000196;958.5015773000196;None;None;0;958.5015773000196;None;960.0019004000351;None;None;960.0019004000351;None;;;;;;;Emoconpilot031;2021_Nov_10_1210;BackwardMask;2020.2.8;120.08175149607206;
;m;033_o_m_h_a.jpg;happy;9;30;f;030_o_f_s_a.jpg;sad;incongruent;7;mismatch;;120;160;;1;238;block2_Pilot_2;33;h_s;h_s_weak;;;;;0;1;1;1;0;14;14;14;;;;;;;;;963.002039300045;None;964.9927357002161;965.2862645001151;965.2862645001151;965.2945409000386;965.2945409000386;965.3352939002216;965.3352939002216;None;None;0;965.3352939002216;None;966.8354601000901;None;None;966.8354601000901;None;;;;;;;Emoconpilot031;2021_Nov_10_1210;BackwardMask;2020.2.8;120.08175149607206;
;f;030_o_f_s_a.jpg;sad;7;28;f;028_y_f_n_a.jpg;neutral;incongruent;8;match;;130;170;;3;198;block2_Pilot_2;30;s_n;s_n_weak;;;;;0;1;1;1;0;15;15;15;;;;;;;;;969.835582200205;None;971.506741899997;971.8035646001808;971.8035646001808;971.8278175001033;971.8278175001033;971.8688390001189;971.8688390001189;None;None;0;971.8688390001189;None;973.3689908001106;None;None;973.3689908001106;None;;;;;;;Emoconpilot031;2021_Nov_10_1210;BackwardMask;2020.2.8;120.08175149607206;
;f;030_o_f_s_a.jpg;sad;7;33;m;033_o_m_h_a.jpg;happy;incongruent;9;mismatch;;130;150;;3;175;block2_Pilot_2;30;s_h;s_h_weak;;;;;0;1;1;1;0;16;16;16;;;;;;;;;976.3689214000478;None;977.8457550001331;978.1369505000766;978.1369505000766;978.1614729000721;978.1614729000721;978.2023421002086;978.2023421002086;None;None;0;978.2023421002086;None;979.702251000097;None;None;979.702251000097;None;;;;;;;Emoconpilot031;2021_Nov_10_1210;BackwardMask;2020.2.8;120.08175149607206;
;f;021_o_f_h_a.jpg;happy;9;30;f;030_o_f_h_a.jpg;happy;congruent;9;match;;120;150;;2;194;block2_Pilot_2;21;h_h;h_h_strong;;;;;0;1;1;1;0;17;17;17;;;;;;;;;982.7024950000923;None;984.3377938000485;984.628861400066;984.628861400066;984.6449828001205;984.6449828001205;984.6856955999974;984.6856955999974;None;None;0;984.6856955999974;None;986.1858445000835;None;None;986.1858445000835;None;;;;;;;Emoconpilot031;2021_Nov_10_1210;BackwardMask;2020.2.8;120.08175149607206;
;f;019_m_f_n_a.jpg;neutral;8;16;m;016_y_m_s_a.jpg;sad;incongruent;7;mismatch;;140;160;;18;163;block2_Pilot_2;19;n_s;n_s_weak;;;;;0;1;1;1;0;18;18;18;;;;;;;;;989.1860263000708;None;990.5642423001118;990.8539363001473;990.8539363001473;991.0033260001801;991.0033260001801;991.0440936000086;991.0440936000086;None;None;0;991.0440936000086;None;992.5443241000175;None;None;992.5443241000175;None;;;;;;;Emoconpilot031;2021_Nov_10_1210;BackwardMask;2020.2.8;120.08175149607206;
;m;033_o_m_n_a.jpg;neutral;8;13;m;013_y_m_n_a.jpg;neutral;congruent;8;match;;140;170;;2;217;block2_Pilot_2;33;n_n;n_n_strong;;;;;0;1;1;1;0;19;19;19;;;;;;;;;995.5446289000101;None;997.3711965000257;997.6624856002163;997.6624856002163;997.6785638001747;997.6785638001747;997.7193980000447;997.7193980000447;None;None;0;997.7193980000447;None;999.2193968000356;None;None;999.2193968000356;None;;;;;;;Emoconpilot031;2021_Nov_10_1210;BackwardMask;2020.2.8;120.08175149607206;
;m;033_o_m_h_a.jpg;happy;9;13;m;013_y_m_n_a.jpg;neutral;incongruent;8;match;;120;170;;2;227;block2_Pilot_2;33;h_n;h_n_weak;;;;;0;1;1;1;0;20;20;20;;;;;;;;;1002.2196980000008;None;1004.1201693001203;1004.412266400177;1004.412266400177;1004.4287166001741;1004.4287166001741;1004.4695455001201;1004.4695455001201;None;None;0;1004.4695455001201;None;1005.9695380001795;None;None;1005.9695380001795;None;;;;;;;Emoconpilot031;2021_Nov_10_1210;BackwardMask;2020.2.8;120.08175149607206;
;f;012_o_f_s_a.jpg;sad;7;16;m;016_y_m_n_a.jpg;neutral;incongruent;8;mismatch;;130;170;;1;238;block2_Pilot_2;12;s_n;s_n_weak;;;;;0;1;1;1;0;21;21;21;;;;;;;;;1008.9699697000906;None;1010.9561187000945;1011.2538421000354;1011.2538421000354;1011.2621438000351;1011.2621438000351;1011.3028642002027;1011.3028642002027;None;None;0;1011.3028642002027;None;1012.8030695000198;None;None;1012.8030695000198;None;;;;;;;Emoconpilot031;2021_Nov_10_1210;BackwardMask;2020.2.8;120.08175149607206;
;f;028_y_f_n_a.jpg;neutral;8;21;f;021_o_f_h_a.jpg;happy;incongruent;9;match;;140;150;;18;202;block2_Pilot_2;28;n_h;n_h_strong;;;;;0;1;1;1;0;22;22;22;;;;;;;;;1015.8030692001339;None;1017.5071237001102;1017.7964099000674;1017.7964099000674;1017.9455931000412;1017.9455931000412;1017.9864617001731;1017.9864617001731;None;None;0;1017.9864617001731;None;1019.4864208002109;None;None;1019.4864208002109;None;;;;;;;Emoconpilot031;2021_Nov_10_1210;BackwardMask;2020.2.8;120.08175149607206;
;f;028_y_f_s_a.jpg;sad;7;30;f;030_o_f_n_a.jpg;neutral;incongruent;8;match;;130;170;;2;127;block2_Pilot_2;28;s_n;s_n_weak;;;;;0;1;1;1;0;23;23;23;;;;;;;;;1022.4873179001734;None;1023.5697700001765;1023.8626858000644;1023.8626858000644;1023.8789769001305;1023.8789769001305;1023.9198878000025;1023.9198878000025;None;None;0;1023.9198878000025;None;1025.4199368001428;None;None;1025.4199368001428;None;;;;;;;Emoconpilot031;2021_Nov_10_1210;BackwardMask;2020.2.8;120.08175149607206;
;m;004_o_m_n_a.jpg;neutral;8;40;f;040_y_f_n_a.jpg;neutral;congruent;8;mismatch;;140;170;;1;238;block2_Pilot_2;4;n_n;n_n_weak;;;;;0;1;1;1;0;24;24;24;;;;;;;;;1028.4202356000897;None;1030.4313719000202;1030.7214085001033;1030.7214085001033;1030.7291239001788;1030.7291239001788;1030.7699966002256;1030.7699966002256;None;None;0;1030.7699966002256;None;1032.2701493001077;None;None;1032.2701493001077;None;;;;;;;Emoconpilot031;2021_Nov_10_1210;BackwardMask;2020.2.8;120.08175149607206;
;m;016_y_m_n_a.jpg;neutral;8;16;m;016_y_m_h_a.jpg;happy;incongruent;9;match;;140;150;;18;239;block2_Pilot_2;16;n_h;n_h_weak;;;;;0;1;1;1;0;25;25;25;;;;;;;;;1035.2704031001776;None;1037.2808903001714;1037.571381200105;1037.571381200105;1037.7209354001097;1037.7209354001097;1037.76185790007;1037.76185790007;None;None;0;1037.76185790007;None;1039.2618825000245;None;None;1039.2618825000245;None;;;;;;;Emoconpilot031;2021_Nov_10_1210;BackwardMask;2020.2.8;120.08175149607206;
;f;012_o_f_n_a.jpg;neutral;8;33;m;033_o_m_n_a.jpg;neutral;congruent;8;mismatch;;140;170;;3;134;block2_Pilot_2;12;n_n;n_n_weak;;;;;0;1;1;1;0;26;26;26;;;;;;;;;1042.2619393002242;None;1043.3979842001572;1043.6883414001204;1043.6883414001204;1043.7128004000988;1043.7128004000988;1043.753645400051;1043.753645400051;None;None;0;1043.753645400051;None;1045.2535963000264;None;None;1045.2535963000264;None;;;;;;;Emoconpilot031;2021_Nov_10_1210;BackwardMask;2020.2.8;120.08175149607206;
;m;013_y_m_h_a.jpg;happy;9;27;m;027_o_m_s_a.jpg;sad;incongruent;7;match;;120;160;;2;194;block2_Pilot_2;13;h_s;h_s_strong;;;;;0;1;1;1;0;27;27;27;;;;;;;;;1048.2541424999945;None;1049.8888722001575;1050.1801700000651;1050.1801700000651;1050.1961956000887;1050.1961956000887;1050.2370953001082;1050.2370953001082;None;None;0;1050.2370953001082;None;1051.7370278001763;None;None;1051.7370278001763;None;;;;;;;Emoconpilot031;2021_Nov_10_1210;BackwardMask;2020.2.8;120.08175149607206;
;m;013_y_m_n_a.jpg;neutral;8;28;f;028_y_f_n_a.jpg;neutral;congruent;8;mismatch;;140;170;;1;238;block2_Pilot_2;13;n_n;n_n_weak;;;;;0;1;1;1;0;28;28;28;;;;;;;;;1054.7373065000866;None;1056.7403782000765;1057.03012520005;1057.03012520005;1057.0381029001437;1057.0381029001437;1057.0788673001807;1057.0788673001807;None;None;0;1057.0788673001807;None;1058.5789110001642;None;None;1058.5789110001642;None;;;;;;;Emoconpilot031;2021_Nov_10_1210;BackwardMask;2020.2.8;120.08175149607206;
;f;030_o_f_s_a.jpg;sad;7;33;m;033_o_m_h_a.jpg;happy;incongruent;9;mismatch;;130;150;;3;168;block2_Pilot_2;30;s_h;s_h_weak;;;;;0;1;1;1;0;29;29;29;;;;;;;;;1061.5795375001617;None;1062.9977486000862;1063.2888813000172;1063.2888813000172;1063.3130843001418;1063.3130843001418;1063.35373660014;1063.35373660014;None;None;0;1063.35373660014;None;1064.8539840001613;None;None;1064.8539840001613;None;;;;;;;Emoconpilot031;2021_Nov_10_1210;BackwardMask;2020.2.8;120.08175149607206;
;m;008_y_m_n_a.jpg;neutral;8;12;f;012_o_f_n_a.jpg;neutral;congruent;8;mismatch;;140;170;;18;208;block2_Pilot_2;8;n_n;n_n_weak;;;;;0;1;1;1;0;30;30;30;;;;;;;;;1067.8541849001776;None;1069.6068756000604;1069.8969549001195;1069.8969549001195;1070.0466744001023;1070.0466744001023;1070.0874536000192;1070.0874536000192;None;None;0;1070.0874536000192;None;1071.587482900126;None;None;1071.587482900126;None;;;;;;;Emoconpilot031;2021_Nov_10_1210;BackwardMask;2020.2.8;120.08175149607206;
;m;008_y_m_s_a.jpg;sad;7;4;m;004_o_m_n_a.jpg;neutral;incongruent;8;match;;130;170;;2;231;block2_Pilot_2;8;s_n;s_n_weak;;;;;0;1;1;1;0;31;31;31;;;;;;;;;1074.587778000161;None;1076.5315490001813;1076.8221703001764;1076.8221703001764;1076.8388044000603;1076.8388044000603;1076.8793071000837;1076.8793071000837;None;None;0;1076.8793071000837;None;1078.379154600203;None;None;1078.379154600203;None;;;;;;;Emoconpilot031;2021_Nov_10_1210;BackwardMask;2020.2.8;120.08175149607206;
;m;016_y_m_n_a.jpg;neutral;8;28;f;028_y_f_n_a.jpg;neutral;congruent;8;mismatch;;140;170;;2;218;block2_Pilot_2;16;n_n;n_n_weak;;;;;0;1;1;1;0;32;32;32;;;;;;;;;1081.3794102000538;None;1083.2150571001694;1083.505861400161;1083.505861400161;1083.5218716000672;1083.5218716000672;1083.562719900161;1083.562719900161;None;None;0;1083.562719900161;None;1085.0626774001867;None;None;1085.0626774001867;None;;;;;;;Emoconpilot031;2021_Nov_10_1210;BackwardMask;2020.2.8;120.08175149607206;
;m;033_o_m_n_a.jpg;neutral;8;33;m;033_o_m_s_a.jpg;sad;incongruent;7;match;;140;160;;3;141;block2_Pilot_2;33;n_s;n_s_weak;;;;;0;1;1;1;0;33;33;33;;;;;;;;;1088.0628629000857;None;1089.2565391000826;1089.5477280002087;1089.5477280002087;1089.572057500016;1089.572057500016;1089.6129820002243;1089.6129820002243;None;None;0;1089.6129820002243;None;1091.1127610001713;None;None;1091.1127610001713;None;;;;;;;Emoconpilot031;2021_Nov_10_1210;BackwardMask;2020.2.8;120.08175149607206;
;m;016_y_m_n_a.jpg;neutral;8;13;m;013_y_m_s_a.jpg;sad;incongruent;7;match;;140;160;;1;238;block2_Pilot_2;16;n_s;n_s_weak;;;;;0;1;1;1;0;34;34;34;;;;;;;;;1094.1131703001447;None;1096.1157720000483;1096.4060160000809;1096.4060160000809;1096.4138752000872;1096.4138752000872;1096.4546919001732;1096.4546919001732;None;None;0;1096.4546919001732;None;1097.955031900201;None;None;1097.955031900201;None;;;;;;;Emoconpilot031;2021_Nov_10_1210;BackwardMask;2020.2.8;120.08175149607206;
;f;030_o_f_h_a.jpg;happy;9;12;f;012_o_f_n_a.jpg;neutral;incongruent;8;match;;120;170;;3;190;block2_Pilot_2;30;h_n;h_n_weak;;;;;0;1;1;1;0;35;35;35;;;;;;;;;1100.9549085001927;None;1102.55758100003;1102.8479270001408;1102.8479270001408;1102.8724548001774;1102.8724548001774;1102.913160600001;1102.913160600001;None;None;0;1102.913160600001;None;1104.4131476001348;None;None;1104.4131476001348;None;;;;;;;Emoconpilot031;2021_Nov_10_1210;BackwardMask;2020.2.8;120.08175149607206;
;f;030_o_f_s_a.jpg;sad;7;12;f;012_o_f_n_a.jpg;neutral;incongruent;8;match;;130;170;;3;197;block2_Pilot_2;30;s_n;s_n_strong;;;;;0;1;1;1;0;36;36;36;;;;;;;;;1107.4131998000666;None;1109.0751230001915;1109.3647542002145;1109.3647542002145;1109.3891212001909;1109.3891212001909;1109.4298571001273;1109.4298571001273;None;None;0;1109.4298571001273;None;1110.9299022001214;None;None;1110.9299022001214;None;;;;;;;Emoconpilot031;2021_Nov_10_1210;BackwardMask;2020.2.8;120.08175149607206;
;m;004_o_m_s_a.jpg;sad;7;8;m;008_y_m_h_a.jpg;happy;incongruent;9;match;;130;150;;3;201;block2_Pilot_2;4;s_h;s_h_strong;;;;;0;1;1;1;0;37;37;37;;;;;;;;;1113.9306113000493;None;1115.6131793002132;1115.9060587000567;1115.9060587000567;1115.9309885001276;1115.9309885001276;1115.9717426002026;1115.9717426002026;None;None;0;1115.9717426002026;None;1117.472654900048;None;None;1117.472654900048;None;;;;;;;Emoconpilot031;2021_Nov_10_1210;BackwardMask;2020.2.8;120.08175149607206;
;f;040_y_f_n_a.jpg;neutral;8;16;m;016_y_m_n_a.jpg;neutral;congruent;8;mismatch;;140;170;;3;198;block2_Pilot_2;40;n_n;n_n_strong;;;;;0;1;1;1;0;38;38;38;;;;;;;;;1120.4720062999986;None;1122.1560679001268;1122.448388100136;1122.448388100136;1122.4725623000413;1122.4725623000413;1122.5135994001757;1122.5135994001757;None;None;0;1122.5135994001757;None;1124.0135390001815;None;None;1124.0135390001815;None;;;;;;;Emoconpilot031;2021_Nov_10_1210;BackwardMask;2020.2.8;120.08175149607206;
;m;027_o_m_n_a.jpg;neutral;8;16;m;016_y_m_s_a.jpg;sad;incongruent;7;match;;140;160;;1;238;block2_Pilot_2;27;n_s;n_s_strong;;;;;0;1;1;1;0;39;39;39;;;;;;;;;1127.015580700012;None;1129.0171019001864;1129.3066546001937;1129.3066546001937;1129.3145081000403;1129.3145081000403;1129.355324300006;1129.355324300006;None;None;0;1129.355324300006;None;1130.855396100087;None;None;1130.855396100087;None;;;;;;;Emoconpilot031;2021_Nov_10_1210;BackwardMask;2020.2.8;120.08175149607206;
;m;033_o_m_n_a.jpg;neutral;8;40;f;040_y_f_h_a.jpg;happy;incongruent;9;mismatch;;140;150;;2;137;block2_Pilot_2;33;n_h;n_h_strong;;;;;0;1;1;1;0;40;40;40;;;;;;;;;1133.85611900012;None;1135.0156237001065;1135.3068084002007;1135.3068084002007;1135.3230151000898;1135.3230151000898;1135.363955100067;1135.363955100067;None;None;0;1135.363955100067;None;1136.8637634001207;None;None;1136.8637634001207;None;;;;;;;Emoconpilot031;2021_Nov_10_1210;BackwardMask;2020.2.8;120.08175149607206;
;m;004_o_m_s_a.jpg;sad;7;8;m;008_y_m_h_a.jpg;happy;incongruent;9;match;;130;150;;18;193;block2_Pilot_2;4;s_h;s_h_strong;;;;;0;1;1;1;0;41;41;41;;;;;;;;;1139.8639599001035;None;1141.4813298000954;1141.7733447002247;1141.7733447002247;1141.9231852001976;1141.9231852001976;1141.9639330001082;1141.9639330001082;None;None;0;1141.9639330001082;None;1143.4639813001268;None;None;1143.4639813001268;None;;;;;;;Emoconpilot031;2021_Nov_10_1210;BackwardMask;2020.2.8;120.08175149607206;
;f;012_o_f_h_a.jpg;happy;9;4;m;004_o_m_s_a.jpg;sad;incongruent;7;mismatch;;120;160;;3;198;block2_Pilot_2;12;h_s;h_s_weak;;;;;0;1;1;1;0;42;42;42;;;;;;;;;1146.4640864999965;None;1148.1221989002079;1148.4151607002132;1148.4151607002132;1148.4399755001068;1148.4399755001068;1148.4808337001596;1148.4808337001596;None;None;0;1148.4808337001596;None;1149.9808238002006;None;None;1149.9808238002006;None;;;;;;;Emoconpilot031;2021_Nov_10_1210;BackwardMask;2020.2.8;120.08175149607206;
;f;012_o_f_n_a.jpg;neutral;8;8;m;008_y_m_s_a.jpg;sad;incongruent;7;mismatch;;140;160;;1;238;block2_Pilot_2;12;n_s;n_s_strong;;;;;0;1;1;1;0;43;43;43;;;;;;;;;1152.980914800195;None;1154.9907426000573;1155.2823919001967;1155.2823919001967;1155.2899646000005;1155.2899646000005;1155.3309034002014;1155.3309034002014;None;None;0;1155.3309034002014;None;1156.8309045000933;None;None;1156.8309045000933;None;;;;;;;Emoconpilot031;2021_Nov_10_1210;BackwardMask;2020.2.8;120.08175149607206;
;f;040_y_f_n_a.jpg;neutral;8;8;m;008_y_m_n_a.jpg;neutral;congruent;8;mismatch;;140;170;;3;165;block2_Pilot_2;40;n_n;n_n_weak;;;;;0;1;1;1;0;44;44;44;;;;;;;;;1159.8311302000657;None;1161.226357900072;1161.5155920002144;1161.5155920002144;1161.5401799001265;1161.5401799001265;1161.5810279001016;1161.5810279001016;None;None;0;1161.5810279001016;None;1163.0812076001894;None;None;1163.0812076001894;None;;;;;;;Emoconpilot031;2021_Nov_10_1210;BackwardMask;2020.2.8;120.08175149607206;
;f;028_y_f_h_a.jpg;happy;9;33;m;033_o_m_n_a.jpg;neutral;incongruent;8;mismatch;;120;170;;1;238;block2_Pilot_2;28;h_n;h_n_strong;;;;;0;1;1;1;0;45;45;45;;;;;;;;;1166.0812458000146;None;1168.0750704000238;1168.365607000189;1168.365607000189;1168.3738517002203;1168.3738517002203;1168.4145558001474;1168.4145558001474;None;None;0;1168.4145558001474;None;1169.9144594999962;None;None;1169.9144594999962;None;;;;;;;Emoconpilot031;2021_Nov_10_1210;BackwardMask;2020.2.8;120.08175149607206;
;m;027_o_m_s_a.jpg;sad;7;19;f;019_m_f_n_a.jpg;neutral;incongruent;8;mismatch;;130;170;;2;236;block2_Pilot_2;27;s_n;s_n_weak;;;;;0;1;1;1;0;46;46;46;;;;;;;;;1172.9146819000598;None;1174.8892749000806;1175.1823045001365;1175.1823045001365;1175.198948000092;1175.198948000092;1175.2396747001912;1175.2396747001912;None;None;0;1175.2396747001912;None;1176.740036000032;None;None;1176.740036000032;None;;;;;;;Emoconpilot031;2021_Nov_10_1210;BackwardMask;2020.2.8;120.08175149607206;
;m;027_o_m_h_a.jpg;happy;9;19;f;019_m_f_s_a.jpg;sad;incongruent;7;mismatch;;120;160;;1;238;block2_Pilot_2;27;h_s;h_s_strong;;;;;0;1;1;1;0;47;47;47;;;;;;;;;1179.740210100077;None;1181.7693362000864;1182.0579896001145;1182.0579896001145;1182.0656751000788;1182.0656751000788;1182.106451800093;1182.106451800093;None;None;0;1182.106451800093;None;1183.6065711001866;None;None;1183.6065711001866;None;;;;;;;Emoconpilot031;2021_Nov_10_1210;BackwardMask;2020.2.8;120.08175149607206;
;m;016_y_m_h_a.jpg;happy;9;4;m;004_o_m_s_a.jpg;sad;incongruent;7;match;;120;160;;3;227;block2_Pilot_2;16;h_s;h_s_strong;;;;;0;1;1;1;0;48;48;48;;;;;;;;;1186.6071444000117;None;1188.5066535000224;1188.799222000176;1188.799222000176;1188.82405260019;1188.82405260019;1188.8649563000072;1188.8649563000072;None;None;0;1188.8649563000072;None;1190.3649414000101;None;None;1190.3649414000101;None;;;;;;;Emoconpilot031;2021_Nov_10_1210;BackwardMask;2020.2.8;120.08175149607206;
;f;040_y_f_h_a.jpg;happy;9;13;m;013_y_m_h_a.jpg;happy;congruent;9;mismatch;;120;150;;3;165;block2_Pilot_2;40;h_h;h_h_strong;;;;;0;1;1;1;0;49;49;49;;;;;;;;;1193.3655560000334;None;1194.7471361001953;1195.0410562001634;1195.0410562001634;1195.0658368000295;1195.0658368000295;1195.106707100058;1195.106707100058;None;None;0;1195.106707100058;None;1196.6077530002221;None;None;1196.6077530002221;None;;;;;;;Emoconpilot031;2021_Nov_10_1210;BackwardMask;2020.2.8;120.08175149607206;
;m;033_o_m_s_a.jpg;sad;7;28;f;028_y_f_n_a.jpg;neutral;incongruent;8;mismatch;;130;170;;2;227;block2_Pilot_2;33;s_n;s_n_weak;;;;;0;1;1;1;0;50;50;50;;;;;;;;;1199.6071133001242;None;1201.5058735001367;1201.7994552000891;1201.7994552000891;1201.815971300006;1201.815971300006;1201.8567517001648;1201.8567517001648;None;None;0;1201.8567517001648;None;1203.356984200189;None;None;1203.356984200189;None;;;;;;;Emoconpilot031;2021_Nov_10_1210;BackwardMask;2020.2.8;120.08175149607206;
;f;019_m_f_s_a.jpg;sad;7;27;m;027_o_m_h_a.jpg;happy;incongruent;9;mismatch;;130;150;;1;238;block2_Pilot_2;19;s_h;s_h_weak;;;;;0;1;1;1;0;51;51;51;;;;;;;;;1206.3570795000996;None;1208.3620825000107;1208.6582726000343;1208.6582726000343;1208.6661714999937;1208.6661714999937;1208.7069775001146;1208.7069775001146;None;None;0;1208.7069775001146;None;1210.2071351001505;None;None;1210.2071351001505;None;;;;;;;Emoconpilot031;2021_Nov_10_1210;BackwardMask;2020.2.8;120.08175149607206;
;m;016_y_m_h_a.jpg;happy;9;19;f;019_m_f_n_a.jpg;neutral;incongruent;8;mismatch;;120;170;;18;238;block2_Pilot_2;16;h_n;h_n_strong;;;;;0;1;1;1;0;52;52;52;;;;;;;;;1213.207835600013;None;1215.1986206001602;1215.491569200065;1215.491569200065;1215.6413275999948;1215.6413275999948;1215.682015400147;1215.682015400147;None;None;0;1215.682015400147;None;1217.1821277001873;None;None;1217.1821277001873;None;;;;;;;Emoconpilot031;2021_Nov_10_1210;BackwardMask;2020.2.8;120.08175149607206;
;f;021_o_f_s_a.jpg;sad;7;8;m;008_y_m_n_a.jpg;neutral;incongruent;8;mismatch;;130;170;;1;238;block2_Pilot_2;21;s_n;s_n_strong;;;;;0;1;1;1;0;53;53;53;;;;;;;;;1220.1821771000978;None;1222.1720141000114;1222.4667011001147;1222.4667011001147;1222.4748696000315;1222.4748696000315;1222.5155080000404;1222.5155080000404;None;None;0;1222.5155080000404;None;1224.0156642000657;None;None;1224.0156642000657;None;;;;;;;Emoconpilot031;2021_Nov_10_1210;BackwardMask;2020.2.8;120.08175149607206;
;f;012_o_f_s_a.jpg;sad;7;33;m;033_o_m_s_a.jpg;sad;congruent;7;mismatch;;130;160;;2;148;block2_Pilot_2;12;s_s;s_s_weak;;;;;0;1;1;1;0;54;54;54;;;;;;;;;1227.015713200206;None;1228.2531539001502;1228.5499580001924;1228.5499580001924;1228.5665441001765;1228.5665441001765;1228.6076489000116;1228.6076489000116;None;None;0;1228.6076489000116;None;1230.1074475001078;None;None;1230.1074475001078;None;;;;;;;Emoconpilot031;2021_Nov_10_1210;BackwardMask;2020.2.8;120.08175149607206;
;f;030_o_f_s_a.jpg;sad;7;40;f;040_y_f_s_a.jpg;sad;congruent;7;match;;130;160;;3;136;block2_Pilot_2;30;s_s;s_s_strong;;;;;0;1;1;1;0;55;55;55;;;;;;;;;1233.1075731001329;None;1234.2625947000924;1234.5591139001772;1234.5591139001772;1234.583391000051;1234.583391000051;1234.6242542001419;1234.6242542001419;None;None;0;1234.6242542001419;None;1236.1242022002116;None;None;1236.1242022002116;None;;;;;;;Emoconpilot031;2021_Nov_10_1210;BackwardMask;2020.2.8;120.08175149607206;
;m;027_o_m_s_a.jpg;sad;7;28;f;028_y_f_h_a.jpg;happy;incongruent;9;mismatch;;130;150;;1;238;block2_Pilot_2;27;s_h;s_h_weak;;;;;0;1;1;1;0;56;56;56;;;;;;;;;1239.1242249000352;None;1241.115970000159;1241.4086861000396;1241.4086861000396;1241.4167905000504;1241.4167905000504;1241.4576573001686;1241.4576573001686;None;None;0;1241.4576573001686;None;1242.957667300012;None;None;1242.957667300012;None;;;;;;;Emoconpilot031;2021_Nov_10_1210;BackwardMask;2020.2.8;120.08175149607206;
;m;004_o_m_n_a.jpg;neutral;8;8;m;008_y_m_s_a.jpg;sad;incongruent;7;match;;140;160;;3;225;block2_Pilot_2;4;n_s;n_s_strong;;;;;0;1;1;1;0;57;57;57;;;;;;;;;1245.957954700105;None;1247.8611447000876;1248.1508189002052;1248.1508189002052;1248.1753748001065;1248.1753748001065;1248.2161434001755;1248.2161434001755;None;None;0;1248.2161434001755;None;1249.7163094000425;None;None;1249.7163094000425;None;;;;;;;Emoconpilot031;2021_Nov_10_1210;BackwardMask;2020.2.8;120.08175149607206;
;f;012_o_f_s_a.jpg;sad;7;40;f;040_y_f_s_a.jpg;sad;congruent;7;match;;130;160;;1;238;block2_Pilot_2;12;s_s;s_s_strong;;;;;0;1;1;1;0;58;58;58;;;;;;;;;1252.7167717001867;None;1254.7032775001135;1255.000466400059;1255.000466400059;1255.0086688001174;1255.0086688001174;1255.0496798001695;1255.0496798001695;None;None;0;1255.0496798001695;None;1256.5499187000096;None;None;1256.5499187000096;None;;;;;;;Emoconpilot031;2021_Nov_10_1210;BackwardMask;2020.2.8;120.08175149607206;
;f;021_o_f_h_a.jpg;happy;9;4;m;004_o_m_n_a.jpg;neutral;incongruent;8;mismatch;;120;170;;1;238;block2_Pilot_2;21;h_n;h_n_weak;;;;;0;1;1;1;0;59;59;59;;;;;;;;;1259.54981090012;None;1261.5541408001445;1261.8428047001362;1261.8428047001362;1261.850620900048;1261.850620900048;1261.8913771000225;1261.8913771000225;None;None;0;1261.8913771000225;None;1263.3914211001247;None;None;1263.3914211001247;None;;;;;;;Emoconpilot031;2021_Nov_10_1210;BackwardMask;2020.2.8;120.08175149607206;
;f;040_y_f_h_a.jpg;happy;9;16;m;016_y_m_n_a.jpg;neutral;incongruent;8;mismatch;;120;170;;2;154;block2_Pilot_2;40;h_n;h_n_weak;;;;;0;1;1;1;0;60;60;60;;;;;;;;;1266.3917156001553;None;1267.6832053000107;1267.975977000082;1267.975977000082;1267.992398200091;1267.992398200091;1268.0331060001627;1268.0331060001627;None;None;0;1268.0331060001627;None;1269.5332845000084;None;None;1269.5332845000084;None;;;;;;;Emoconpilot031;2021_Nov_10_1210;BackwardMask;2020.2.8;120.08175149607206;
;m;008_y_m_n_a.jpg;neutral;8;4;m;004_o_m_s_a.jpg;sad;incongruent;7;match;;140;160;;18;145;block2_Pilot_2;8;n_s;n_s_strong;;;;;0;1;1;1;0;61;61;61;;;;;;;;;1272.5333975001704;None;1273.7659591000993;1274.0595846001524;1274.0595846001524;1274.209229500033;1274.209229500033;1274.2500255000778;1274.2500255000778;None;None;0;1274.2500255000778;None;1275.7500819000416;None;None;1275.7500819000416;None;;;;;;;Emoconpilot031;2021_Nov_10_1210;BackwardMask;2020.2.8;120.08175149607206;
;f;021_o_f_s_a.jpg;sad;7;33;m;033_o_m_h_a.jpg;happy;incongruent;9;mismatch;;130;150;;1;238;block2_Pilot_2;21;s_h;s_h_strong;;;;;0;1;1;1;0;62;62;62;;;;;;;;;1278.751088200137;None;1280.739968100097;1281.0346620001364;1281.0346620001364;1281.0426187000703;1281.0426187000703;1281.0835713001434;1281.0835713001434;None;None;0;1281.0835713001434;None;1282.5833942000754;None;None;1282.5833942000754;None;;;;;;;Emoconpilot031;2021_Nov_10_1210;BackwardMask;2020.2.8;120.08175149607206;
;m;033_o_m_n_a.jpg;neutral;8;30;f;030_o_f_h_a.jpg;happy;incongruent;9;mismatch;;140;150;;18;171;block2_Pilot_2;33;n_h;n_h_weak;;;;;0;1;1;1;0;63;63;63;;;;;;;;;1285.5835973001085;None;1287.0385021001566;1287.3351112999953;1287.3351112999953;1287.4843962001614;1287.4843962001614;1287.525311200181;1287.525311200181;None;None;0;1287.525311200181;None;1289.025905800052;None;None;1289.025905800052;None;;;;;;;Emoconpilot031;2021_Nov_10_1210;BackwardMask;2020.2.8;120.08175149607206;
;m;027_o_m_n_a.jpg;neutral;8;27;m;027_o_m_h_a.jpg;happy;incongruent;9;match;;140;150;;2;164;block2_Pilot_2;27;n_h;n_h_weak;;;;;0;1;1;1;0;64;64;64;;;;;;;;;1292.0256027001888;None;1293.410906500183;1293.701875400031;1293.701875400031;1293.7179258000106;1293.7179258000106;1293.758833100088;1293.758833100088;None;None;0;1293.758833100088;None;1295.2597158001736;None;None;1295.2597158001736;None;;;;;;;Emoconpilot031;2021_Nov_10_1210;BackwardMask;2020.2.8;120.08175149607206;
;m;008_y_m_n_a.jpg;neutral;8;40;f;040_y_f_n_a.jpg;neutral;congruent;8;mismatch;;140;170;;1;238;block2_Pilot_2;8;n_n;n_n_strong;;;;;0;1;1;1;0;65;65;65;;;;;;;;;1298.2590996001381;None;1300.2598559001926;1300.5518645001575;1300.5518645001575;1300.559546700213;1300.559546700213;1300.6005628001876;1300.6005628001876;None;None;0;1300.6005628001876;None;1302.1008752000052;None;None;1302.1008752000052;None;;;;;;;Emoconpilot031;2021_Nov_10_1210;BackwardMask;2020.2.8;120.08175149607206;
;f;040_y_f_h_a.jpg;happy;9;21;f;021_o_f_n_a.jpg;neutral;incongruent;8;match;;120;170;;18;239;block2_Pilot_2;40;h_n;h_n_strong;;;;;0;1;1;1;0;66;66;66;;;;;;;;;1305.100620600162;None;1307.100621300051;1307.393354000058;1307.393354000058;1307.5434522000141;1307.5434522000141;1307.584127300186;1307.584127300186;None;None;0;1307.584127300186;None;1309.0841177999973;None;None;1309.0841177999973;None;;;;;;;Emoconpilot031;2021_Nov_10_1210;BackwardMask;2020.2.8;120.08175149607206;
;f;021_o_f_s_a.jpg;sad;7;28;f;028_y_f_h_a.jpg;happy;incongruent;9;match;;130;150;;1;238;block2_Pilot_2;21;s_h;s_h_weak;;;;;0;1;1;1;0;67;67;67;;;;;;;;;1312.0841514000203;None;1314.0736454001162;1314.368467300199;1314.368467300199;1314.376555700088;1314.376555700088;1314.4175545000471;1314.4175545000471;None;None;0;1314.4175545000471;None;1315.9174794000573;None;None;1315.9174794000573;None;;;;;;;Emoconpilot031;2021_Nov_10_1210;BackwardMask;2020.2.8;120.08175149607206;
;f;021_o_f_n_a.jpg;neutral;8;30;f;030_o_f_n_a.jpg;neutral;congruent;8;match;;140;170;;2;209;block2_Pilot_2;21;n_n;n_n_strong;;;;;0;1;1;1;0;68;68;68;;;;;;;;;1318.9176379002165;None;1320.6983571001329;1320.9941839000676;1320.9941839000676;1321.0101080001332;1321.0101080001332;1321.0509468000382;1321.0509468000382;None;None;0;1321.0509468000382;None;1322.5509447001386;None;None;1322.5509447001386;None;;;;;;;Emoconpilot031;2021_Nov_10_1210;BackwardMask;2020.2.8;120.08175149607206;
;f;040_y_f_s_a.jpg;sad;7;13;m;013_y_m_s_a.jpg;sad;congruent;7;mismatch;;130;160;;3;147;block2_Pilot_2;40;s_s;s_s_strong;;;;;0;1;1;1;0;69;69;69;;;;;;;;;1325.5514328000136;None;1326.784904200118;1327.077184600057;1327.077184600057;1327.101981200045;1327.101981200045;1327.142645200016;1327.142645200016;None;None;0;1327.142645200016;None;1328.642810499994;None;None;1328.642810499994;None;;;;;;;Emoconpilot031;2021_Nov_10_1210;BackwardMask;2020.2.8;120.08175149607206;
;f;040_y_f_s_a.jpg;sad;7;21;f;021_o_f_h_a.jpg;happy;incongruent;9;match;;130;150;;3;172;block2_Pilot_2;40;s_h;s_h_strong;;;;;0;1;1;1;0;70;70;70;;;;;;;;;1331.64288030006;None;1333.0844717000145;1333.3771846001036;1333.3771846001036;1333.402107300004;1333.402107300004;1333.4429249002133;1333.4429249002133;None;None;0;1333.4429249002133;None;1334.9434610002209;None;None;1334.9434610002209;None;;;;;;;Emoconpilot031;2021_Nov_10_1210;BackwardMask;2020.2.8;120.08175149607206;
;m;013_y_m_s_a.jpg;sad;7;16;m;016_y_m_n_a.jpg;neutral;incongruent;8;match;;130;170;;1;238;block2_Pilot_2;13;s_n;s_n_strong;;;;;0;1;1;1;0;71;71;71;;;;;;;;;1337.9430231000297;None;1339.934808500111;1340.2272852000315;1340.2272852000315;1340.235541000031;1340.235541000031;1340.2763583001215;1340.2763583001215;None;None;0;1340.2763583001215;None;1341.7763560002204;None;None;1341.7763560002204;None;;;;;;;Emoconpilot031;2021_Nov_10_1210;BackwardMask;2020.2.8;120.08175149607206;
;m;008_y_m_s_a.jpg;sad;7;12;f;012_o_f_h_a.jpg;happy;incongruent;9;mismatch;;130;150;;18;238;block2_Pilot_2;8;s_h;s_h_weak;;;;;0;1;1;1;0;72;72;72;;;;;;;;;1344.7766945001204;None;1346.7816118001938;1347.07790750009;1347.07790750009;1347.2273460000288;1347.2273460000288;1347.2681042000186;1347.2681042000186;None;None;0;1347.2681042000186;None;1348.769038400147;None;None;1348.769038400147;None;;;;;;;Emoconpilot031;2021_Nov_10_1210;BackwardMask;2020.2.8;120.08175149607206;
;m;013_y_m_s_a.jpg;sad;7;21;f;021_o_f_n_a.jpg;neutral;incongruent;8;mismatch;;130;170;;1;238;block2_Pilot_2;13;s_n;s_n_weak;;;;;0;1;1;1;0;73;73;73;;;;;;;;;1351.7683509001508;None;1353.759513700148;1354.0526833001059;1354.0526833001059;1354.0607939001638;1354.0607939001638;1354.1017838001717;1354.1017838001717;None;None;0;1354.1017838001717;None;1355.6017322000116;None;None;1355.6017322000116;None;;;;;;;Emoconpilot031;2021_Nov_10_1210;BackwardMask;2020.2.8;120.08175149607206;
;f;019_m_f_s_a.jpg;sad;7;12;f;012_o_f_n_a.jpg;neutral;incongruent;8;match;;130;170;;2;208;block2_Pilot_2;19;s_n;s_n_weak;;;;;0;1;1;1;0;74;74;74;;;;;;;;;1358.6017851000652;None;1360.355751400115;1360.6448481001426;1360.6448481001426;1360.6610630000941;1360.6610630000941;1360.701889600139;1360.701889600139;None;None;0;1360.701889600139;None;1362.2018847002182;None;None;1362.2018847002182;None;;;;;;;Emoconpilot031;2021_Nov_10_1210;BackwardMask;2020.2.8;120.08175149607206;
;m;016_y_m_s_a.jpg;sad;7;19;f;019_m_f_n_a.jpg;neutral;incongruent;8;mismatch;;130;170;;18;238;block2_Pilot_2;16;s_n;s_n_strong;;;;;0;1;1;1;0;75;75;75;;;;;;;;;1365.2019049001392;None;1367.192992700031;1367.4864270000253;1367.4864270000253;1367.6359911002219;1367.6359911002219;1367.677004700061;1367.677004700061;None;None;0;1367.677004700061;None;1369.1770119001158;None;None;1369.1770119001158;None;;;;;;;Emoconpilot031;2021_Nov_10_1210;BackwardMask;2020.2.8;120.08175149607206;
;f;040_y_f_n_a.jpg;neutral;8;27;m;027_o_m_s_a.jpg;sad;incongruent;7;mismatch;;140;160;;1;238;block2_Pilot_2;40;n_s;n_s_weak;;;;;0;1;1;1;0;76;76;76;;;;;;;;;1372.1770752000157;None;1374.182053600205;1374.478361000074;1374.478361000074;1374.4861335000023;1374.4861335000023;1374.527134500211;1374.527134500211;None;None;0;1374.527134500211;None;1376.0272010001354;None;None;1376.0272010001354;None;;;;;;;Emoconpilot031;2021_Nov_10_1210;BackwardMask;2020.2.8;120.08175149607206;
;m;016_y_m_h_a.jpg;happy;9;30;f;030_o_f_n_a.jpg;neutral;incongruent;8;mismatch;;120;170;;2;215;block2_Pilot_2;16;h_n;h_n_weak;;;;;0;1;1;1;0;77;77;77;;;;;;;;;1379.027849300066;None;1380.8270711000077;1381.1198202001397;1381.1198202001397;1381.1365132001229;1381.1365132001229;1381.1772710001096;1381.1772710001096;None;None;0;1381.1772710001096;None;1382.6773374001496;None;None;1382.6773374001496;None;;;;;;;Emoconpilot031;2021_Nov_10_1210;BackwardMask;2020.2.8;120.08175149607206;
;m;013_y_m_h_a.jpg;happy;9;28;f;028_y_f_n_a.jpg;neutral;incongruent;8;mismatch;;120;170;;18;191;block2_Pilot_2;13;h_n;h_n_weak;;;;;0;1;1;1;0;78;78;78;;;;;;;;;1385.6775014000013;None;1387.298932300182;1387.5951548002195;1387.5951548002195;1387.7448221000377;1387.7448221000377;1387.7857463001274;1387.7857463001274;None;None;0;1387.7857463001274;None;1389.2856048000976;None;None;1389.2856048000976;None;;;;;;;Emoconpilot031;2021_Nov_10_1210;BackwardMask;2020.2.8;120.08175149607206;
;m;008_y_m_n_a.jpg;neutral;8;8;m;008_y_m_h_a.jpg;happy;incongruent;9;match;;140;150;;3;228;block2_Pilot_2;8;n_h;n_h_weak;;;;;0;1;1;1;0;79;79;79;;;;;;;;;1392.2859937001485;None;1394.2044232001062;1394.495603500167;1394.495603500167;1394.520051700063;1394.520051700063;1394.560589700006;1394.560589700006;None;None;0;1394.560589700006;None;1396.0609610001557;None;None;1396.0609610001557;None;;;;;;;Emoconpilot031;2021_Nov_10_1210;BackwardMask;2020.2.8;120.08175149607206;
;m;016_y_m_h_a.jpg;happy;9;13;m;013_y_m_s_a.jpg;sad;incongruent;7;match;;120;160;;1;238;block2_Pilot_2;16;h_s;h_s_weak;;;;;0;1;1;1;0;80;80;80;;;;;;;;;1399.061077499995;None;1401.052222700091;1401.3454456001054;1401.3454456001054;1401.3534206000622;1401.3534206000622;1401.394322300097;1401.394322300097;None;None;0;1401.394322300097;None;1402.8944687000476;None;None;1402.8944687000476;None;;;;;;;Emoconpilot031;2021_Nov_10_1210;BackwardMask;2020.2.8;120.08175149607206;
;m;027_o_m_s_a.jpg;sad;7;40;f;040_y_f_h_a.jpg;happy;incongruent;9;mismatch;;130;150;;18;238;block2_Pilot_2;27;s_h;s_h_strong;;;;;0;1;1;1;0;81;81;81;;;;;;;;;1405.8946545000654;None;1407.8860023000743;1408.1788671000395;1408.1788671000395;1408.328586900141;1408.328586900141;1408.3693422002252;1408.3693422002252;None;None;0;1408.3693422002252;None;1409.8695037001744;None;None;1409.8695037001744;None;;;;;;;Emoconpilot031;2021_Nov_10_1210;BackwardMask;2020.2.8;120.08175149607206;
;f;019_m_f_n_a.jpg;neutral;8;28;f;028_y_f_h_a.jpg;happy;incongruent;9;match;;140;150;;18;159;block2_Pilot_2;19;n_h;n_h_strong;;;;;0;1;1;1;0;82;82;82;;;;;;;;;1412.869939000113;None;1414.2245849000756;1414.5208564000204;1414.5208564000204;1414.6703881002031;1414.6703881002031;1414.7111248001456;1414.7111248001456;None;None;0;1414.7111248001456;None;1416.2118336001877;None;None;1416.2118336001877;None;;;;;;;Emoconpilot031;2021_Nov_10_1210;BackwardMask;2020.2.8;120.08175149607206;
;m;013_y_m_n_a.jpg;neutral;8;4;m;004_o_m_n_a.jpg;neutral;congruent;8;match;;140;170;;1;238;block2_Pilot_2;13;n_n;n_n_strong;;;;;0;1;1;1;0;83;83;83;;;;;;;;;1419.2116882000118;None;1421.2140517001972;1421.504382000072;1421.504382000072;1421.5121994002257;1421.5121994002257;1421.5530813001096;1421.5530813001096;None;None;0;1421.5530813001096;None;1423.0529924000148;None;None;1423.0529924000148;None;;;;;;;Emoconpilot031;2021_Nov_10_1210;BackwardMask;2020.2.8;120.08175149607206;
;f;040_y_f_s_a.jpg;sad;7;33;m;033_o_m_s_a.jpg;sad;congruent;7;mismatch;;130;160;;2;130;block2_Pilot_2;40;s_s;s_s_weak;;;;;0;1;1;1;0;84;84;84;;;;;;;;;1426.0532201000024;None;1427.1439927001484;1427.4375245000701;1427.4375245000701;1427.453846000135;1427.453846000135;1427.494933700189;1427.494933700189;None;None;0;1427.494933700189;None;1428.995252800174;None;None;1428.995252800174;None;;;;;;;Emoconpilot031;2021_Nov_10_1210;BackwardMask;2020.2.8;120.08175149607206;
