,subj_idx,rt,correct,response,stim,level,real_trial_number,trial,block,conditions
,EmoCon002,0.8826545000001715,1.0,neutral,neutral,8ms,246.0,5.0,3.0,8ms_neutral
,EmoCon002,0.615014599999995,1.0,neutral,neutral,8ms,247.0,6.0,3.0,8ms_neutral
,EmoCon002,0.546028600000227,1.0,neutral,neutral,8ms,248.0,7.0,3.0,8ms_neutral
,EmoCon002,1.1777773000003435,0.0,happy,neutral,8ms,253.0,12.0,3.0,8ms_neutral
,EmoCon002,1.2551963999999316,0.0,sad,happy,8ms,256.0,15.0,3.0,8ms_happy
,EmoCon002,0.8642994000001636,1.0,sad,sad,8ms,259.0,18.0,3.0,8ms_sad
,EmoCon002,0.8107829000000493,1.0,neutral,neutral,8ms,261.0,20.0,3.0,8ms_neutral
,EmoCon002,0.8897148999999445,0.0,neutral,sad,8ms,262.0,21.0,3.0,8ms_sad
,EmoCon002,0.6826510000000781,1.0,happy,happy,8ms,264.0,23.0,3.0,8ms_happy
,EmoCon002,0.8132037999998829,1.0,happy,happy,8ms,266.0,25.0,3.0,8ms_happy
,EmoCon002,1.0264400000000933,1.0,neutral,neutral,8ms,268.0,27.0,3.0,8ms_neutral
,EmoCon002,0.6176117999998496,0.0,neutral,happy,8ms,269.0,28.0,3.0,8ms_happy
,EmoCon002,0.7040600999998787,1.0,neutral,neutral,8ms,270.0,29.0,3.0,8ms_neutral
,EmoCon002,0.8327222999996593,0.0,neutral,sad,8ms,272.0,31.0,3.0,8ms_sad
,EmoCon002,0.6284141999999521,0.0,neutral,sad,8ms,273.0,32.0,3.0,8ms_sad
,EmoCon002,0.9285878000000594,1.0,sad,sad,8ms,274.0,33.0,3.0,8ms_sad
,EmoCon002,0.6657230999999229,0.0,sad,neutral,8ms,275.0,34.0,3.0,8ms_neutral
,EmoCon002,1.0260424999996758,0.0,sad,neutral,8ms,279.0,38.0,3.0,8ms_neutral
,EmoCon002,1.11864659999992,0.0,happy,neutral,8ms,281.0,40.0,3.0,8ms_neutral
,EmoCon002,0.6917511999999988,1.0,happy,happy,8ms,282.0,41.0,3.0,8ms_happy
,EmoCon002,0.7826614000000518,1.0,happy,happy,8ms,285.0,44.0,3.0,8ms_happy
,EmoCon002,0.7320859999999811,0.0,neutral,sad,8ms,288.0,47.0,3.0,8ms_sad
,EmoCon002,0.7864205999999285,0.0,sad,happy,8ms,290.0,49.0,3.0,8ms_happy
,EmoCon002,0.7164372000002004,0.0,neutral,happy,8ms,292.0,51.0,3.0,8ms_happy
,EmoCon002,0.6678735999998935,0.0,sad,neutral,8ms,294.0,53.0,3.0,8ms_neutral
,EmoCon002,0.6146929000001364,1.0,sad,sad,8ms,295.0,54.0,3.0,8ms_sad
,EmoCon002,0.6431075000000419,0.0,neutral,happy,8ms,299.0,58.0,3.0,8ms_happy
,EmoCon002,0.7883995999995932,0.0,sad,happy,8ms,302.0,61.0,3.0,8ms_happy
,EmoCon002,0.8097387999996499,0.0,neutral,sad,8ms,306.0,65.0,3.0,8ms_sad
,EmoCon002,0.8566365000001497,0.0,sad,neutral,8ms,309.0,68.0,3.0,8ms_neutral
,EmoCon002,1.1179508999998689,1.0,neutral,neutral,8ms,310.0,69.0,3.0,8ms_neutral
,EmoCon002,0.5882947000000058,0.0,happy,neutral,8ms,312.0,71.0,3.0,8ms_neutral
,EmoCon002,0.6003872000001138,1.0,happy,happy,8ms,315.0,74.0,3.0,8ms_happy
,EmoCon002,0.6489840999997796,1.0,neutral,neutral,8ms,316.0,75.0,3.0,8ms_neutral
,EmoCon002,0.6435566999998628,1.0,happy,happy,8ms,317.0,76.0,3.0,8ms_happy
,EmoCon002,0.5777088999998341,1.0,happy,happy,8ms,318.0,77.0,3.0,8ms_happy
,EmoCon002,0.8039119999998547,0.0,sad,happy,8ms,320.0,79.0,3.0,8ms_happy
,EmoCon002,0.4771252000000459,0.0,neutral,sad,8ms,321.0,80.0,3.0,8ms_sad
,EmoCon002,0.6437501000000339,1.0,happy,happy,8ms,326.0,85.0,3.0,8ms_happy
,EmoCon002,0.5289366000001792,0.0,happy,sad,8ms,327.0,86.0,3.0,8ms_sad
,EmoCon002,0.5719555000000582,0.0,happy,sad,8ms,328.0,87.0,3.0,8ms_sad
,EmoCon002,0.8875441000000137,1.0,sad,sad,8ms,330.0,89.0,3.0,8ms_sad
,EmoCon002,0.5880445999996482,0.0,sad,happy,8ms,333.0,92.0,3.0,8ms_happy
,EmoCon002,0.7805204999999659,1.0,neutral,neutral,8ms,334.0,93.0,3.0,8ms_neutral
,EmoCon002,0.6678883999998106,0.0,neutral,sad,8ms,336.0,95.0,3.0,8ms_sad
,EmoCon002,0.6429315000000315,0.0,neutral,sad,8ms,337.0,96.0,3.0,8ms_sad
,EmoCon002,0.8718905999999151,1.0,neutral,neutral,8ms,338.0,97.0,3.0,8ms_neutral
,EmoCon002,0.9433671000001596,0.0,neutral,sad,8ms,343.0,102.0,3.0,8ms_sad
,EmoCon002,0.5141664999996465,0.0,happy,neutral,8ms,345.0,104.0,3.0,8ms_neutral
,EmoCon002,0.6356513999999152,0.0,happy,neutral,8ms,347.0,106.0,3.0,8ms_neutral
,EmoCon002,0.49898050000001604,0.0,happy,sad,8ms,348.0,107.0,3.0,8ms_sad
,EmoCon002,0.5364104000000225,0.0,neutral,sad,8ms,350.0,109.0,3.0,8ms_sad
,EmoCon002,0.5076576000001296,1.0,neutral,neutral,8ms,351.0,110.0,3.0,8ms_neutral
,EmoCon002,0.5423135000000912,0.0,neutral,happy,8ms,352.0,111.0,3.0,8ms_happy
,EmoCon002,1.0655569999998988,0.0,sad,neutral,8ms,355.0,114.0,3.0,8ms_neutral
,EmoCon002,0.5850673000004463,1.0,sad,sad,8ms,356.0,115.0,3.0,8ms_sad
,EmoCon002,0.4669337000000269,1.0,sad,sad,8ms,357.0,116.0,3.0,8ms_sad
,EmoCon002,0.5200399999998808,1.0,sad,sad,8ms,358.0,117.0,3.0,8ms_sad
,EmoCon002,0.5752435999997942,0.0,neutral,happy,8ms,360.0,119.0,3.0,8ms_happy
,EmoCon002,0.6474788000000444,1.0,sad,sad,16ms,124.0,3.0,2.0,16ms_sad
,EmoCon002,0.6569954000001417,1.0,neutral,neutral,16ms,126.0,5.0,2.0,16ms_neutral
,EmoCon002,0.9998219000001428,1.0,sad,sad,16ms,127.0,6.0,2.0,16ms_sad
,EmoCon002,0.7258332000001246,1.0,neutral,neutral,16ms,128.0,7.0,2.0,16ms_neutral
,EmoCon002,1.2279661999998552,0.0,neutral,sad,16ms,130.0,9.0,2.0,16ms_sad
,EmoCon002,0.7703196000002208,1.0,neutral,neutral,16ms,132.0,11.0,2.0,16ms_neutral
,EmoCon002,0.7671298999998726,0.0,happy,sad,16ms,133.0,12.0,2.0,16ms_sad
,EmoCon002,0.5122592000000168,1.0,happy,happy,16ms,135.0,14.0,2.0,16ms_happy
,EmoCon002,1.3863940999999609,0.0,happy,neutral,16ms,136.0,15.0,2.0,16ms_neutral
,EmoCon002,0.8297291999999743,1.0,happy,happy,16ms,141.0,20.0,2.0,16ms_happy
,EmoCon002,0.5963216000000102,1.0,happy,happy,16ms,142.0,21.0,2.0,16ms_happy
,EmoCon002,0.5614201999997022,1.0,happy,happy,16ms,148.0,27.0,2.0,16ms_happy
,EmoCon002,0.9004304000000047,0.0,happy,sad,16ms,149.0,28.0,2.0,16ms_sad
,EmoCon002,0.8109713000003467,0.0,happy,sad,16ms,154.0,33.0,2.0,16ms_sad
,EmoCon002,0.6669394000000466,0.0,happy,neutral,16ms,158.0,37.0,2.0,16ms_neutral
,EmoCon002,0.5341640999999981,1.0,happy,happy,16ms,161.0,40.0,2.0,16ms_happy
,EmoCon002,0.6376906999998937,1.0,neutral,neutral,16ms,162.0,41.0,2.0,16ms_neutral
,EmoCon002,0.7981557999996767,1.0,happy,happy,16ms,168.0,47.0,2.0,16ms_happy
,EmoCon002,0.7626408000000993,1.0,neutral,neutral,16ms,169.0,48.0,2.0,16ms_neutral
,EmoCon002,0.8174085999999079,1.0,happy,happy,16ms,170.0,49.0,2.0,16ms_happy
,EmoCon002,0.5876726999999846,1.0,happy,happy,16ms,171.0,50.0,2.0,16ms_happy
,EmoCon002,0.8357014999996863,0.0,happy,neutral,16ms,172.0,51.0,2.0,16ms_neutral
,EmoCon002,1.2669986999999308,1.0,neutral,neutral,16ms,179.0,58.0,2.0,16ms_neutral
,EmoCon002,0.8839497999997548,1.0,sad,sad,16ms,182.0,61.0,2.0,16ms_sad
,EmoCon002,0.731354100000317,0.0,neutral,happy,16ms,185.0,64.0,2.0,16ms_happy
,EmoCon002,1.1021236000001409,1.0,happy,happy,16ms,188.0,67.0,2.0,16ms_happy
,EmoCon002,1.0763354999999135,1.0,neutral,neutral,16ms,190.0,69.0,2.0,16ms_neutral
,EmoCon002,0.6709362999999939,0.0,happy,neutral,16ms,193.0,72.0,2.0,16ms_neutral
,EmoCon002,0.7343605000000935,1.0,sad,sad,16ms,194.0,73.0,2.0,16ms_sad
,EmoCon002,0.954095000000052,1.0,sad,sad,16ms,196.0,75.0,2.0,16ms_sad
,EmoCon002,1.3396586999997453,0.0,happy,sad,16ms,198.0,77.0,2.0,16ms_sad
,EmoCon002,0.6237237000000277,1.0,happy,happy,16ms,202.0,81.0,2.0,16ms_happy
,EmoCon002,1.0081612000003588,1.0,happy,happy,16ms,203.0,82.0,2.0,16ms_happy
,EmoCon002,0.5808524000003672,1.0,happy,happy,16ms,204.0,83.0,2.0,16ms_happy
,EmoCon002,0.8847654000001057,1.0,neutral,neutral,16ms,205.0,84.0,2.0,16ms_neutral
,EmoCon002,0.6895872999998574,1.0,happy,happy,16ms,210.0,89.0,2.0,16ms_happy
,EmoCon002,0.5161788999998862,1.0,happy,happy,16ms,211.0,90.0,2.0,16ms_happy
,EmoCon002,0.9998441000002458,0.0,happy,sad,16ms,212.0,91.0,2.0,16ms_sad
,EmoCon002,0.8504421999996339,0.0,neutral,sad,16ms,215.0,94.0,2.0,16ms_sad
,EmoCon002,0.7309753999998065,1.0,happy,happy,16ms,222.0,101.0,2.0,16ms_happy
,EmoCon002,0.8678401000001941,0.0,happy,sad,16ms,223.0,102.0,2.0,16ms_sad
,EmoCon002,1.0251959000001991,1.0,neutral,neutral,16ms,224.0,103.0,2.0,16ms_neutral
,EmoCon002,0.5171732000003431,1.0,happy,happy,16ms,225.0,104.0,2.0,16ms_happy
,EmoCon002,0.7653385000003254,1.0,neutral,neutral,16ms,226.0,105.0,2.0,16ms_neutral
,EmoCon002,0.8912700999999288,1.0,sad,sad,16ms,227.0,106.0,2.0,16ms_sad
,EmoCon002,0.6030037000000448,1.0,happy,happy,16ms,228.0,107.0,2.0,16ms_happy
,EmoCon002,0.7392067000000679,0.0,happy,sad,16ms,229.0,108.0,2.0,16ms_sad
,EmoCon002,0.5975816000000123,0.0,happy,sad,16ms,230.0,109.0,2.0,16ms_sad
,EmoCon002,0.5630874000003132,1.0,happy,happy,16ms,231.0,110.0,2.0,16ms_happy
,EmoCon002,0.7322982999999113,0.0,happy,neutral,16ms,232.0,111.0,2.0,16ms_neutral
,EmoCon002,1.077185399999962,0.0,neutral,sad,16ms,233.0,112.0,2.0,16ms_sad
,EmoCon002,1.004580100000112,0.0,neutral,sad,16ms,235.0,114.0,2.0,16ms_sad
,EmoCon002,0.6849966999998287,1.0,happy,happy,16ms,236.0,115.0,2.0,16ms_happy
,EmoCon002,1.0835971999999856,0.0,happy,neutral,16ms,237.0,116.0,2.0,16ms_neutral
,EmoCon002,0.8698655000002873,1.0,neutral,neutral,16ms,238.0,117.0,2.0,16ms_neutral
,EmoCon002,0.553945599999679,0.0,happy,sad,16ms,240.0,119.0,2.0,16ms_sad
,EmoCon002,1.3977548000000295,1.0,neutral,neutral,25ms,2.0,1.0,1.0,25ms_neutral
,EmoCon002,1.2603423000000475,1.0,sad,sad,25ms,5.0,4.0,1.0,25ms_sad
,EmoCon002,0.6056467000000794,1.0,neutral,neutral,25ms,7.0,6.0,1.0,25ms_neutral
,EmoCon002,1.111972700000024,1.0,neutral,neutral,25ms,13.0,12.0,1.0,25ms_neutral
,EmoCon002,0.704128800000035,1.0,happy,happy,25ms,19.0,18.0,1.0,25ms_happy
,EmoCon002,0.4863158999999087,1.0,happy,happy,25ms,21.0,20.0,1.0,25ms_happy
,EmoCon002,0.5776611999999659,1.0,sad,sad,25ms,22.0,21.0,1.0,25ms_sad
,EmoCon002,0.6925760000001446,1.0,neutral,neutral,25ms,31.0,30.0,1.0,25ms_neutral
,EmoCon002,0.7430798000000323,1.0,neutral,neutral,25ms,35.0,34.0,1.0,25ms_neutral
,EmoCon002,0.6338407000000643,1.0,happy,happy,25ms,36.0,35.0,1.0,25ms_happy
,EmoCon002,1.0812794999999369,1.0,sad,sad,25ms,37.0,36.0,1.0,25ms_sad
,EmoCon002,0.5319455999999718,1.0,neutral,neutral,25ms,40.0,39.0,1.0,25ms_neutral
,EmoCon002,0.6626297000000251,1.0,sad,sad,25ms,46.0,45.0,1.0,25ms_sad
,EmoCon002,1.1087735000000976,1.0,neutral,neutral,25ms,47.0,46.0,1.0,25ms_neutral
,EmoCon002,0.8286656000000221,1.0,neutral,neutral,25ms,49.0,48.0,1.0,25ms_neutral
,EmoCon002,0.6559861000000637,1.0,neutral,neutral,25ms,50.0,49.0,1.0,25ms_neutral
,EmoCon002,0.9213801999999304,1.0,neutral,neutral,25ms,52.0,51.0,1.0,25ms_neutral
,EmoCon002,0.5756569999998646,1.0,neutral,neutral,25ms,53.0,52.0,1.0,25ms_neutral
,EmoCon002,0.8662724000000708,1.0,happy,happy,25ms,54.0,53.0,1.0,25ms_happy
,EmoCon002,0.605699500000128,1.0,neutral,neutral,25ms,56.0,55.0,1.0,25ms_neutral
,EmoCon002,0.7791408000000501,1.0,neutral,neutral,25ms,58.0,57.0,1.0,25ms_neutral
,EmoCon002,0.6931870999999319,1.0,neutral,neutral,25ms,59.0,58.0,1.0,25ms_neutral
,EmoCon002,0.8943484999999782,1.0,sad,sad,25ms,61.0,60.0,1.0,25ms_sad
,EmoCon002,0.5660456000000522,1.0,happy,happy,25ms,67.0,66.0,1.0,25ms_happy
,EmoCon002,0.6307636999999886,1.0,happy,happy,25ms,73.0,72.0,1.0,25ms_happy
,EmoCon002,0.5825485999998818,1.0,sad,sad,25ms,74.0,73.0,1.0,25ms_sad
,EmoCon002,0.6259333000000424,1.0,sad,sad,25ms,76.0,75.0,1.0,25ms_sad
,EmoCon002,0.7816012000000683,0.0,sad,neutral,25ms,77.0,76.0,1.0,25ms_neutral
,EmoCon002,0.8062264000000141,1.0,neutral,neutral,25ms,87.0,86.0,1.0,25ms_neutral
,EmoCon002,0.5219403999999486,1.0,happy,happy,25ms,88.0,87.0,1.0,25ms_happy
,EmoCon002,0.7099439000000984,0.0,neutral,sad,25ms,89.0,88.0,1.0,25ms_sad
,EmoCon002,1.1886715999999071,0.0,sad,neutral,25ms,92.0,91.0,1.0,25ms_neutral
,EmoCon002,0.6387114999999994,1.0,sad,sad,25ms,95.0,94.0,1.0,25ms_sad
,EmoCon002,0.8033756999998332,1.0,neutral,neutral,25ms,97.0,96.0,1.0,25ms_neutral
,EmoCon002,1.0274880999998004,1.0,sad,sad,141ms,17.0,16.0,1.0,141ms_sad
,EmoCon002,0.33342439999978524,1.0,happy,happy,141ms,25.0,24.0,1.0,141ms_happy
,EmoCon002,0.5087929999999687,1.0,happy,happy,141ms,27.0,26.0,1.0,141ms_happy
,EmoCon002,0.8495442999999341,1.0,sad,sad,141ms,39.0,38.0,1.0,141ms_sad
,EmoCon002,0.7668888000000607,1.0,sad,sad,141ms,41.0,40.0,1.0,141ms_sad
,EmoCon002,0.3972077999999328,1.0,happy,happy,141ms,43.0,42.0,1.0,141ms_happy
,EmoCon002,1.0086679000000909,1.0,sad,sad,141ms,44.0,43.0,1.0,141ms_sad
,EmoCon002,0.4113724999999704,1.0,happy,happy,141ms,45.0,44.0,1.0,141ms_happy
,EmoCon002,0.38918710000007206,1.0,happy,happy,141ms,51.0,50.0,1.0,141ms_happy
,EmoCon002,0.3786360999999943,1.0,happy,happy,141ms,57.0,56.0,1.0,141ms_happy
,EmoCon002,0.5508285000000797,1.0,happy,happy,141ms,63.0,62.0,1.0,141ms_happy
,EmoCon002,0.7090679999998883,1.0,sad,sad,141ms,70.0,69.0,1.0,141ms_sad
,EmoCon002,0.4874718000000939,1.0,happy,happy,141ms,71.0,70.0,1.0,141ms_happy
,EmoCon002,0.6349555000001601,1.0,sad,sad,141ms,80.0,79.0,1.0,141ms_sad
,EmoCon002,1.2230125999999473,1.0,sad,sad,141ms,81.0,80.0,1.0,141ms_sad
,EmoCon002,0.4741355999999541,0.0,neutral,sad,141ms,90.0,89.0,1.0,141ms_sad
,EmoCon002,0.6386185000001205,1.0,sad,sad,141ms,93.0,92.0,1.0,141ms_sad
,EmoCon002,1.0700480999998945,1.0,sad,sad,141ms,100.0,99.0,1.0,141ms_sad
,EmoCon002,0.3898477999998704,1.0,happy,happy,141ms,106.0,105.0,1.0,141ms_happy
,EmoCon002,0.8009041000000252,1.0,sad,sad,141ms,109.0,108.0,1.0,141ms_sad
,EmoCon002,0.7655272000001787,1.0,sad,sad,141ms,111.0,110.0,1.0,141ms_sad
,EmoCon002,0.7955575999999382,1.0,sad,sad,141ms,121.0,0.0,2.0,141ms_sad
,EmoCon002,0.924510699999928,1.0,sad,sad,141ms,129.0,8.0,2.0,141ms_sad
,EmoCon002,0.3676138000000719,1.0,happy,happy,141ms,134.0,13.0,2.0,141ms_happy
,EmoCon002,1.2476246000001083,1.0,sad,sad,141ms,139.0,18.0,2.0,141ms_sad
,EmoCon002,0.616438799999969,1.0,happy,happy,141ms,140.0,19.0,2.0,141ms_happy
,EmoCon002,1.4162690999999086,1.0,sad,sad,141ms,143.0,22.0,2.0,141ms_sad
,EmoCon002,0.4125878999998349,1.0,happy,happy,141ms,146.0,25.0,2.0,141ms_happy
,EmoCon002,0.35660680000000866,1.0,happy,happy,141ms,151.0,30.0,2.0,141ms_happy
,EmoCon002,0.6993102999999792,1.0,happy,happy,141ms,156.0,35.0,2.0,141ms_happy
,EmoCon002,0.3753301000001557,1.0,happy,happy,141ms,160.0,39.0,2.0,141ms_happy
,EmoCon002,0.4471350999997412,1.0,happy,happy,141ms,163.0,42.0,2.0,141ms_happy
,EmoCon002,0.3826903999997739,0.0,neutral,sad,141ms,165.0,44.0,2.0,141ms_sad
,EmoCon002,0.3571955999996135,1.0,happy,happy,141ms,173.0,52.0,2.0,141ms_happy
,EmoCon002,0.296604600000137,1.0,happy,happy,141ms,174.0,53.0,2.0,141ms_happy
,EmoCon002,0.2973253000000113,1.0,happy,happy,141ms,175.0,54.0,2.0,141ms_happy
,EmoCon002,0.2930634999997892,1.0,happy,happy,141ms,176.0,55.0,2.0,141ms_happy
,EmoCon002,0.4966887999999017,1.0,sad,sad,141ms,178.0,57.0,2.0,141ms_sad
,EmoCon002,1.0725862999997844,1.0,sad,sad,141ms,184.0,63.0,2.0,141ms_sad
,EmoCon002,0.6487067999996725,1.0,sad,sad,141ms,187.0,66.0,2.0,141ms_sad
,EmoCon002,0.6873507000000245,1.0,happy,happy,141ms,200.0,79.0,2.0,141ms_happy
,EmoCon002,0.3203696000000491,1.0,happy,happy,141ms,207.0,86.0,2.0,141ms_happy
,EmoCon002,0.5461999999997715,1.0,sad,sad,141ms,208.0,87.0,2.0,141ms_sad
,EmoCon002,0.4735569999998006,1.0,sad,sad,141ms,209.0,88.0,2.0,141ms_sad
,EmoCon002,0.5227963000002092,1.0,sad,sad,141ms,213.0,92.0,2.0,141ms_sad
,EmoCon002,0.4854307000000517,1.0,happy,happy,141ms,217.0,96.0,2.0,141ms_happy
,EmoCon002,0.6786179000000631,1.0,sad,sad,141ms,218.0,97.0,2.0,141ms_sad
,EmoCon002,0.6082370999997693,1.0,sad,sad,141ms,219.0,98.0,2.0,141ms_sad
,EmoCon002,0.5162279000001035,1.0,sad,sad,141ms,243.0,2.0,3.0,141ms_sad
,EmoCon002,0.7148784000000887,1.0,sad,sad,141ms,245.0,4.0,3.0,141ms_sad
,EmoCon002,0.8831967999999506,1.0,sad,sad,141ms,255.0,14.0,3.0,141ms_sad
,EmoCon002,0.4966408999998748,1.0,sad,sad,141ms,257.0,16.0,3.0,141ms_sad
,EmoCon002,0.6376152000002548,1.0,sad,sad,141ms,267.0,26.0,3.0,141ms_sad
,EmoCon002,0.8787870000001021,1.0,sad,sad,141ms,277.0,36.0,3.0,141ms_sad
,EmoCon002,0.6586610999997902,1.0,happy,happy,141ms,278.0,37.0,3.0,141ms_happy
,EmoCon002,0.8449639999998908,1.0,sad,sad,141ms,283.0,42.0,3.0,141ms_sad
,EmoCon002,0.4151941000000079,1.0,happy,happy,141ms,284.0,43.0,3.0,141ms_happy
,EmoCon002,0.6595145999999659,1.0,sad,sad,141ms,286.0,45.0,3.0,141ms_sad
,EmoCon002,0.7636300999997729,1.0,sad,sad,141ms,289.0,48.0,3.0,141ms_sad
,EmoCon002,0.5013617999998132,1.0,sad,sad,141ms,293.0,52.0,3.0,141ms_sad
,EmoCon002,0.4178445000002285,1.0,happy,happy,141ms,296.0,55.0,3.0,141ms_happy
,EmoCon002,0.4376417999997102,1.0,sad,sad,141ms,297.0,56.0,3.0,141ms_sad
,EmoCon002,0.4070934999999736,1.0,happy,happy,141ms,300.0,59.0,3.0,141ms_happy
,EmoCon002,1.1886580999998841,1.0,sad,sad,141ms,301.0,60.0,3.0,141ms_sad
,EmoCon002,0.4498598999998649,1.0,happy,happy,141ms,305.0,64.0,3.0,141ms_happy
,EmoCon002,0.5892134999999143,1.0,sad,sad,141ms,307.0,66.0,3.0,141ms_sad
,EmoCon002,0.8478099999997539,1.0,sad,sad,141ms,313.0,72.0,3.0,141ms_sad
,EmoCon002,0.44436899999982415,1.0,happy,happy,141ms,322.0,81.0,3.0,141ms_happy
,EmoCon002,0.5796000000000276,1.0,happy,happy,141ms,324.0,83.0,3.0,141ms_happy
,EmoCon002,0.5304080999999314,1.0,sad,sad,141ms,329.0,88.0,3.0,141ms_sad
,EmoCon002,0.41977339999994,1.0,sad,sad,141ms,332.0,91.0,3.0,141ms_sad
,EmoCon002,0.383744299999762,1.0,happy,happy,141ms,339.0,98.0,3.0,141ms_happy
,EmoCon002,0.5175209999997605,1.0,sad,sad,141ms,340.0,99.0,3.0,141ms_sad
,EmoCon002,0.6045641000000614,1.0,sad,sad,141ms,341.0,100.0,3.0,141ms_sad
,EmoCon002,0.4506270000001678,1.0,happy,happy,141ms,344.0,103.0,3.0,141ms_happy
,EmoCon002,0.3606332999997903,1.0,happy,happy,141ms,346.0,105.0,3.0,141ms_happy
,EmoCon002,0.4573494999999639,1.0,happy,happy,141ms,353.0,112.0,3.0,141ms_happy
,EmoCon002,0.6330831000000217,1.0,sad,sad,141ms,354.0,113.0,3.0,141ms_sad
,EMOCONPILOT001,1.134738799999468,0.0,neutral,happy,8ms,242.0,1.0,3.0,8ms_happy
,EMOCONPILOT001,1.0835426999992706,0.0,neutral,happy,8ms,244.0,3.0,3.0,8ms_happy
,EMOCONPILOT001,0.5870462999992014,0.0,neutral,happy,8ms,250.0,9.0,3.0,8ms_happy
,EMOCONPILOT001,0.6307665000003908,1.0,neutral,neutral,8ms,251.0,10.0,3.0,8ms_neutral
,EMOCONPILOT001,0.6896104999996169,1.0,neutral,neutral,8ms,252.0,11.0,3.0,8ms_neutral
,EMOCONPILOT001,0.5373116999999183,1.0,neutral,neutral,8ms,253.0,12.0,3.0,8ms_neutral
,EMOCONPILOT001,0.871362500000032,0.0,neutral,sad,8ms,257.0,16.0,3.0,8ms_sad
,EMOCONPILOT001,0.6187184999998863,1.0,neutral,neutral,8ms,258.0,17.0,3.0,8ms_neutral
,EMOCONPILOT001,0.7079127000006338,1.0,neutral,neutral,8ms,260.0,19.0,3.0,8ms_neutral
,EMOCONPILOT001,1.0044133999999758,1.0,happy,happy,8ms,263.0,22.0,3.0,8ms_happy
,EMOCONPILOT001,0.5317613999995956,1.0,neutral,neutral,8ms,265.0,24.0,3.0,8ms_neutral
,EMOCONPILOT001,0.5643801000005624,0.0,neutral,sad,8ms,267.0,26.0,3.0,8ms_sad
,EMOCONPILOT001,0.5869757000000391,1.0,neutral,neutral,8ms,271.0,30.0,3.0,8ms_neutral
,EMOCONPILOT001,0.4604927000000316,0.0,neutral,sad,8ms,272.0,31.0,3.0,8ms_sad
,EMOCONPILOT001,0.6163252000005741,0.0,neutral,sad,8ms,273.0,32.0,3.0,8ms_sad
,EMOCONPILOT001,0.4605056999998851,0.0,neutral,sad,8ms,274.0,33.0,3.0,8ms_sad
,EMOCONPILOT001,0.5787503000001379,0.0,neutral,happy,8ms,278.0,37.0,3.0,8ms_happy
,EMOCONPILOT001,0.4896832000003997,1.0,neutral,neutral,8ms,280.0,39.0,3.0,8ms_neutral
,EMOCONPILOT001,0.5046286999995573,1.0,neutral,neutral,8ms,281.0,40.0,3.0,8ms_neutral
,EMOCONPILOT001,0.4976135000006252,0.0,neutral,happy,8ms,282.0,41.0,3.0,8ms_happy
,EMOCONPILOT001,0.3934013999996751,0.0,neutral,sad,8ms,283.0,42.0,3.0,8ms_sad
,EMOCONPILOT001,0.31264790000022913,0.0,neutral,happy,8ms,284.0,43.0,3.0,8ms_happy
,EMOCONPILOT001,0.4442724000000453,0.0,neutral,happy,8ms,285.0,44.0,3.0,8ms_happy
,EMOCONPILOT001,0.5655175000001691,1.0,neutral,neutral,8ms,291.0,50.0,3.0,8ms_neutral
,EMOCONPILOT001,0.5010603999999148,0.0,neutral,sad,8ms,293.0,52.0,3.0,8ms_sad
,EMOCONPILOT001,0.5106335999998919,0.0,neutral,sad,8ms,295.0,54.0,3.0,8ms_sad
,EMOCONPILOT001,0.4321880999996209,0.0,neutral,sad,8ms,297.0,56.0,3.0,8ms_sad
,EMOCONPILOT001,0.9517120999998951,1.0,happy,happy,8ms,300.0,59.0,3.0,8ms_happy
,EMOCONPILOT001,0.5211985999994795,1.0,neutral,neutral,8ms,304.0,63.0,3.0,8ms_neutral
,EMOCONPILOT001,0.4405246000005718,0.0,neutral,happy,8ms,305.0,64.0,3.0,8ms_happy
,EMOCONPILOT001,0.5106163000000379,0.0,neutral,sad,8ms,306.0,65.0,3.0,8ms_sad
,EMOCONPILOT001,0.4703970000000482,0.0,neutral,sad,8ms,307.0,66.0,3.0,8ms_sad
,EMOCONPILOT001,0.4376720999998725,0.0,neutral,sad,8ms,308.0,67.0,3.0,8ms_sad
,EMOCONPILOT001,0.4796525000001566,0.0,neutral,happy,8ms,311.0,70.0,3.0,8ms_happy
,EMOCONPILOT001,0.5073115000004691,0.0,neutral,sad,8ms,313.0,72.0,3.0,8ms_sad
,EMOCONPILOT001,0.5078478000004907,1.0,neutral,neutral,8ms,314.0,73.0,3.0,8ms_neutral
,EMOCONPILOT001,0.8385932999999568,0.0,neutral,happy,8ms,315.0,74.0,3.0,8ms_happy
,EMOCONPILOT001,0.5630426000006992,1.0,neutral,neutral,8ms,316.0,75.0,3.0,8ms_neutral
,EMOCONPILOT001,0.5867437999995673,0.0,neutral,happy,8ms,317.0,76.0,3.0,8ms_happy
,EMOCONPILOT001,0.5577946999992491,0.0,neutral,happy,8ms,318.0,77.0,3.0,8ms_happy
,EMOCONPILOT001,0.6683524999998554,0.0,neutral,happy,8ms,324.0,83.0,3.0,8ms_happy
,EMOCONPILOT001,0.5172026000000187,0.0,neutral,happy,8ms,325.0,84.0,3.0,8ms_happy
,EMOCONPILOT001,0.6151020999996035,0.0,neutral,happy,8ms,326.0,85.0,3.0,8ms_happy
,EMOCONPILOT001,0.5730320000002393,0.0,neutral,sad,8ms,330.0,89.0,3.0,8ms_sad
,EMOCONPILOT001,0.5121945000000778,1.0,neutral,neutral,8ms,338.0,97.0,3.0,8ms_neutral
,EMOCONPILOT001,1.0438668000006146,0.0,neutral,happy,8ms,339.0,98.0,3.0,8ms_happy
,EMOCONPILOT001,0.3737673999994513,0.0,neutral,sad,8ms,340.0,99.0,3.0,8ms_sad
,EMOCONPILOT001,0.29967450000003737,0.0,neutral,sad,8ms,341.0,100.0,3.0,8ms_sad
,EMOCONPILOT001,0.9580472999996346,1.0,neutral,neutral,8ms,342.0,101.0,3.0,8ms_neutral
,EMOCONPILOT001,0.6490276000004087,0.0,neutral,happy,8ms,344.0,103.0,3.0,8ms_happy
,EMOCONPILOT001,0.5889777000002141,0.0,neutral,sad,8ms,348.0,107.0,3.0,8ms_sad
,EMOCONPILOT001,0.6471085000002859,1.0,neutral,neutral,8ms,349.0,108.0,3.0,8ms_neutral
,EMOCONPILOT001,1.2301221999996417,0.0,neutral,sad,8ms,350.0,109.0,3.0,8ms_sad
,EMOCONPILOT001,0.5851948999998058,1.0,neutral,neutral,8ms,351.0,110.0,3.0,8ms_neutral
,EMOCONPILOT001,0.7259723000006488,0.0,neutral,happy,8ms,352.0,111.0,3.0,8ms_happy
,EMOCONPILOT001,0.5296955999992861,1.0,neutral,neutral,8ms,355.0,114.0,3.0,8ms_neutral
,EMOCONPILOT001,0.4633412000002864,0.0,neutral,sad,8ms,358.0,117.0,3.0,8ms_sad
,EMOCONPILOT001,0.7462411999995311,0.0,neutral,sad,16ms,121.0,0.0,2.0,16ms_sad
,EMOCONPILOT001,0.6338841000006141,0.0,neutral,sad,16ms,123.0,2.0,2.0,16ms_sad
,EMOCONPILOT001,0.7444500000001426,1.0,neutral,neutral,16ms,125.0,4.0,2.0,16ms_neutral
,EMOCONPILOT001,0.6119503999998415,0.0,happy,sad,16ms,127.0,6.0,2.0,16ms_sad
,EMOCONPILOT001,0.5813605000003008,0.0,happy,sad,16ms,129.0,8.0,2.0,16ms_sad
,EMOCONPILOT001,0.7925863999998909,0.0,neutral,sad,16ms,130.0,9.0,2.0,16ms_sad
,EMOCONPILOT001,0.7522322000004351,1.0,happy,happy,16ms,134.0,13.0,2.0,16ms_happy
,EMOCONPILOT001,0.5303518999999142,1.0,neutral,neutral,16ms,137.0,16.0,2.0,16ms_neutral
,EMOCONPILOT001,0.7031016000000818,1.0,happy,happy,16ms,138.0,17.0,2.0,16ms_happy
,EMOCONPILOT001,1.2923461000000316,0.0,neutral,sad,16ms,139.0,18.0,2.0,16ms_sad
,EMOCONPILOT001,0.6477113000000827,1.0,happy,happy,16ms,141.0,20.0,2.0,16ms_happy
,EMOCONPILOT001,0.5446550000006027,1.0,neutral,neutral,16ms,145.0,24.0,2.0,16ms_neutral
,EMOCONPILOT001,0.5154738000001089,1.0,happy,happy,16ms,146.0,25.0,2.0,16ms_happy
,EMOCONPILOT001,0.5330220999994708,1.0,neutral,neutral,16ms,147.0,26.0,2.0,16ms_neutral
,EMOCONPILOT001,0.7286146000005829,0.0,happy,sad,16ms,149.0,28.0,2.0,16ms_sad
,EMOCONPILOT001,0.6302329999998619,1.0,happy,happy,16ms,151.0,30.0,2.0,16ms_happy
,EMOCONPILOT001,0.4864721000003556,1.0,happy,happy,16ms,152.0,31.0,2.0,16ms_happy
,EMOCONPILOT001,0.95358589999978,0.0,happy,neutral,16ms,153.0,32.0,2.0,16ms_neutral
,EMOCONPILOT001,0.5977707000001828,0.0,neutral,sad,16ms,154.0,33.0,2.0,16ms_sad
,EMOCONPILOT001,0.5020002999999633,1.0,neutral,neutral,16ms,155.0,34.0,2.0,16ms_neutral
,EMOCONPILOT001,0.7311281000002054,1.0,neutral,neutral,16ms,157.0,36.0,2.0,16ms_neutral
,EMOCONPILOT001,1.1226925999999366,1.0,neutral,neutral,16ms,158.0,37.0,2.0,16ms_neutral
,EMOCONPILOT001,0.6064880000003541,1.0,happy,happy,16ms,160.0,39.0,2.0,16ms_happy
,EMOCONPILOT001,0.5572462000000087,1.0,happy,happy,16ms,161.0,40.0,2.0,16ms_happy
,EMOCONPILOT001,0.6445757999999842,1.0,neutral,neutral,16ms,166.0,45.0,2.0,16ms_neutral
,EMOCONPILOT001,0.46112799999991705,1.0,neutral,neutral,16ms,167.0,46.0,2.0,16ms_neutral
,EMOCONPILOT001,0.9300782999998772,1.0,neutral,neutral,16ms,169.0,48.0,2.0,16ms_neutral
,EMOCONPILOT001,0.4466740999996546,1.0,happy,happy,16ms,170.0,49.0,2.0,16ms_happy
,EMOCONPILOT001,0.5991702999999688,1.0,happy,happy,16ms,171.0,50.0,2.0,16ms_happy
,EMOCONPILOT001,0.6377069999998639,1.0,happy,happy,16ms,173.0,52.0,2.0,16ms_happy
,EMOCONPILOT001,0.7079100000000835,1.0,happy,happy,16ms,176.0,55.0,2.0,16ms_happy
,EMOCONPILOT001,0.4852508000003581,1.0,neutral,neutral,16ms,177.0,56.0,2.0,16ms_neutral
,EMOCONPILOT001,0.6263161000006221,1.0,neutral,neutral,16ms,179.0,58.0,2.0,16ms_neutral
,EMOCONPILOT001,0.739599100000305,1.0,sad,sad,16ms,182.0,61.0,2.0,16ms_sad
,EMOCONPILOT001,0.5787345999997342,1.0,neutral,neutral,16ms,183.0,62.0,2.0,16ms_neutral
,EMOCONPILOT001,0.8302939000004699,1.0,happy,happy,16ms,185.0,64.0,2.0,16ms_happy
,EMOCONPILOT001,0.6302546999995684,1.0,neutral,neutral,16ms,186.0,65.0,2.0,16ms_neutral
,EMOCONPILOT001,0.6560474000007162,1.0,happy,happy,16ms,188.0,67.0,2.0,16ms_happy
,EMOCONPILOT001,0.6495441000006394,0.0,neutral,sad,16ms,189.0,68.0,2.0,16ms_sad
,EMOCONPILOT001,0.7189699000000473,0.0,neutral,sad,16ms,191.0,70.0,2.0,16ms_sad
,EMOCONPILOT001,0.7817813999999998,1.0,neutral,neutral,16ms,195.0,74.0,2.0,16ms_neutral
,EMOCONPILOT001,0.5126555000006192,1.0,neutral,neutral,16ms,197.0,76.0,2.0,16ms_neutral
,EMOCONPILOT001,0.5243388999997478,1.0,neutral,neutral,16ms,201.0,80.0,2.0,16ms_neutral
,EMOCONPILOT001,0.5963570000003529,1.0,happy,happy,16ms,202.0,81.0,2.0,16ms_happy
,EMOCONPILOT001,0.8691903999997521,1.0,happy,happy,16ms,204.0,83.0,2.0,16ms_happy
,EMOCONPILOT001,0.6266777999999249,1.0,neutral,neutral,16ms,206.0,85.0,2.0,16ms_neutral
,EMOCONPILOT001,0.6429378000002544,0.0,happy,sad,16ms,209.0,88.0,2.0,16ms_sad
,EMOCONPILOT001,0.6232420999995156,1.0,happy,happy,16ms,211.0,90.0,2.0,16ms_happy
,EMOCONPILOT001,0.5665971000007629,0.0,neutral,sad,16ms,213.0,92.0,2.0,16ms_sad
,EMOCONPILOT001,0.7091639999998733,1.0,neutral,neutral,16ms,214.0,93.0,2.0,16ms_neutral
,EMOCONPILOT001,0.546454299999823,1.0,sad,sad,16ms,215.0,94.0,2.0,16ms_sad
,EMOCONPILOT001,0.5764343999999255,1.0,neutral,neutral,16ms,216.0,95.0,2.0,16ms_neutral
,EMOCONPILOT001,0.6556354000003921,0.0,neutral,sad,16ms,218.0,97.0,2.0,16ms_sad
,EMOCONPILOT001,0.5602103999999599,1.0,neutral,neutral,16ms,221.0,100.0,2.0,16ms_neutral
,EMOCONPILOT001,0.5540318000003026,1.0,happy,happy,16ms,222.0,101.0,2.0,16ms_happy
,EMOCONPILOT001,0.6757195000000138,0.0,happy,sad,16ms,223.0,102.0,2.0,16ms_sad
,EMOCONPILOT001,0.6492717999999513,1.0,neutral,neutral,16ms,224.0,103.0,2.0,16ms_neutral
,EMOCONPILOT001,0.6740611000004719,1.0,happy,happy,16ms,225.0,104.0,2.0,16ms_happy
,EMOCONPILOT001,0.5244459000005008,1.0,happy,happy,16ms,228.0,107.0,2.0,16ms_happy
,EMOCONPILOT001,0.985138599999118,1.0,sad,sad,25ms,3.0,2.0,1.0,25ms_sad
,EMOCONPILOT001,1.2851282000001447,0.0,sad,neutral,25ms,8.0,7.0,1.0,25ms_neutral
,EMOCONPILOT001,0.6338385999997627,1.0,neutral,neutral,25ms,16.0,15.0,1.0,25ms_neutral
,EMOCONPILOT001,0.6431823999992048,1.0,happy,happy,25ms,19.0,18.0,1.0,25ms_happy
,EMOCONPILOT001,0.5143257999998241,1.0,happy,happy,25ms,21.0,20.0,1.0,25ms_happy
,EMOCONPILOT001,0.4634137000002738,1.0,happy,happy,25ms,25.0,24.0,1.0,25ms_happy
,EMOCONPILOT001,0.6179981000004773,1.0,neutral,neutral,25ms,26.0,25.0,1.0,25ms_neutral
,EMOCONPILOT001,1.045064299999467,1.0,sad,sad,25ms,29.0,28.0,1.0,25ms_sad
,EMOCONPILOT001,0.5223551999997653,1.0,neutral,neutral,25ms,30.0,29.0,1.0,25ms_neutral
,EMOCONPILOT001,0.5310596999997871,1.0,neutral,neutral,25ms,31.0,30.0,1.0,25ms_neutral
,EMOCONPILOT001,0.5124041999997644,1.0,neutral,neutral,25ms,33.0,32.0,1.0,25ms_neutral
,EMOCONPILOT001,0.6753759000002901,1.0,neutral,neutral,25ms,35.0,34.0,1.0,25ms_neutral
,EMOCONPILOT001,0.5133918000001358,1.0,neutral,neutral,25ms,38.0,37.0,1.0,25ms_neutral
,EMOCONPILOT001,0.5568954000000303,1.0,neutral,neutral,25ms,40.0,39.0,1.0,25ms_neutral
,EMOCONPILOT001,0.6746448000003511,0.0,neutral,sad,25ms,41.0,40.0,1.0,25ms_sad
,EMOCONPILOT001,1.3274781999998595,0.0,sad,happy,25ms,48.0,47.0,1.0,25ms_happy
,EMOCONPILOT001,0.4748599000004106,1.0,neutral,neutral,25ms,49.0,48.0,1.0,25ms_neutral
,EMOCONPILOT001,0.6382886000001236,1.0,neutral,neutral,25ms,50.0,49.0,1.0,25ms_neutral
,EMOCONPILOT001,0.6227226999999402,1.0,neutral,neutral,25ms,55.0,54.0,1.0,25ms_neutral
,EMOCONPILOT001,0.5110756000003676,1.0,neutral,neutral,25ms,56.0,55.0,1.0,25ms_neutral
,EMOCONPILOT001,0.43881209999926796,1.0,neutral,neutral,25ms,60.0,59.0,1.0,25ms_neutral
,EMOCONPILOT001,0.5034444999992047,1.0,happy,happy,25ms,68.0,67.0,1.0,25ms_happy
,EMOCONPILOT001,0.7131990999996559,1.0,happy,happy,25ms,72.0,71.0,1.0,25ms_happy
,EMOCONPILOT001,1.1253772000000026,0.0,neutral,sad,25ms,74.0,73.0,1.0,25ms_sad
,EMOCONPILOT001,0.5130584999997154,1.0,happy,happy,25ms,79.0,78.0,1.0,25ms_happy
,EMOCONPILOT001,0.553795199999513,1.0,happy,happy,25ms,88.0,87.0,1.0,25ms_happy
,EMOCONPILOT001,0.754553499999929,1.0,neutral,neutral,25ms,92.0,91.0,1.0,25ms_neutral
,EMOCONPILOT001,1.473289300000033,0.0,neutral,sad,25ms,95.0,94.0,1.0,25ms_sad
,EMOCONPILOT001,1.0500559000001886,0.0,neutral,sad,25ms,96.0,95.0,1.0,25ms_sad
,EMOCONPILOT001,0.5048866000006456,1.0,happy,happy,25ms,98.0,97.0,1.0,25ms_happy
,EMOCONPILOT001,0.5834710999997696,1.0,neutral,neutral,25ms,99.0,98.0,1.0,25ms_neutral
,EMOCONPILOT001,0.6750141000002259,1.0,neutral,neutral,25ms,101.0,100.0,1.0,25ms_neutral
,EMOCONPILOT001,0.5890583999998853,0.0,neutral,sad,25ms,102.0,101.0,1.0,25ms_sad
,EMOCONPILOT001,0.5243208000001687,1.0,happy,happy,25ms,103.0,102.0,1.0,25ms_happy
,EMOCONPILOT001,0.6367760000002818,1.0,sad,sad,25ms,104.0,103.0,1.0,25ms_sad
,EMOCONPILOT001,0.4424548999995751,1.0,sad,sad,141ms,12.0,11.0,1.0,141ms_sad
,EMOCONPILOT001,0.6224874999998065,1.0,happy,happy,141ms,15.0,14.0,1.0,141ms_happy
,EMOCONPILOT001,0.3794694999996864,1.0,happy,happy,141ms,18.0,17.0,1.0,141ms_happy
,EMOCONPILOT001,0.35309610000058456,1.0,happy,happy,141ms,20.0,19.0,1.0,141ms_happy
,EMOCONPILOT001,0.3863261999995302,1.0,happy,happy,141ms,28.0,27.0,1.0,141ms_happy
,EMOCONPILOT001,0.3624121999991985,1.0,happy,happy,141ms,43.0,42.0,1.0,141ms_happy
,EMOCONPILOT001,0.4005815000000439,1.0,sad,sad,141ms,44.0,43.0,1.0,141ms_sad
,EMOCONPILOT001,0.2977676000000429,1.0,sad,sad,141ms,46.0,45.0,1.0,141ms_sad
,EMOCONPILOT001,0.3612812000001213,1.0,happy,happy,141ms,57.0,56.0,1.0,141ms_happy
,EMOCONPILOT001,0.4269432999999481,1.0,happy,happy,141ms,64.0,63.0,1.0,141ms_happy
,EMOCONPILOT001,0.5155955999998696,1.0,happy,happy,141ms,65.0,64.0,1.0,141ms_happy
,EMOCONPILOT001,0.25255829999969137,1.0,happy,happy,141ms,69.0,68.0,1.0,141ms_happy
,EMOCONPILOT001,1.0889159999996991,1.0,sad,sad,141ms,70.0,69.0,1.0,141ms_sad
,EMOCONPILOT001,0.5174721000003046,1.0,happy,happy,141ms,71.0,70.0,1.0,141ms_happy
,EMOCONPILOT001,0.4030903000002581,0.0,neutral,sad,141ms,84.0,83.0,1.0,141ms_sad
,EMOCONPILOT001,0.982961200000318,1.0,sad,sad,141ms,86.0,85.0,1.0,141ms_sad
,EMOCONPILOT001,0.6515096000002814,1.0,sad,sad,141ms,89.0,88.0,1.0,141ms_sad
,EMOCONPILOT001,0.7766340999996828,1.0,happy,happy,141ms,106.0,105.0,1.0,141ms_happy
,EMOCONPILOT001,0.4172048999998879,1.0,sad,sad,141ms,109.0,108.0,1.0,141ms_sad
,EMOCONPILOT001,0.40376280000054976,1.0,sad,sad,141ms,111.0,110.0,1.0,141ms_sad
,EMOCONPILOT001,0.4451636000003418,1.0,sad,sad,141ms,124.0,3.0,2.0,141ms_sad
,EMOCONPILOT001,0.5728874000005817,1.0,sad,sad,141ms,133.0,12.0,2.0,141ms_sad
,EMOCONPILOT001,0.5975914000000557,1.0,happy,happy,141ms,140.0,19.0,2.0,141ms_happy
,EMOCONPILOT001,0.5879330999996455,1.0,happy,happy,141ms,142.0,21.0,2.0,141ms_happy
,EMOCONPILOT001,0.43130290000044624,1.0,sad,sad,141ms,143.0,22.0,2.0,141ms_sad
,EMOCONPILOT001,0.3223573999994187,1.0,happy,happy,141ms,156.0,35.0,2.0,141ms_happy
,EMOCONPILOT001,0.3733684999997422,1.0,happy,happy,141ms,163.0,42.0,2.0,141ms_happy
,EMOCONPILOT001,0.4549856000003274,1.0,sad,sad,141ms,165.0,44.0,2.0,141ms_sad
,EMOCONPILOT001,0.4587296999998216,1.0,happy,happy,141ms,174.0,53.0,2.0,141ms_happy
,EMOCONPILOT001,0.6175759999996444,1.0,happy,happy,141ms,175.0,54.0,2.0,141ms_happy
,EMOCONPILOT001,0.5620132999993075,1.0,sad,sad,141ms,178.0,57.0,2.0,141ms_sad
,EMOCONPILOT001,0.4555497999999716,1.0,sad,sad,141ms,180.0,59.0,2.0,141ms_sad
,EMOCONPILOT001,0.4026874000001044,1.0,sad,sad,141ms,184.0,63.0,2.0,141ms_sad
,EMOCONPILOT001,0.4298681999998735,1.0,sad,sad,141ms,187.0,66.0,2.0,141ms_sad
,EMOCONPILOT001,0.3533714999994117,1.0,sad,sad,141ms,196.0,75.0,2.0,141ms_sad
,EMOCONPILOT001,0.3274290000008477,1.0,sad,sad,141ms,198.0,77.0,2.0,141ms_sad
,EMOCONPILOT001,0.8029974000000948,1.0,happy,happy,141ms,200.0,79.0,2.0,141ms_happy
,EMOCONPILOT001,0.2573069000000032,1.0,happy,happy,141ms,207.0,86.0,2.0,141ms_happy
,EMOCONPILOT001,0.6423983999993652,1.0,sad,sad,141ms,208.0,87.0,2.0,141ms_sad
,EMOCONPILOT001,0.5269572000006519,1.0,happy,happy,141ms,210.0,89.0,2.0,141ms_happy
,EMOCONPILOT001,0.3644640000002255,1.0,sad,sad,141ms,212.0,91.0,2.0,141ms_sad
,EMOCONPILOT001,0.4360029000008581,1.0,happy,happy,141ms,217.0,96.0,2.0,141ms_happy
,EMOCONPILOT001,0.3536699999995108,1.0,sad,sad,141ms,219.0,98.0,2.0,141ms_sad
,EMOCONPILOT001,0.6172377000002598,1.0,sad,sad,141ms,230.0,109.0,2.0,141ms_sad
,EMOCONPILOT001,0.5482038999998622,1.0,sad,sad,141ms,233.0,112.0,2.0,141ms_sad
,EMOCONPILOT001,0.4038340999995853,1.0,happy,happy,141ms,234.0,113.0,2.0,141ms_happy
,EMOCONPILOT001,0.37732859999960056,1.0,sad,sad,141ms,240.0,119.0,2.0,141ms_sad
,EMOCONPILOT001,0.6297325000005003,1.0,sad,sad,141ms,243.0,2.0,3.0,141ms_sad
,EMOCONPILOT001,0.8621464999996533,1.0,sad,sad,141ms,245.0,4.0,3.0,141ms_sad
,EMOCONPILOT001,0.5569562000000587,1.0,sad,sad,141ms,255.0,14.0,3.0,141ms_sad
,EMOCONPILOT001,0.7318358000002263,1.0,sad,sad,141ms,259.0,18.0,3.0,141ms_sad
,EMOCONPILOT001,0.5774083999995128,1.0,sad,sad,141ms,262.0,21.0,3.0,141ms_sad
,EMOCONPILOT001,1.0235578000001624,1.0,happy,happy,141ms,264.0,23.0,3.0,141ms_happy
,EMOCONPILOT001,0.4387818999994124,1.0,happy,happy,141ms,269.0,28.0,3.0,141ms_happy
,EMOCONPILOT001,0.681522999999288,1.0,sad,sad,141ms,277.0,36.0,3.0,141ms_sad
,EMOCONPILOT001,0.9037832999993044,1.0,sad,sad,141ms,286.0,45.0,3.0,141ms_sad
,EMOCONPILOT001,0.4663150999995196,1.0,sad,sad,141ms,288.0,47.0,3.0,141ms_sad
,EMOCONPILOT001,0.4694527000001472,1.0,sad,sad,141ms,289.0,48.0,3.0,141ms_sad
,EMOCONPILOT001,0.513702000000194,1.0,happy,happy,141ms,292.0,51.0,3.0,141ms_happy
,EMOCONPILOT001,0.5201530999993338,1.0,happy,happy,141ms,296.0,55.0,3.0,141ms_happy
,EMOCONPILOT001,0.4444594999995388,1.0,sad,sad,141ms,301.0,60.0,3.0,141ms_sad
,EMOCONPILOT001,0.4138441000004605,1.0,sad,sad,141ms,321.0,80.0,3.0,141ms_sad
,EMOCONPILOT001,0.4717325999999957,1.0,happy,happy,141ms,322.0,81.0,3.0,141ms_happy
,EMOCONPILOT001,0.4742126999999528,1.0,sad,sad,141ms,327.0,86.0,3.0,141ms_sad
,EMOCONPILOT001,0.8594863999996959,1.0,sad,sad,141ms,328.0,87.0,3.0,141ms_sad
,EMOCONPILOT001,0.7462681999995766,1.0,sad,sad,141ms,329.0,88.0,3.0,141ms_sad
,EMOCONPILOT001,0.5499483000003238,1.0,sad,sad,141ms,332.0,91.0,3.0,141ms_sad
,EMOCONPILOT001,0.5015038999999888,1.0,happy,happy,141ms,333.0,92.0,3.0,141ms_happy
,EMOCONPILOT001,0.5925315000004048,1.0,sad,sad,141ms,336.0,95.0,3.0,141ms_sad
,EMOCONPILOT001,0.4055216999995537,1.0,sad,sad,141ms,337.0,96.0,3.0,141ms_sad
,EMOCONPILOT001,0.4085520999997243,1.0,happy,happy,141ms,346.0,105.0,3.0,141ms_happy
,EMOCONPILOT001,0.453617099999974,1.0,happy,happy,141ms,353.0,112.0,3.0,141ms_happy
,EMOCONPILOT001,0.452257500000087,1.0,sad,sad,141ms,354.0,113.0,3.0,141ms_sad
,EMOCONPILOT001,0.4590025999996215,1.0,sad,sad,141ms,356.0,115.0,3.0,141ms_sad
,EMOCONPILOT001,0.5253782999998293,1.0,sad,sad,141ms,357.0,116.0,3.0,141ms_sad
,EMOCONPILOT001,0.3720038999999815,1.0,happy,happy,141ms,360.0,119.0,3.0,141ms_happy
,EMOCONPILOT003,1.025624500005506,1.0,neutral,neutral,8ms,247.0,6.0,3.0,8ms_neutral
,EMOCONPILOT003,0.9784816000610592,1.0,neutral,neutral,8ms,252.0,11.0,3.0,8ms_neutral
,EMOCONPILOT003,0.9893987000687048,1.0,neutral,neutral,8ms,253.0,12.0,3.0,8ms_neutral
,EMOCONPILOT003,0.8472039999905974,0.0,neutral,sad,8ms,255.0,14.0,3.0,8ms_sad
,EMOCONPILOT003,0.631408300017938,0.0,neutral,happy,8ms,256.0,15.0,3.0,8ms_happy
,EMOCONPILOT003,0.6861216999823228,0.0,neutral,sad,8ms,257.0,16.0,3.0,8ms_sad
,EMOCONPILOT003,1.1898027000715956,1.0,neutral,neutral,8ms,258.0,17.0,3.0,8ms_neutral
,EMOCONPILOT003,1.249748899950646,0.0,neutral,sad,8ms,259.0,18.0,3.0,8ms_sad
,EMOCONPILOT003,0.6710464999778196,1.0,neutral,neutral,8ms,261.0,20.0,3.0,8ms_neutral
,EMOCONPILOT003,1.138188699958846,0.0,neutral,sad,8ms,262.0,21.0,3.0,8ms_sad
,EMOCONPILOT003,0.7422601999714971,0.0,neutral,happy,8ms,266.0,25.0,3.0,8ms_happy
,EMOCONPILOT003,0.6962220000568777,0.0,neutral,sad,8ms,267.0,26.0,3.0,8ms_sad
,EMOCONPILOT003,1.4238396000582725,1.0,neutral,neutral,8ms,271.0,30.0,3.0,8ms_neutral
,EMOCONPILOT003,1.3174563000211492,1.0,neutral,neutral,8ms,275.0,34.0,3.0,8ms_neutral
,EMOCONPILOT003,0.9566651999484748,0.0,neutral,happy,8ms,278.0,37.0,3.0,8ms_happy
,EMOCONPILOT003,0.5855570000130683,1.0,neutral,neutral,8ms,279.0,38.0,3.0,8ms_neutral
,EMOCONPILOT003,0.7990636000176892,1.0,neutral,neutral,8ms,281.0,40.0,3.0,8ms_neutral
,EMOCONPILOT003,0.4835556000471115,0.0,neutral,happy,8ms,282.0,41.0,3.0,8ms_happy
,EMOCONPILOT003,1.1038519999710843,0.0,neutral,sad,8ms,289.0,48.0,3.0,8ms_sad
,EMOCONPILOT003,0.662791799986735,0.0,neutral,happy,8ms,290.0,49.0,3.0,8ms_happy
,EMOCONPILOT003,0.7423883000155911,1.0,neutral,neutral,8ms,291.0,50.0,3.0,8ms_neutral
,EMOCONPILOT003,0.8824418999720365,0.0,neutral,sad,8ms,293.0,52.0,3.0,8ms_sad
,EMOCONPILOT003,0.6374852000735699,0.0,neutral,sad,8ms,295.0,54.0,3.0,8ms_sad
,EMOCONPILOT003,0.779858099995181,0.0,neutral,sad,8ms,297.0,56.0,3.0,8ms_sad
,EMOCONPILOT003,0.5945306000066921,1.0,neutral,neutral,8ms,298.0,57.0,3.0,8ms_neutral
,EMOCONPILOT003,0.6282685000915079,0.0,neutral,happy,8ms,299.0,58.0,3.0,8ms_happy
,EMOCONPILOT003,0.8523375999648124,0.0,neutral,sad,8ms,301.0,60.0,3.0,8ms_sad
,EMOCONPILOT003,0.7512418000260368,0.0,neutral,happy,8ms,303.0,62.0,3.0,8ms_happy
,EMOCONPILOT003,0.7977791000157595,1.0,neutral,neutral,8ms,304.0,63.0,3.0,8ms_neutral
,EMOCONPILOT003,1.0150304000126198,1.0,neutral,neutral,8ms,309.0,68.0,3.0,8ms_neutral
,EMOCONPILOT003,1.1526274000061676,1.0,neutral,neutral,8ms,310.0,69.0,3.0,8ms_neutral
,EMOCONPILOT003,0.7771066999994218,1.0,neutral,neutral,8ms,312.0,71.0,3.0,8ms_neutral
,EMOCONPILOT003,1.27687300008256,1.0,neutral,neutral,8ms,316.0,75.0,3.0,8ms_neutral
,EMOCONPILOT003,0.983712900080718,1.0,happy,happy,8ms,317.0,76.0,3.0,8ms_happy
,EMOCONPILOT003,0.6504228999838233,0.0,neutral,sad,8ms,319.0,78.0,3.0,8ms_sad
,EMOCONPILOT003,0.8171715000644326,0.0,neutral,sad,8ms,321.0,80.0,3.0,8ms_sad
,EMOCONPILOT003,0.697452099993825,1.0,neutral,neutral,8ms,323.0,82.0,3.0,8ms_neutral
,EMOCONPILOT003,0.6678823999827728,0.0,neutral,sad,8ms,328.0,87.0,3.0,8ms_sad
,EMOCONPILOT003,0.5864061000756919,0.0,neutral,sad,8ms,329.0,88.0,3.0,8ms_sad
,EMOCONPILOT003,0.5628688000142574,0.0,neutral,sad,8ms,331.0,90.0,3.0,8ms_sad
,EMOCONPILOT003,0.519858599989675,0.0,neutral,sad,8ms,332.0,91.0,3.0,8ms_sad
,EMOCONPILOT003,1.4624899999471381,0.0,sad,neutral,8ms,334.0,93.0,3.0,8ms_neutral
,EMOCONPILOT003,0.9228292000479996,0.0,neutral,sad,8ms,336.0,95.0,3.0,8ms_sad
,EMOCONPILOT003,0.4653545999899506,0.0,neutral,sad,8ms,337.0,96.0,3.0,8ms_sad
,EMOCONPILOT003,0.5124607000034302,1.0,neutral,neutral,8ms,338.0,97.0,3.0,8ms_neutral
,EMOCONPILOT003,1.1039096000604331,0.0,neutral,sad,8ms,341.0,100.0,3.0,8ms_sad
,EMOCONPILOT003,0.6234700999921188,0.0,neutral,sad,8ms,343.0,102.0,3.0,8ms_sad
,EMOCONPILOT003,0.921658599982038,0.0,neutral,happy,8ms,344.0,103.0,3.0,8ms_happy
,EMOCONPILOT003,0.6829067000653595,1.0,neutral,neutral,8ms,345.0,104.0,3.0,8ms_neutral
,EMOCONPILOT003,0.9341810001060368,1.0,neutral,neutral,8ms,347.0,106.0,3.0,8ms_neutral
,EMOCONPILOT003,1.181269499938935,1.0,sad,sad,8ms,348.0,107.0,3.0,8ms_sad
,EMOCONPILOT003,1.3629466999555009,0.0,neutral,sad,16ms,121.0,0.0,2.0,16ms_sad
,EMOCONPILOT003,0.8019749000668526,1.0,neutral,neutral,16ms,122.0,1.0,2.0,16ms_neutral
,EMOCONPILOT003,0.8511471999809146,1.0,neutral,neutral,16ms,128.0,7.0,2.0,16ms_neutral
,EMOCONPILOT003,1.2822332999203354,0.0,neutral,sad,16ms,130.0,9.0,2.0,16ms_sad
,EMOCONPILOT003,1.0929655999643728,0.0,neutral,sad,16ms,133.0,12.0,2.0,16ms_sad
,EMOCONPILOT003,0.7210764000192285,1.0,neutral,neutral,16ms,137.0,16.0,2.0,16ms_neutral
,EMOCONPILOT003,0.7360464000375941,1.0,happy,happy,16ms,138.0,17.0,2.0,16ms_happy
,EMOCONPILOT003,0.9720729000400752,1.0,happy,happy,16ms,141.0,20.0,2.0,16ms_happy
,EMOCONPILOT003,0.6499664000002667,1.0,happy,happy,16ms,146.0,25.0,2.0,16ms_happy
,EMOCONPILOT003,1.2342993998900056,1.0,neutral,neutral,16ms,147.0,26.0,2.0,16ms_neutral
,EMOCONPILOT003,1.39202699996531,1.0,happy,happy,16ms,148.0,27.0,2.0,16ms_happy
,EMOCONPILOT003,0.9036256999243052,1.0,happy,happy,16ms,151.0,30.0,2.0,16ms_happy
,EMOCONPILOT003,1.296374100027606,1.0,happy,happy,16ms,152.0,31.0,2.0,16ms_happy
,EMOCONPILOT003,1.0583322000456974,0.0,neutral,sad,16ms,154.0,33.0,2.0,16ms_sad
,EMOCONPILOT003,0.8149733999744058,1.0,happy,happy,16ms,156.0,35.0,2.0,16ms_happy
,EMOCONPILOT003,0.5749638999113813,1.0,happy,happy,16ms,161.0,40.0,2.0,16ms_happy
,EMOCONPILOT003,0.9900247999466956,1.0,neutral,neutral,16ms,166.0,45.0,2.0,16ms_neutral
,EMOCONPILOT003,1.0437289000255987,1.0,neutral,neutral,16ms,167.0,46.0,2.0,16ms_neutral
,EMOCONPILOT003,0.7069604999851435,1.0,happy,happy,16ms,168.0,47.0,2.0,16ms_happy
,EMOCONPILOT003,0.5908060999354348,1.0,happy,happy,16ms,170.0,49.0,2.0,16ms_happy
,EMOCONPILOT003,0.6326850999612361,1.0,happy,happy,16ms,171.0,50.0,2.0,16ms_happy
,EMOCONPILOT003,0.4975820999825373,1.0,happy,happy,16ms,175.0,54.0,2.0,16ms_happy
,EMOCONPILOT003,0.723575200070627,1.0,happy,happy,16ms,188.0,67.0,2.0,16ms_happy
,EMOCONPILOT003,1.0296810999279842,1.0,neutral,neutral,16ms,199.0,78.0,2.0,16ms_neutral
,EMOCONPILOT003,1.3140130001120272,1.0,neutral,neutral,16ms,201.0,80.0,2.0,16ms_neutral
,EMOCONPILOT003,0.6755045000463724,1.0,happy,happy,16ms,202.0,81.0,2.0,16ms_happy
,EMOCONPILOT003,0.6233442999655381,1.0,happy,happy,16ms,203.0,82.0,2.0,16ms_happy
,EMOCONPILOT003,1.1927418999839574,0.0,sad,neutral,16ms,205.0,84.0,2.0,16ms_neutral
,EMOCONPILOT003,1.1137351000215858,1.0,neutral,neutral,16ms,206.0,85.0,2.0,16ms_neutral
,EMOCONPILOT003,0.6143181999213994,1.0,happy,happy,16ms,207.0,86.0,2.0,16ms_happy
,EMOCONPILOT003,1.044041299959645,0.0,neutral,happy,16ms,210.0,89.0,2.0,16ms_happy
,EMOCONPILOT003,1.0409629000350833,0.0,neutral,sad,16ms,213.0,92.0,2.0,16ms_sad
,EMOCONPILOT003,1.1074855999322608,1.0,neutral,neutral,16ms,224.0,103.0,2.0,16ms_neutral
,EMOCONPILOT003,0.8047713999403641,1.0,neutral,neutral,16ms,226.0,105.0,2.0,16ms_neutral
,EMOCONPILOT003,0.6674743999028578,1.0,happy,happy,16ms,228.0,107.0,2.0,16ms_happy
,EMOCONPILOT003,1.2527979000005869,0.0,happy,sad,16ms,229.0,108.0,2.0,16ms_sad
,EMOCONPILOT003,1.2650692999595776,0.0,happy,sad,16ms,230.0,109.0,2.0,16ms_sad
,EMOCONPILOT003,0.5373379000229761,1.0,happy,happy,16ms,231.0,110.0,2.0,16ms_happy
,EMOCONPILOT003,0.8407989999977872,1.0,neutral,neutral,16ms,232.0,111.0,2.0,16ms_neutral
,EMOCONPILOT003,0.8393025000113994,1.0,happy,happy,16ms,234.0,113.0,2.0,16ms_happy
,EMOCONPILOT003,1.3825222000014037,1.0,happy,happy,16ms,236.0,115.0,2.0,16ms_happy
,EMOCONPILOT003,0.8980624000541866,1.0,neutral,neutral,16ms,237.0,116.0,2.0,16ms_neutral
,EMOCONPILOT003,0.7934835000196472,1.0,neutral,neutral,16ms,238.0,117.0,2.0,16ms_neutral
,EMOCONPILOT003,0.7557224000338465,1.0,neutral,neutral,16ms,239.0,118.0,2.0,16ms_neutral
,EMOCONPILOT003,0.8059547999873757,0.0,neutral,sad,16ms,240.0,119.0,2.0,16ms_sad
,EMOCONPILOT003,0.7847714000381529,0.0,neutral,sad,25ms,1.0,0.0,1.0,25ms_sad
,EMOCONPILOT003,0.4374761999351904,1.0,neutral,neutral,25ms,2.0,1.0,1.0,25ms_neutral
,EMOCONPILOT003,1.2608012999407947,1.0,sad,sad,25ms,3.0,2.0,1.0,25ms_sad
,EMOCONPILOT003,1.3694255000445992,1.0,happy,happy,25ms,4.0,3.0,1.0,25ms_happy
,EMOCONPILOT003,1.3480356999207288,1.0,sad,sad,25ms,6.0,5.0,1.0,25ms_sad
,EMOCONPILOT003,1.0874801999889314,1.0,happy,happy,25ms,9.0,8.0,1.0,25ms_happy
,EMOCONPILOT003,1.3713657999178397,1.0,happy,happy,25ms,11.0,10.0,1.0,25ms_happy
,EMOCONPILOT003,0.7969153000740334,1.0,happy,happy,25ms,14.0,13.0,1.0,25ms_happy
,EMOCONPILOT003,1.051478200010024,1.0,happy,happy,25ms,19.0,18.0,1.0,25ms_happy
,EMOCONPILOT003,0.5837383000180125,1.0,happy,happy,25ms,28.0,27.0,1.0,25ms_happy
,EMOCONPILOT003,0.8754065000684932,0.0,neutral,sad,25ms,29.0,28.0,1.0,25ms_sad
,EMOCONPILOT003,0.9559991999994965,1.0,happy,happy,25ms,42.0,41.0,1.0,25ms_happy
,EMOCONPILOT003,1.199209500104189,1.0,happy,happy,25ms,43.0,42.0,1.0,25ms_happy
,EMOCONPILOT003,0.7559977000346407,1.0,happy,happy,25ms,54.0,53.0,1.0,25ms_happy
,EMOCONPILOT003,0.5575817000353709,1.0,happy,happy,25ms,68.0,67.0,1.0,25ms_happy
,EMOCONPILOT003,0.878341400064528,0.0,happy,sad,25ms,70.0,69.0,1.0,25ms_sad
,EMOCONPILOT003,1.0221766999457031,1.0,happy,happy,25ms,72.0,71.0,1.0,25ms_happy
,EMOCONPILOT003,0.8713982000481337,0.0,happy,sad,25ms,74.0,73.0,1.0,25ms_sad
,EMOCONPILOT003,0.8020585000049323,1.0,happy,happy,25ms,75.0,74.0,1.0,25ms_happy
,EMOCONPILOT003,0.93279240000993,1.0,sad,sad,25ms,76.0,75.0,1.0,25ms_sad
,EMOCONPILOT003,1.037962899892591,1.0,neutral,neutral,25ms,99.0,98.0,1.0,25ms_neutral
,EMOCONPILOT003,1.0112018999643624,1.0,sad,sad,25ms,104.0,103.0,1.0,25ms_sad
,EMOCONPILOT003,1.4433694999897853,1.0,neutral,neutral,25ms,110.0,109.0,1.0,25ms_neutral
,EMOCONPILOT003,0.8152136000571772,1.0,sad,sad,25ms,114.0,113.0,1.0,25ms_sad
,EMOCONPILOT003,0.7421816000714898,1.0,happy,happy,25ms,115.0,114.0,1.0,25ms_happy
,EMOCONPILOT003,1.3665516000473872,1.0,sad,sad,141ms,12.0,11.0,1.0,141ms_sad
,EMOCONPILOT003,1.0919647000264376,1.0,sad,sad,141ms,17.0,16.0,1.0,141ms_sad
,EMOCONPILOT003,0.6841721000382677,1.0,happy,happy,141ms,20.0,19.0,1.0,141ms_happy
,EMOCONPILOT003,0.9336231000488624,1.0,sad,sad,141ms,23.0,22.0,1.0,141ms_sad
,EMOCONPILOT003,0.6087102999445051,1.0,happy,happy,141ms,25.0,24.0,1.0,141ms_happy
,EMOCONPILOT003,0.6376081000780687,1.0,happy,happy,141ms,27.0,26.0,1.0,141ms_happy
,EMOCONPILOT003,1.0100472000194711,1.0,happy,happy,141ms,45.0,44.0,1.0,141ms_happy
,EMOCONPILOT003,0.6415679999627173,1.0,happy,happy,141ms,51.0,50.0,1.0,141ms_happy
,EMOCONPILOT003,0.8255964999552816,1.0,happy,happy,141ms,57.0,56.0,1.0,141ms_happy
,EMOCONPILOT003,0.7038352000527084,1.0,happy,happy,141ms,63.0,62.0,1.0,141ms_happy
,EMOCONPILOT003,0.4793753999983892,1.0,happy,happy,141ms,69.0,68.0,1.0,141ms_happy
,EMOCONPILOT003,0.7517031999304891,1.0,sad,sad,141ms,80.0,79.0,1.0,141ms_sad
,EMOCONPILOT003,0.7584322999464348,1.0,happy,happy,141ms,83.0,82.0,1.0,141ms_happy
,EMOCONPILOT003,0.7428663000464439,1.0,sad,sad,141ms,89.0,88.0,1.0,141ms_sad
,EMOCONPILOT003,1.2893533000024036,0.0,neutral,sad,141ms,94.0,93.0,1.0,141ms_sad
,EMOCONPILOT003,0.7568726999452338,1.0,sad,sad,141ms,100.0,99.0,1.0,141ms_sad
,EMOCONPILOT003,0.5069038999499753,1.0,sad,sad,141ms,109.0,108.0,1.0,141ms_sad
,EMOCONPILOT003,0.5985306999646127,1.0,sad,sad,141ms,111.0,110.0,1.0,141ms_sad
,EMOCONPILOT003,0.7684739000396803,1.0,sad,sad,141ms,124.0,3.0,2.0,141ms_sad
,EMOCONPILOT003,0.6415159000316635,1.0,happy,happy,141ms,134.0,13.0,2.0,141ms_happy
,EMOCONPILOT003,1.362657899968326,0.0,neutral,sad,141ms,139.0,18.0,2.0,141ms_sad
,EMOCONPILOT003,0.6629511999199167,1.0,happy,happy,141ms,140.0,19.0,2.0,141ms_happy
,EMOCONPILOT003,0.5974573000567034,1.0,happy,happy,141ms,142.0,21.0,2.0,141ms_happy
,EMOCONPILOT003,0.7189330999972299,1.0,sad,sad,141ms,149.0,28.0,2.0,141ms_sad
,EMOCONPILOT003,0.5810494000324979,1.0,happy,happy,141ms,160.0,39.0,2.0,141ms_happy
,EMOCONPILOT003,0.6708770000841469,1.0,happy,happy,141ms,163.0,42.0,2.0,141ms_happy
,EMOCONPILOT003,1.2694189000176266,0.0,neutral,sad,141ms,165.0,44.0,2.0,141ms_sad
,EMOCONPILOT003,0.6051234999904409,1.0,happy,happy,141ms,173.0,52.0,2.0,141ms_happy
,EMOCONPILOT003,0.5142400000477211,1.0,happy,happy,141ms,174.0,53.0,2.0,141ms_happy
,EMOCONPILOT003,0.4466750000137836,1.0,happy,happy,141ms,176.0,55.0,2.0,141ms_happy
,EMOCONPILOT003,0.6752869000192732,1.0,sad,sad,141ms,178.0,57.0,2.0,141ms_sad
,EMOCONPILOT003,0.6841011999640614,1.0,sad,sad,141ms,180.0,59.0,2.0,141ms_sad
,EMOCONPILOT003,0.6574320000363514,1.0,sad,sad,141ms,182.0,61.0,2.0,141ms_sad
,EMOCONPILOT003,0.654674299992621,1.0,sad,sad,141ms,184.0,63.0,2.0,141ms_sad
,EMOCONPILOT003,0.6570093000773339,1.0,happy,happy,141ms,185.0,64.0,2.0,141ms_happy
,EMOCONPILOT003,0.5655109999934211,1.0,happy,happy,141ms,200.0,79.0,2.0,141ms_happy
,EMOCONPILOT003,0.36428970005363226,1.0,happy,happy,141ms,204.0,83.0,2.0,141ms_happy
,EMOCONPILOT003,0.6564956000074744,1.0,sad,sad,141ms,208.0,87.0,2.0,141ms_sad
,EMOCONPILOT003,0.5558696000371128,1.0,sad,sad,141ms,209.0,88.0,2.0,141ms_sad
,EMOCONPILOT003,0.4991888999938965,1.0,happy,happy,141ms,211.0,90.0,2.0,141ms_happy
,EMOCONPILOT003,0.44302919995971024,1.0,sad,sad,141ms,212.0,91.0,2.0,141ms_sad
,EMOCONPILOT003,0.6820808000629768,1.0,happy,happy,141ms,217.0,96.0,2.0,141ms_happy
,EMOCONPILOT003,0.9167787000769748,0.0,neutral,sad,141ms,218.0,97.0,2.0,141ms_sad
,EMOCONPILOT003,0.9682343000313268,1.0,sad,sad,141ms,219.0,98.0,2.0,141ms_sad
,EMOCONPILOT003,0.6212166999466717,1.0,happy,happy,141ms,222.0,101.0,2.0,141ms_happy
,EMOCONPILOT003,0.5425455999793485,1.0,happy,happy,141ms,225.0,104.0,2.0,141ms_happy
,EMOCONPILOT003,0.6078337000217289,1.0,sad,sad,141ms,227.0,106.0,2.0,141ms_sad
,EMOCONPILOT003,0.7928907000459731,1.0,sad,sad,141ms,243.0,2.0,3.0,141ms_sad
,EMOCONPILOT003,0.9959653000114486,1.0,sad,sad,141ms,245.0,4.0,3.0,141ms_sad
,EMOCONPILOT003,0.6417431000154465,1.0,happy,happy,141ms,264.0,23.0,3.0,141ms_happy
,EMOCONPILOT003,0.5472495999420062,1.0,happy,happy,141ms,269.0,28.0,3.0,141ms_happy
,EMOCONPILOT003,0.4737183999968693,1.0,sad,sad,141ms,273.0,32.0,3.0,141ms_sad
,EMOCONPILOT003,0.4646068000001833,1.0,sad,sad,141ms,274.0,33.0,3.0,141ms_sad
,EMOCONPILOT003,0.7129902000306174,1.0,sad,sad,141ms,283.0,42.0,3.0,141ms_sad
,EMOCONPILOT003,0.7751580000622198,1.0,happy,happy,141ms,285.0,44.0,3.0,141ms_happy
,EMOCONPILOT003,0.6024584000697359,1.0,sad,sad,141ms,286.0,45.0,3.0,141ms_sad
,EMOCONPILOT003,0.5539887000340968,1.0,sad,sad,141ms,288.0,47.0,3.0,141ms_sad
,EMOCONPILOT003,0.8591126000974327,1.0,happy,happy,141ms,292.0,51.0,3.0,141ms_happy
,EMOCONPILOT003,0.5455481000244617,1.0,happy,happy,141ms,296.0,55.0,3.0,141ms_happy
,EMOCONPILOT003,0.5168973999097943,1.0,happy,happy,141ms,300.0,59.0,3.0,141ms_happy
,EMOCONPILOT003,0.6795236000325531,1.0,sad,sad,141ms,313.0,72.0,3.0,141ms_sad
,EMOCONPILOT003,0.530720999930054,1.0,happy,happy,141ms,315.0,74.0,3.0,141ms_happy
,EMOCONPILOT003,0.4279731999849901,1.0,happy,happy,141ms,320.0,79.0,3.0,141ms_happy
,EMOCONPILOT003,0.4728954000165686,1.0,happy,happy,141ms,322.0,81.0,3.0,141ms_happy
,EMOCONPILOT003,0.4092398000648245,1.0,happy,happy,141ms,324.0,83.0,3.0,141ms_happy
,EMOCONPILOT003,0.496152599924244,1.0,happy,happy,141ms,326.0,85.0,3.0,141ms_happy
,EMOCONPILOT003,0.5353305999888107,1.0,sad,sad,141ms,327.0,86.0,3.0,141ms_sad
,EMOCONPILOT003,1.0097614999394864,1.0,sad,sad,141ms,330.0,89.0,3.0,141ms_sad
,EMOCONPILOT003,0.5496495000552386,1.0,happy,happy,141ms,339.0,98.0,3.0,141ms_happy
,EMOCONPILOT003,0.4824826999101788,1.0,happy,happy,141ms,346.0,105.0,3.0,141ms_happy
,EMOCONPILOT003,0.5929269000189379,1.0,sad,sad,141ms,350.0,109.0,3.0,141ms_sad
,EMOCONPILOT003,0.4635448000626639,1.0,happy,happy,141ms,353.0,112.0,3.0,141ms_happy
,EMOCONPILOT003,0.5881913000484928,1.0,sad,sad,141ms,354.0,113.0,3.0,141ms_sad
,EMOCONPILOT003,0.6951764000114053,1.0,sad,sad,141ms,356.0,115.0,3.0,141ms_sad
,EMOCONPILOT003,0.6014834999805316,1.0,sad,sad,141ms,357.0,116.0,3.0,141ms_sad
,EMOCONPILOT003,0.560245200060308,1.0,happy,happy,141ms,360.0,119.0,3.0,141ms_happy
,EMOCONPILOT004,1.3879016000428237,1.0,happy,happy,8ms,242.0,1.0,3.0,8ms_happy
,EMOCONPILOT004,0.8724921999964863,1.0,happy,happy,8ms,264.0,23.0,3.0,8ms_happy
,EMOCONPILOT004,0.6508377999998629,1.0,happy,happy,8ms,326.0,85.0,3.0,8ms_happy
,EMOCONPILOT004,1.055201900016982,1.0,sad,sad,8ms,354.0,113.0,3.0,8ms_sad
,EMOCONPILOT004,1.3957753999857232,0.0,sad,neutral,16ms,126.0,5.0,2.0,16ms_neutral
,EMOCONPILOT004,1.227323700033594,0.0,neutral,sad,16ms,129.0,8.0,2.0,16ms_sad
,EMOCONPILOT004,0.7292710000183433,0.0,neutral,sad,16ms,130.0,9.0,2.0,16ms_sad
,EMOCONPILOT004,1.3009317999822088,1.0,neutral,neutral,16ms,131.0,10.0,2.0,16ms_neutral
,EMOCONPILOT004,0.7957614000188187,1.0,sad,sad,16ms,133.0,12.0,2.0,16ms_sad
,EMOCONPILOT004,1.2000411999761127,0.0,neutral,happy,16ms,134.0,13.0,2.0,16ms_happy
,EMOCONPILOT004,1.1841696000192314,0.0,happy,neutral,16ms,136.0,15.0,2.0,16ms_neutral
,EMOCONPILOT004,0.7347721999976784,1.0,neutral,neutral,16ms,137.0,16.0,2.0,16ms_neutral
,EMOCONPILOT004,1.2852265000110492,0.0,neutral,happy,16ms,138.0,17.0,2.0,16ms_happy
,EMOCONPILOT004,1.3345478000119328,0.0,neutral,sad,16ms,139.0,18.0,2.0,16ms_sad
,EMOCONPILOT004,0.7248255999875255,1.0,happy,happy,16ms,141.0,20.0,2.0,16ms_happy
,EMOCONPILOT004,0.573244099970907,1.0,happy,happy,16ms,142.0,21.0,2.0,16ms_happy
,EMOCONPILOT004,1.096443799964618,0.0,sad,neutral,16ms,144.0,23.0,2.0,16ms_neutral
,EMOCONPILOT004,0.7567620000336319,1.0,neutral,neutral,16ms,145.0,24.0,2.0,16ms_neutral
,EMOCONPILOT004,1.474954199977219,1.0,neutral,neutral,16ms,147.0,26.0,2.0,16ms_neutral
,EMOCONPILOT004,0.7868564000236802,0.0,neutral,sad,16ms,149.0,28.0,2.0,16ms_sad
,EMOCONPILOT004,0.8137734000338241,1.0,happy,happy,16ms,151.0,30.0,2.0,16ms_happy
,EMOCONPILOT004,1.0467605000012554,1.0,neutral,neutral,16ms,158.0,37.0,2.0,16ms_neutral
,EMOCONPILOT004,1.289406299998518,0.0,happy,neutral,16ms,162.0,41.0,2.0,16ms_neutral
,EMOCONPILOT004,0.8250390000175685,1.0,happy,happy,16ms,173.0,52.0,2.0,16ms_happy
,EMOCONPILOT004,1.0363582000136375,1.0,happy,happy,16ms,174.0,53.0,2.0,16ms_happy
,EMOCONPILOT004,1.2268729000352323,1.0,happy,happy,16ms,175.0,54.0,2.0,16ms_happy
,EMOCONPILOT004,1.4074548000353388,0.0,sad,neutral,16ms,183.0,62.0,2.0,16ms_neutral
,EMOCONPILOT004,0.5881376999896021,1.0,happy,happy,16ms,185.0,64.0,2.0,16ms_happy
,EMOCONPILOT004,1.02115089999279,0.0,sad,neutral,16ms,186.0,65.0,2.0,16ms_neutral
,EMOCONPILOT004,0.9103725000168196,1.0,sad,sad,16ms,189.0,68.0,2.0,16ms_sad
,EMOCONPILOT004,1.3562005000421775,1.0,neutral,neutral,16ms,193.0,72.0,2.0,16ms_neutral
,EMOCONPILOT004,0.7736255000345409,1.0,sad,sad,16ms,194.0,73.0,2.0,16ms_sad
,EMOCONPILOT004,1.094543200044427,1.0,sad,sad,16ms,196.0,75.0,2.0,16ms_sad
,EMOCONPILOT004,1.2477356999879703,0.0,happy,sad,16ms,198.0,77.0,2.0,16ms_sad
,EMOCONPILOT004,0.7664050000021234,1.0,neutral,neutral,16ms,199.0,78.0,2.0,16ms_neutral
,EMOCONPILOT004,0.6490491000004113,1.0,happy,happy,16ms,203.0,82.0,2.0,16ms_happy
,EMOCONPILOT004,0.5286640999838711,1.0,happy,happy,16ms,204.0,83.0,2.0,16ms_happy
,EMOCONPILOT004,0.9242327999672852,1.0,neutral,neutral,16ms,205.0,84.0,2.0,16ms_neutral
,EMOCONPILOT004,0.6660441000130959,1.0,neutral,neutral,16ms,206.0,85.0,2.0,16ms_neutral
,EMOCONPILOT004,0.5557276000035927,1.0,happy,happy,16ms,207.0,86.0,2.0,16ms_happy
,EMOCONPILOT004,0.8473897000076249,1.0,happy,happy,16ms,211.0,90.0,2.0,16ms_happy
,EMOCONPILOT004,1.3443423999706283,0.0,happy,sad,16ms,213.0,92.0,2.0,16ms_sad
,EMOCONPILOT004,1.0135926999500953,1.0,sad,sad,16ms,220.0,99.0,2.0,16ms_sad
,EMOCONPILOT004,0.6511426999932155,1.0,neutral,neutral,16ms,221.0,100.0,2.0,16ms_neutral
,EMOCONPILOT004,0.8136836999910884,0.0,neutral,sad,16ms,223.0,102.0,2.0,16ms_sad
,EMOCONPILOT004,0.7590478000347503,1.0,neutral,neutral,16ms,224.0,103.0,2.0,16ms_neutral
,EMOCONPILOT004,0.929982600035146,1.0,neutral,neutral,16ms,226.0,105.0,2.0,16ms_neutral
,EMOCONPILOT004,1.3535590999526903,1.0,happy,happy,16ms,228.0,107.0,2.0,16ms_happy
,EMOCONPILOT004,0.6630769000039436,0.0,neutral,sad,16ms,229.0,108.0,2.0,16ms_sad
,EMOCONPILOT004,1.2357706999755464,1.0,sad,sad,16ms,230.0,109.0,2.0,16ms_sad
,EMOCONPILOT004,0.6105421999818645,1.0,happy,happy,16ms,231.0,110.0,2.0,16ms_happy
,EMOCONPILOT004,0.7888097999966703,1.0,neutral,neutral,16ms,232.0,111.0,2.0,16ms_neutral
,EMOCONPILOT004,1.111726799979806,1.0,sad,sad,16ms,235.0,114.0,2.0,16ms_sad
,EMOCONPILOT004,1.3771387999877334,0.0,neutral,happy,16ms,236.0,115.0,2.0,16ms_happy
,EMOCONPILOT004,0.9820541999652048,0.0,sad,neutral,16ms,237.0,116.0,2.0,16ms_neutral
,EMOCONPILOT004,0.9652015999890864,0.0,sad,neutral,16ms,238.0,117.0,2.0,16ms_neutral
,EMOCONPILOT004,0.9324923999956808,0.0,neutral,sad,25ms,5.0,4.0,1.0,25ms_sad
,EMOCONPILOT004,1.229079799959436,1.0,neutral,neutral,25ms,8.0,7.0,1.0,25ms_neutral
,EMOCONPILOT004,0.5706290999660268,0.0,neutral,happy,25ms,11.0,10.0,1.0,25ms_happy
,EMOCONPILOT004,0.8567617000080645,1.0,sad,sad,25ms,22.0,21.0,1.0,25ms_sad
,EMOCONPILOT004,0.6010353000019677,1.0,neutral,neutral,25ms,30.0,29.0,1.0,25ms_neutral
,EMOCONPILOT004,0.7130561999510974,1.0,neutral,neutral,25ms,31.0,30.0,1.0,25ms_neutral
,EMOCONPILOT004,1.2349550000508316,0.0,neutral,sad,25ms,37.0,36.0,1.0,25ms_sad
,EMOCONPILOT004,0.4588482000399381,1.0,neutral,neutral,25ms,38.0,37.0,1.0,25ms_neutral
,EMOCONPILOT004,0.5215213000192307,1.0,neutral,neutral,25ms,49.0,48.0,1.0,25ms_neutral
,EMOCONPILOT004,0.707133200019598,1.0,neutral,neutral,25ms,53.0,52.0,1.0,25ms_neutral
,EMOCONPILOT004,1.2918535000062548,1.0,neutral,neutral,25ms,55.0,54.0,1.0,25ms_neutral
,EMOCONPILOT004,0.934983299986925,1.0,happy,happy,25ms,72.0,71.0,1.0,25ms_happy
,EMOCONPILOT004,0.7325748999719508,1.0,sad,sad,25ms,74.0,73.0,1.0,25ms_sad
,EMOCONPILOT004,1.0204400000511669,0.0,neutral,sad,25ms,76.0,75.0,1.0,25ms_sad
,EMOCONPILOT004,0.5284999999566935,1.0,happy,happy,25ms,79.0,78.0,1.0,25ms_happy
,EMOCONPILOT004,1.13907219999237,1.0,neutral,neutral,25ms,97.0,96.0,1.0,25ms_neutral
,EMOCONPILOT004,0.5947939000325277,1.0,happy,happy,25ms,98.0,97.0,1.0,25ms_happy
,EMOCONPILOT004,1.271052900003269,1.0,neutral,neutral,25ms,101.0,100.0,1.0,25ms_neutral
,EMOCONPILOT004,1.0524789000046442,0.0,happy,sad,25ms,102.0,101.0,1.0,25ms_sad
,EMOCONPILOT004,0.4583048999775201,1.0,happy,happy,25ms,103.0,102.0,1.0,25ms_happy
,EMOCONPILOT004,0.6139366999850608,1.0,sad,sad,25ms,104.0,103.0,1.0,25ms_sad
,EMOCONPILOT004,0.7480122999986634,0.0,neutral,sad,25ms,105.0,104.0,1.0,25ms_sad
,EMOCONPILOT004,0.5317213999805972,1.0,happy,happy,25ms,108.0,107.0,1.0,25ms_happy
,EMOCONPILOT004,0.6121500000008382,1.0,neutral,neutral,25ms,110.0,109.0,1.0,25ms_neutral
,EMOCONPILOT004,0.4773397000390105,1.0,happy,happy,25ms,112.0,111.0,1.0,25ms_happy
,EMOCONPILOT004,0.6770562999881804,0.0,neutral,sad,25ms,114.0,113.0,1.0,25ms_sad
,EMOCONPILOT004,0.5373839000239968,1.0,happy,happy,25ms,116.0,115.0,1.0,25ms_happy
,EMOCONPILOT004,0.6751523999846539,1.0,sad,sad,25ms,117.0,116.0,1.0,25ms_sad
,EMOCONPILOT004,0.5893425000249408,1.0,neutral,neutral,25ms,118.0,117.0,1.0,25ms_neutral
,EMOCONPILOT004,0.3632255999837071,0.0,neutral,sad,141ms,17.0,16.0,1.0,141ms_sad
,EMOCONPILOT004,0.645959599991329,1.0,sad,sad,141ms,23.0,22.0,1.0,141ms_sad
,EMOCONPILOT004,0.8285025000222959,1.0,happy,happy,141ms,24.0,23.0,1.0,141ms_happy
,EMOCONPILOT004,0.4150555999949575,1.0,happy,happy,141ms,25.0,24.0,1.0,141ms_happy
,EMOCONPILOT004,0.4746550000272691,1.0,happy,happy,141ms,27.0,26.0,1.0,141ms_happy
,EMOCONPILOT004,0.3565480999532156,1.0,happy,happy,141ms,28.0,27.0,1.0,141ms_happy
,EMOCONPILOT004,1.1665763999917544,0.0,neutral,sad,141ms,39.0,38.0,1.0,141ms_sad
,EMOCONPILOT004,0.3104084000224248,1.0,happy,happy,141ms,43.0,42.0,1.0,141ms_happy
,EMOCONPILOT004,0.6315827000071295,1.0,sad,sad,141ms,44.0,43.0,1.0,141ms_sad
,EMOCONPILOT004,1.0490347999730147,1.0,happy,happy,141ms,45.0,44.0,1.0,141ms_happy
,EMOCONPILOT004,0.5801857999758795,1.0,sad,sad,141ms,46.0,45.0,1.0,141ms_sad
,EMOCONPILOT004,0.6402767999679781,1.0,happy,happy,141ms,51.0,50.0,1.0,141ms_happy
,EMOCONPILOT004,0.4241800000309013,1.0,happy,happy,141ms,57.0,56.0,1.0,141ms_happy
,EMOCONPILOT004,0.9239549000049008,0.0,neutral,sad,141ms,61.0,60.0,1.0,141ms_sad
,EMOCONPILOT004,0.4974463999969885,1.0,happy,happy,141ms,63.0,62.0,1.0,141ms_happy
,EMOCONPILOT004,0.5474816000205465,1.0,happy,happy,141ms,65.0,64.0,1.0,141ms_happy
,EMOCONPILOT004,1.0720631000003775,1.0,sad,sad,141ms,66.0,65.0,1.0,141ms_sad
,EMOCONPILOT004,0.3525994999799877,1.0,happy,happy,141ms,69.0,68.0,1.0,141ms_happy
,EMOCONPILOT004,0.9583330999594182,1.0,sad,sad,141ms,70.0,69.0,1.0,141ms_sad
,EMOCONPILOT004,0.4085000000195578,0.0,neutral,sad,141ms,78.0,77.0,1.0,141ms_sad
,EMOCONPILOT004,0.6484875999740325,0.0,neutral,sad,141ms,81.0,80.0,1.0,141ms_sad
,EMOCONPILOT004,0.9288813999737612,1.0,sad,sad,141ms,85.0,84.0,1.0,141ms_sad
,EMOCONPILOT004,0.4391162999672815,1.0,sad,sad,141ms,86.0,85.0,1.0,141ms_sad
,EMOCONPILOT004,0.5557659999467432,1.0,sad,sad,141ms,89.0,88.0,1.0,141ms_sad
,EMOCONPILOT004,0.5907273999764584,1.0,sad,sad,141ms,90.0,89.0,1.0,141ms_sad
,EMOCONPILOT004,1.4425673999940043,1.0,sad,sad,141ms,121.0,0.0,2.0,141ms_sad
,EMOCONPILOT004,1.172441300004721,1.0,sad,sad,141ms,124.0,3.0,2.0,141ms_sad
,EMOCONPILOT004,0.4990315000177361,0.0,neutral,sad,141ms,127.0,6.0,2.0,141ms_sad
,EMOCONPILOT004,0.3383928000112064,1.0,happy,happy,141ms,140.0,19.0,2.0,141ms_happy
,EMOCONPILOT004,0.4972733000176959,1.0,sad,sad,141ms,143.0,22.0,2.0,141ms_sad
,EMOCONPILOT004,0.4254941000253893,1.0,happy,happy,141ms,146.0,25.0,2.0,141ms_happy
,EMOCONPILOT004,0.5103030999889597,1.0,sad,sad,141ms,154.0,33.0,2.0,141ms_sad
,EMOCONPILOT004,0.7565399999730289,1.0,happy,happy,141ms,156.0,35.0,2.0,141ms_happy
,EMOCONPILOT004,0.3126710000215098,1.0,happy,happy,141ms,160.0,39.0,2.0,141ms_happy
,EMOCONPILOT004,0.3416931999963708,1.0,happy,happy,141ms,161.0,40.0,2.0,141ms_happy
,EMOCONPILOT004,0.34441929997410625,1.0,happy,happy,141ms,163.0,42.0,2.0,141ms_happy
,EMOCONPILOT004,0.7471369000268169,1.0,sad,sad,141ms,165.0,44.0,2.0,141ms_sad
,EMOCONPILOT004,0.5041101999813691,1.0,happy,happy,141ms,170.0,49.0,2.0,141ms_happy
,EMOCONPILOT004,0.7600671999971382,1.0,happy,happy,141ms,176.0,55.0,2.0,141ms_happy
,EMOCONPILOT004,0.805350599985104,1.0,sad,sad,141ms,178.0,57.0,2.0,141ms_sad
,EMOCONPILOT004,0.8200969999888912,0.0,neutral,sad,141ms,182.0,61.0,2.0,141ms_sad
,EMOCONPILOT004,0.9575389999663456,1.0,sad,sad,141ms,187.0,66.0,2.0,141ms_sad
,EMOCONPILOT004,0.5025912000564858,1.0,happy,happy,141ms,188.0,67.0,2.0,141ms_happy
,EMOCONPILOT004,0.4472092000069097,1.0,happy,happy,141ms,200.0,79.0,2.0,141ms_happy
,EMOCONPILOT004,0.4573786999681033,1.0,sad,sad,141ms,208.0,87.0,2.0,141ms_sad
,EMOCONPILOT004,0.31139669998083264,1.0,sad,sad,141ms,209.0,88.0,2.0,141ms_sad
,EMOCONPILOT004,0.5296846000128426,1.0,happy,happy,141ms,210.0,89.0,2.0,141ms_happy
,EMOCONPILOT004,0.4752735000220128,1.0,sad,sad,141ms,212.0,91.0,2.0,141ms_sad
,EMOCONPILOT004,0.43669810000574216,1.0,happy,happy,141ms,217.0,96.0,2.0,141ms_happy
,EMOCONPILOT004,0.6175200000288896,0.0,neutral,sad,141ms,219.0,98.0,2.0,141ms_sad
,EMOCONPILOT004,0.383901999972295,1.0,happy,happy,141ms,222.0,101.0,2.0,141ms_happy
,EMOCONPILOT004,0.6694396000239067,1.0,happy,happy,141ms,225.0,104.0,2.0,141ms_happy
,EMOCONPILOT004,0.8741984000080265,1.0,sad,sad,141ms,227.0,106.0,2.0,141ms_sad
,EMOCONPILOT004,0.6919247999903746,1.0,sad,sad,141ms,233.0,112.0,2.0,141ms_sad
,EMOCONPILOT004,0.3230535999755375,1.0,happy,happy,141ms,234.0,113.0,2.0,141ms_happy
,EMOCONPILOT004,0.4531833999790251,1.0,sad,sad,141ms,257.0,16.0,3.0,141ms_sad
,EMOCONPILOT004,0.6065064999856986,1.0,sad,sad,141ms,259.0,18.0,3.0,141ms_sad
,EMOCONPILOT004,0.5314482999965549,1.0,happy,happy,141ms,269.0,28.0,3.0,141ms_happy
,EMOCONPILOT004,0.5051351000438444,1.0,sad,sad,141ms,274.0,33.0,3.0,141ms_sad
,EMOCONPILOT004,0.8816404999815859,1.0,sad,sad,141ms,277.0,36.0,3.0,141ms_sad
,EMOCONPILOT004,0.7669802000164054,1.0,sad,sad,141ms,283.0,42.0,3.0,141ms_sad
,EMOCONPILOT004,0.3702989000012167,1.0,happy,happy,141ms,285.0,44.0,3.0,141ms_happy
,EMOCONPILOT004,0.8105713000404648,1.0,sad,sad,141ms,286.0,45.0,3.0,141ms_sad
,EMOCONPILOT004,0.6419461000477895,1.0,sad,sad,141ms,295.0,54.0,3.0,141ms_sad
,EMOCONPILOT004,0.4357203000108712,1.0,happy,happy,141ms,296.0,55.0,3.0,141ms_happy
,EMOCONPILOT004,1.0529574999818578,0.0,neutral,sad,141ms,301.0,60.0,3.0,141ms_sad
,EMOCONPILOT004,0.3985964999883436,1.0,happy,happy,141ms,305.0,64.0,3.0,141ms_happy
,EMOCONPILOT004,0.5434813000028953,0.0,neutral,sad,141ms,307.0,66.0,3.0,141ms_sad
,EMOCONPILOT004,0.9939188000280408,1.0,sad,sad,141ms,313.0,72.0,3.0,141ms_sad
,EMOCONPILOT004,0.4298189000110142,1.0,happy,happy,141ms,315.0,74.0,3.0,141ms_happy
,EMOCONPILOT004,0.8664414999657309,1.0,sad,sad,141ms,321.0,80.0,3.0,141ms_sad
,EMOCONPILOT004,0.3417786000063643,1.0,happy,happy,141ms,322.0,81.0,3.0,141ms_happy
,EMOCONPILOT004,0.5147692000027746,1.0,sad,sad,141ms,327.0,86.0,3.0,141ms_sad
,EMOCONPILOT004,0.7595061999745667,1.0,sad,sad,141ms,329.0,88.0,3.0,141ms_sad
,EMOCONPILOT004,0.3674630000023171,1.0,sad,sad,141ms,330.0,89.0,3.0,141ms_sad
,EMOCONPILOT004,0.9923511000233702,0.0,neutral,sad,141ms,336.0,95.0,3.0,141ms_sad
,EMOCONPILOT004,0.3516813999740407,1.0,happy,happy,141ms,339.0,98.0,3.0,141ms_happy
,EMOCONPILOT004,0.4421878000139259,1.0,sad,sad,141ms,340.0,99.0,3.0,141ms_sad
,EMOCONPILOT004,0.7852984999772161,1.0,happy,happy,141ms,344.0,103.0,3.0,141ms_happy
,EMOCONPILOT005_120HZ,1.3268898000242189,0.0,neutral,sad,8ms,243.0,2.0,3.0,8ms_sad
,EMOCONPILOT005_120HZ,0.8483653999865055,0.0,neutral,happy,8ms,249.0,8.0,3.0,8ms_happy
,EMOCONPILOT005_120HZ,0.956652499968186,1.0,neutral,neutral,8ms,252.0,11.0,3.0,8ms_neutral
,EMOCONPILOT005_120HZ,0.967775300028734,0.0,sad,neutral,8ms,254.0,13.0,3.0,8ms_neutral
,EMOCONPILOT005_120HZ,0.8086823000339791,0.0,neutral,sad,8ms,255.0,14.0,3.0,8ms_sad
,EMOCONPILOT005_120HZ,0.8380775999976322,1.0,happy,happy,8ms,256.0,15.0,3.0,8ms_happy
,EMOCONPILOT005_120HZ,0.8167453000787646,1.0,neutral,neutral,8ms,260.0,19.0,3.0,8ms_neutral
,EMOCONPILOT005_120HZ,0.5897111999802291,1.0,neutral,neutral,8ms,261.0,20.0,3.0,8ms_neutral
,EMOCONPILOT005_120HZ,0.6292705000378191,0.0,neutral,sad,8ms,262.0,21.0,3.0,8ms_sad
,EMOCONPILOT005_120HZ,0.7406324000330642,0.0,neutral,happy,8ms,264.0,23.0,3.0,8ms_happy
,EMOCONPILOT005_120HZ,0.989865200011991,1.0,neutral,neutral,8ms,265.0,24.0,3.0,8ms_neutral
,EMOCONPILOT005_120HZ,0.5228891000151634,0.0,neutral,happy,8ms,266.0,25.0,3.0,8ms_happy
,EMOCONPILOT005_120HZ,0.8223911001114175,1.0,neutral,neutral,8ms,268.0,27.0,3.0,8ms_neutral
,EMOCONPILOT005_120HZ,0.6090425000293179,0.0,neutral,sad,8ms,272.0,31.0,3.0,8ms_sad
,EMOCONPILOT005_120HZ,0.5309880999848247,0.0,neutral,sad,8ms,273.0,32.0,3.0,8ms_sad
,EMOCONPILOT005_120HZ,0.5056356999557465,0.0,neutral,sad,8ms,274.0,33.0,3.0,8ms_sad
,EMOCONPILOT005_120HZ,0.4626705000409856,1.0,neutral,neutral,8ms,275.0,34.0,3.0,8ms_neutral
,EMOCONPILOT005_120HZ,0.4107015000190586,0.0,neutral,happy,8ms,276.0,35.0,3.0,8ms_happy
,EMOCONPILOT005_120HZ,0.7000751999439672,0.0,neutral,happy,8ms,278.0,37.0,3.0,8ms_happy
,EMOCONPILOT005_120HZ,0.999418899999,1.0,neutral,neutral,8ms,279.0,38.0,3.0,8ms_neutral
,EMOCONPILOT005_120HZ,0.6898091000039129,1.0,happy,happy,8ms,282.0,41.0,3.0,8ms_happy
,EMOCONPILOT005_120HZ,1.3778259999817235,0.0,happy,sad,8ms,283.0,42.0,3.0,8ms_sad
,EMOCONPILOT005_120HZ,1.4324716000119224,0.0,neutral,sad,8ms,286.0,45.0,3.0,8ms_sad
,EMOCONPILOT005_120HZ,1.0456645999802276,1.0,neutral,neutral,8ms,287.0,46.0,3.0,8ms_neutral
,EMOCONPILOT005_120HZ,1.0250342999352142,1.0,neutral,neutral,8ms,291.0,50.0,3.0,8ms_neutral
,EMOCONPILOT005_120HZ,0.6774588000262156,1.0,neutral,neutral,8ms,294.0,53.0,3.0,8ms_neutral
,EMOCONPILOT005_120HZ,1.0356886000372472,0.0,neutral,happy,8ms,296.0,55.0,3.0,8ms_happy
,EMOCONPILOT005_120HZ,0.904541099909693,0.0,neutral,sad,8ms,297.0,56.0,3.0,8ms_sad
,EMOCONPILOT005_120HZ,0.6767657999880612,1.0,neutral,neutral,8ms,298.0,57.0,3.0,8ms_neutral
,EMOCONPILOT005_120HZ,0.7844720999710262,0.0,neutral,happy,8ms,300.0,59.0,3.0,8ms_happy
,EMOCONPILOT005_120HZ,0.5050596999935806,0.0,neutral,happy,8ms,303.0,62.0,3.0,8ms_happy
,EMOCONPILOT005_120HZ,0.5540320000145584,1.0,neutral,neutral,8ms,304.0,63.0,3.0,8ms_neutral
,EMOCONPILOT005_120HZ,0.662781999912113,0.0,neutral,sad,8ms,306.0,65.0,3.0,8ms_sad
,EMOCONPILOT005_120HZ,0.5925730000017211,0.0,neutral,sad,8ms,307.0,66.0,3.0,8ms_sad
,EMOCONPILOT005_120HZ,0.5739590999437496,1.0,neutral,neutral,8ms,309.0,68.0,3.0,8ms_neutral
,EMOCONPILOT005_120HZ,1.1351299999514597,0.0,happy,neutral,8ms,316.0,75.0,3.0,8ms_neutral
,EMOCONPILOT005_120HZ,1.2059649000875652,0.0,sad,happy,8ms,320.0,79.0,3.0,8ms_happy
,EMOCONPILOT005_120HZ,1.2205306000541896,1.0,neutral,neutral,8ms,323.0,82.0,3.0,8ms_neutral
,EMOCONPILOT005_120HZ,0.7799799999920651,0.0,neutral,happy,8ms,324.0,83.0,3.0,8ms_happy
,EMOCONPILOT005_120HZ,1.2610056999837975,1.0,happy,happy,8ms,326.0,85.0,3.0,8ms_happy
,EMOCONPILOT005_120HZ,1.2544374000281096,0.0,happy,sad,8ms,327.0,86.0,3.0,8ms_sad
,EMOCONPILOT005_120HZ,1.0455207999330014,0.0,neutral,sad,8ms,329.0,88.0,3.0,8ms_sad
,EMOCONPILOT005_120HZ,0.6038395999930799,0.0,neutral,sad,8ms,330.0,89.0,3.0,8ms_sad
,EMOCONPILOT005_120HZ,0.9864053999772296,0.0,neutral,sad,8ms,331.0,90.0,3.0,8ms_sad
,EMOCONPILOT005_120HZ,0.6841504999902099,1.0,neutral,neutral,8ms,334.0,93.0,3.0,8ms_neutral
,EMOCONPILOT005_120HZ,0.7418033999856561,0.0,happy,neutral,8ms,342.0,101.0,3.0,8ms_neutral
,EMOCONPILOT005_120HZ,1.1729197000386191,1.0,neutral,neutral,8ms,349.0,108.0,3.0,8ms_neutral
,EMOCONPILOT005_120HZ,0.9985331000061706,0.0,neutral,happy,8ms,352.0,111.0,3.0,8ms_happy
,EMOCONPILOT005_120HZ,0.861595300026238,1.0,neutral,neutral,8ms,355.0,114.0,3.0,8ms_neutral
,EMOCONPILOT005_120HZ,1.0702807001071049,0.0,happy,sad,8ms,356.0,115.0,3.0,8ms_sad
,EMOCONPILOT005_120HZ,0.6276023999089375,0.0,neutral,sad,8ms,358.0,117.0,3.0,8ms_sad
,EMOCONPILOT005_120HZ,1.0417975999880582,1.0,neutral,neutral,8ms,359.0,118.0,3.0,8ms_neutral
,EMOCONPILOT005_120HZ,0.7833820999367163,0.0,neutral,happy,8ms,360.0,119.0,3.0,8ms_happy
,EMOCONPILOT005_120HZ,1.266490499954671,0.0,neutral,happy,25ms,75.0,74.0,1.0,25ms_happy
,EMOCONPILOT005_120HZ,0.873388700070791,1.0,sad,sad,25ms,85.0,84.0,1.0,25ms_sad
,EMOCONPILOT005_120HZ,0.9443781999871136,1.0,sad,sad,25ms,89.0,88.0,1.0,25ms_sad
,EMOCONPILOT005_120HZ,1.2559375000419095,0.0,happy,sad,25ms,91.0,90.0,1.0,25ms_sad
,EMOCONPILOT005_120HZ,0.7755081000505015,0.0,happy,sad,25ms,93.0,92.0,1.0,25ms_sad
,EMOCONPILOT005_120HZ,1.2503957001026722,0.0,happy,neutral,25ms,97.0,96.0,1.0,25ms_neutral
,EMOCONPILOT005_120HZ,0.8469977000495419,1.0,sad,sad,25ms,102.0,101.0,1.0,25ms_sad
,EMOCONPILOT005_120HZ,0.8018096999730915,0.0,neutral,happy,25ms,108.0,107.0,1.0,25ms_happy
,EMOCONPILOT005_120HZ,1.0798877000343057,0.0,neutral,happy,25ms,116.0,115.0,1.0,25ms_happy
,EMOCONPILOT005_120HZ,1.2863044999539852,1.0,neutral,neutral,25ms,118.0,117.0,1.0,25ms_neutral
,EMOCONPILOT005_120HZ,1.2714140000753105,1.0,neutral,neutral,25ms,119.0,118.0,1.0,25ms_neutral
,EMOCONPILOT005_120HZ,0.8831377000315115,1.0,neutral,neutral,25ms,120.0,119.0,1.0,25ms_neutral
,EMOCONPILOT005_120HZ,0.4855167000787333,0.0,neutral,sad,16ms,133.0,12.0,2.0,16ms_sad
,EMOCONPILOT005_120HZ,1.2797028999775648,1.0,happy,happy,16ms,140.0,19.0,2.0,16ms_happy
,EMOCONPILOT005_120HZ,1.3245279000839218,0.0,happy,sad,16ms,143.0,22.0,2.0,16ms_sad
,EMOCONPILOT005_120HZ,0.6889412000309676,0.0,sad,happy,16ms,170.0,49.0,2.0,16ms_happy
,EMOCONPILOT005_120HZ,0.5263091999804601,0.0,neutral,happy,16ms,210.0,89.0,2.0,16ms_happy
,EMOCONPILOT005_120HZ,0.7590634999796748,1.0,neutral,neutral,16ms,221.0,100.0,2.0,16ms_neutral
,EMOCONPILOT005_120HZ,0.7458474999293685,0.0,neutral,sad,16ms,229.0,108.0,2.0,16ms_sad
,EMOCONPILOT005_120HZ,0.5882643000222743,1.0,happy,happy,25ms,4.0,3.0,1.0,25ms_happy
,EMOCONPILOT005_120HZ,1.0545587000669912,0.0,neutral,sad,25ms,6.0,5.0,1.0,25ms_sad
,EMOCONPILOT005_120HZ,0.9071335999760776,1.0,neutral,neutral,25ms,7.0,6.0,1.0,25ms_neutral
,EMOCONPILOT005_120HZ,0.4810393999796361,1.0,happy,happy,25ms,9.0,8.0,1.0,25ms_happy
,EMOCONPILOT005_120HZ,1.0056735000107435,1.0,sad,sad,25ms,12.0,11.0,1.0,25ms_sad
,EMOCONPILOT005_120HZ,0.6215404999675229,1.0,happy,happy,25ms,14.0,13.0,1.0,25ms_happy
,EMOCONPILOT005_120HZ,0.4430605999659747,1.0,happy,happy,25ms,15.0,14.0,1.0,25ms_happy
,EMOCONPILOT005_120HZ,0.5589635999640451,1.0,happy,happy,25ms,19.0,18.0,1.0,25ms_happy
,EMOCONPILOT005_120HZ,0.4459617999382317,1.0,happy,happy,25ms,20.0,19.0,1.0,25ms_happy
,EMOCONPILOT005_120HZ,0.5202683999668807,1.0,happy,happy,25ms,21.0,20.0,1.0,25ms_happy
,EMOCONPILOT005_120HZ,0.4961928999982774,1.0,happy,happy,25ms,24.0,23.0,1.0,25ms_happy
,EMOCONPILOT005_120HZ,0.6518989999312907,1.0,neutral,neutral,25ms,26.0,25.0,1.0,25ms_neutral
,EMOCONPILOT005_120HZ,0.5215274000074714,1.0,neutral,neutral,25ms,34.0,33.0,1.0,25ms_neutral
,EMOCONPILOT005_120HZ,0.9009359999326988,1.0,sad,sad,25ms,39.0,38.0,1.0,25ms_sad
,EMOCONPILOT005_120HZ,1.1440422000596298,1.0,sad,sad,25ms,41.0,40.0,1.0,25ms_sad
,EMOCONPILOT005_120HZ,0.6871423000702634,1.0,neutral,neutral,25ms,47.0,46.0,1.0,25ms_neutral
,EMOCONPILOT005_120HZ,1.0458936999784785,1.0,neutral,neutral,25ms,50.0,49.0,1.0,25ms_neutral
,EMOCONPILOT005_120HZ,0.495679899933748,1.0,happy,happy,25ms,51.0,50.0,1.0,25ms_happy
,EMOCONPILOT005_120HZ,0.5448871999979019,1.0,neutral,neutral,25ms,56.0,55.0,1.0,25ms_neutral
,EMOCONPILOT005_120HZ,0.6966108001070097,1.0,sad,sad,25ms,61.0,60.0,1.0,25ms_sad
,EMOCONPILOT005_120HZ,0.4929362999973818,1.0,neutral,neutral,25ms,62.0,61.0,1.0,25ms_neutral
,EMOCONPILOT005_120HZ,0.5537989999866113,1.0,happy,happy,25ms,63.0,62.0,1.0,25ms_happy
,EMOCONPILOT005_120HZ,0.5867822000291198,1.0,happy,happy,25ms,65.0,64.0,1.0,25ms_happy
,EMOCONPILOT005_120HZ,0.5612873999634758,1.0,happy,happy,25ms,67.0,66.0,1.0,25ms_happy
,EMOCONPILOT005_120HZ,0.7538927999557927,1.0,sad,sad,25ms,70.0,69.0,1.0,25ms_sad
,EMOCONPILOT005_120HZ,1.3193697000388056,0.0,neutral,sad,25ms,80.0,79.0,1.0,25ms_sad
,EMOCONPILOT005_120HZ,1.2435373000334948,0.0,happy,sad,25ms,86.0,85.0,1.0,25ms_sad
,EMOCONPILOT005_120HZ,0.916018099989742,0.0,happy,sad,25ms,111.0,110.0,1.0,25ms_sad
,EMOCONPILOT005_120HZ,0.7559214000357315,1.0,sad,sad,141ms,3.0,2.0,1.0,141ms_sad
,EMOCONPILOT005_120HZ,0.746078799944371,1.0,sad,sad,141ms,5.0,4.0,1.0,141ms_sad
,EMOCONPILOT005_120HZ,0.3771187999518588,1.0,neutral,neutral,141ms,8.0,7.0,1.0,141ms_neutral
,EMOCONPILOT005_120HZ,0.3810008999425918,1.0,neutral,neutral,141ms,10.0,9.0,1.0,141ms_neutral
,EMOCONPILOT005_120HZ,0.3314102999866009,1.0,happy,happy,141ms,11.0,10.0,1.0,141ms_happy
,EMOCONPILOT005_120HZ,0.5151105999248102,1.0,neutral,neutral,141ms,13.0,12.0,1.0,141ms_neutral
,EMOCONPILOT005_120HZ,0.3481839000014588,1.0,sad,sad,141ms,22.0,21.0,1.0,141ms_sad
,EMOCONPILOT005_120HZ,0.398859899956733,1.0,sad,sad,141ms,23.0,22.0,1.0,141ms_sad
,EMOCONPILOT005_120HZ,0.28183739993255585,1.0,happy,happy,141ms,25.0,24.0,1.0,141ms_happy
,EMOCONPILOT005_120HZ,0.2635730999754742,1.0,happy,happy,141ms,27.0,26.0,1.0,141ms_happy
,EMOCONPILOT005_120HZ,0.3556590999942273,1.0,happy,happy,141ms,28.0,27.0,1.0,141ms_happy
,EMOCONPILOT005_120HZ,0.44219309999607503,1.0,sad,sad,141ms,29.0,28.0,1.0,141ms_sad
,EMOCONPILOT005_120HZ,0.3961621000198648,1.0,neutral,neutral,141ms,30.0,29.0,1.0,141ms_neutral
,EMOCONPILOT005_120HZ,0.3714487999677658,1.0,neutral,neutral,141ms,31.0,30.0,1.0,141ms_neutral
,EMOCONPILOT005_120HZ,0.6582051999866962,1.0,neutral,neutral,141ms,32.0,31.0,1.0,141ms_neutral
,EMOCONPILOT005_120HZ,0.2976596000371501,1.0,neutral,neutral,141ms,33.0,32.0,1.0,141ms_neutral
,EMOCONPILOT005_120HZ,0.3474284000694752,1.0,neutral,neutral,141ms,38.0,37.0,1.0,141ms_neutral
,EMOCONPILOT005_120HZ,0.3157312000403181,1.0,neutral,neutral,141ms,40.0,39.0,1.0,141ms_neutral
,EMOCONPILOT005_120HZ,0.3477995999855921,1.0,happy,happy,141ms,42.0,41.0,1.0,141ms_happy
,EMOCONPILOT005_120HZ,0.417233599931933,1.0,happy,happy,141ms,43.0,42.0,1.0,141ms_happy
,EMOCONPILOT005_120HZ,0.4086179999867454,1.0,sad,sad,141ms,44.0,43.0,1.0,141ms_sad
,EMOCONPILOT005_120HZ,0.3458944000303745,1.0,happy,happy,141ms,45.0,44.0,1.0,141ms_happy
,EMOCONPILOT005_120HZ,0.4017841999884695,1.0,sad,sad,141ms,46.0,45.0,1.0,141ms_sad
,EMOCONPILOT005_120HZ,0.31439810001757,1.0,happy,happy,141ms,48.0,47.0,1.0,141ms_happy
,EMOCONPILOT005_120HZ,0.7938297999789938,1.0,neutral,neutral,141ms,49.0,48.0,1.0,141ms_neutral
,EMOCONPILOT005_120HZ,0.4337568000191823,1.0,neutral,neutral,141ms,55.0,54.0,1.0,141ms_neutral
,EMOCONPILOT005_120HZ,0.3570357999997213,1.0,happy,happy,141ms,57.0,56.0,1.0,141ms_happy
,EMOCONPILOT005_120HZ,0.3727833000011742,1.0,neutral,neutral,141ms,58.0,57.0,1.0,141ms_neutral
,EMOCONPILOT005_120HZ,0.33872430003248155,1.0,neutral,neutral,141ms,59.0,58.0,1.0,141ms_neutral
,EMOCONPILOT005_120HZ,0.3577802999643609,1.0,neutral,neutral,141ms,60.0,59.0,1.0,141ms_neutral
,EMOCONPILOT005_120HZ,0.3997653999831528,1.0,happy,happy,141ms,64.0,63.0,1.0,141ms_happy
,EMOCONPILOT005_120HZ,0.6247634999454021,1.0,sad,sad,141ms,66.0,65.0,1.0,141ms_sad
,EMOCONPILOT005_120HZ,0.3472314000828192,1.0,happy,happy,141ms,68.0,67.0,1.0,141ms_happy
,EMOCONPILOT005_120HZ,0.2890248999465257,1.0,happy,happy,141ms,69.0,68.0,1.0,141ms_happy
,EMOCONPILOT005_120HZ,0.430629099952057,1.0,happy,happy,141ms,72.0,71.0,1.0,141ms_happy
,EMOCONPILOT005_120HZ,0.30940869997721165,1.0,happy,happy,141ms,73.0,72.0,1.0,141ms_happy
,EMOCONPILOT005_120HZ,0.4425888999830931,1.0,sad,sad,141ms,74.0,73.0,1.0,141ms_sad
,EMOCONPILOT005_120HZ,0.4744090000167489,1.0,sad,sad,141ms,76.0,75.0,1.0,141ms_sad
,EMOCONPILOT005_120HZ,0.39319880004040897,0.0,sad,neutral,141ms,77.0,76.0,1.0,141ms_neutral
,EMOCONPILOT005_120HZ,0.5837616999633609,0.0,neutral,sad,141ms,78.0,77.0,1.0,141ms_sad
,EMOCONPILOT005_120HZ,0.4654369000345469,1.0,happy,happy,141ms,79.0,78.0,1.0,141ms_happy
,EMOCONPILOT005_120HZ,0.4381055999547243,1.0,happy,happy,141ms,83.0,82.0,1.0,141ms_happy
,EMOCONPILOT005_120HZ,0.6533844000659883,0.0,neutral,sad,141ms,84.0,83.0,1.0,141ms_sad
,EMOCONPILOT005_120HZ,0.373633399954997,1.0,happy,happy,141ms,88.0,87.0,1.0,141ms_happy
,EMOCONPILOT005_120HZ,0.6967751999618486,1.0,sad,sad,141ms,90.0,89.0,1.0,141ms_sad
,EMOCONPILOT005_120HZ,0.4892083000158891,1.0,neutral,neutral,141ms,92.0,91.0,1.0,141ms_neutral
,EMOCONPILOT005_120HZ,0.4937260000733658,0.0,neutral,sad,141ms,94.0,93.0,1.0,141ms_sad
,EMOCONPILOT005_120HZ,0.4897447000257671,1.0,sad,sad,141ms,96.0,95.0,1.0,141ms_sad
,EMOCONPILOT005_120HZ,0.3500846000388265,1.0,happy,happy,141ms,98.0,97.0,1.0,141ms_happy
,EMOCONPILOT005_120HZ,0.5334134000586346,1.0,neutral,neutral,141ms,99.0,98.0,1.0,141ms_neutral
,EMOCONPILOT005_120HZ,0.35809080000035465,1.0,happy,happy,141ms,103.0,102.0,1.0,141ms_happy
,EMOCONPILOT005_120HZ,0.5948726999340579,1.0,sad,sad,141ms,121.0,0.0,2.0,141ms_sad
,EMOCONPILOT005_120HZ,0.5507743000052869,1.0,sad,sad,141ms,124.0,3.0,2.0,141ms_sad
,EMOCONPILOT005_120HZ,0.5369981999974698,1.0,neutral,neutral,141ms,125.0,4.0,2.0,141ms_neutral
,EMOCONPILOT005_120HZ,0.5143907000310719,1.0,neutral,neutral,141ms,126.0,5.0,2.0,141ms_neutral
,EMOCONPILOT005_120HZ,0.7750945999287069,1.0,sad,sad,141ms,127.0,6.0,2.0,141ms_sad
,EMOCONPILOT005_120HZ,0.4626011999789626,1.0,neutral,neutral,141ms,128.0,7.0,2.0,141ms_neutral
,EMOCONPILOT005_120HZ,0.5615455999504775,1.0,sad,sad,141ms,130.0,9.0,2.0,141ms_sad
,EMOCONPILOT005_120HZ,0.6396860999520868,1.0,neutral,neutral,141ms,132.0,11.0,2.0,141ms_neutral
,EMOCONPILOT005_120HZ,0.4624226000159979,1.0,happy,happy,141ms,134.0,13.0,2.0,141ms_happy
,EMOCONPILOT005_120HZ,0.465696300030686,1.0,neutral,neutral,141ms,136.0,15.0,2.0,141ms_neutral
,EMOCONPILOT005_120HZ,0.6362296999432147,1.0,sad,sad,141ms,139.0,18.0,2.0,141ms_sad
,EMOCONPILOT005_120HZ,0.5692787999287248,1.0,neutral,neutral,141ms,144.0,23.0,2.0,141ms_neutral
,EMOCONPILOT005_120HZ,0.3393930000020191,1.0,neutral,neutral,141ms,145.0,24.0,2.0,141ms_neutral
,EMOCONPILOT005_120HZ,0.3687502999091521,1.0,happy,happy,141ms,146.0,25.0,2.0,141ms_happy
,EMOCONPILOT005_120HZ,0.3938921000808477,1.0,happy,happy,141ms,148.0,27.0,2.0,141ms_happy
,EMOCONPILOT005_120HZ,0.4229819999309257,0.0,neutral,sad,141ms,149.0,28.0,2.0,141ms_sad
,EMOCONPILOT005_120HZ,0.6397359999828041,1.0,happy,happy,141ms,150.0,29.0,2.0,141ms_happy
,EMOCONPILOT005_120HZ,0.4110024000983685,1.0,happy,happy,141ms,152.0,31.0,2.0,141ms_happy
,EMOCONPILOT005_120HZ,1.0228684999747202,1.0,sad,sad,141ms,154.0,33.0,2.0,141ms_sad
,EMOCONPILOT005_120HZ,0.5255973000312224,1.0,neutral,neutral,141ms,155.0,34.0,2.0,141ms_neutral
,EMOCONPILOT005_120HZ,0.3826496000401676,1.0,happy,happy,141ms,156.0,35.0,2.0,141ms_happy
,EMOCONPILOT005_120HZ,0.3353026000550017,1.0,neutral,neutral,141ms,157.0,36.0,2.0,141ms_neutral
,EMOCONPILOT005_120HZ,0.3326842000242323,1.0,happy,happy,141ms,159.0,38.0,2.0,141ms_happy
,EMOCONPILOT005_120HZ,0.5019190999446437,1.0,neutral,neutral,141ms,162.0,41.0,2.0,141ms_neutral
,EMOCONPILOT005_120HZ,0.362633700016886,1.0,happy,happy,141ms,163.0,42.0,2.0,141ms_happy
,EMOCONPILOT005_120HZ,0.880404100054875,1.0,happy,happy,141ms,164.0,43.0,2.0,141ms_happy
,EMOCONPILOT005_120HZ,0.5072394999442622,0.0,neutral,sad,141ms,165.0,44.0,2.0,141ms_sad
,EMOCONPILOT005_120HZ,0.4602546999230981,1.0,neutral,neutral,141ms,167.0,46.0,2.0,141ms_neutral
,EMOCONPILOT005_120HZ,0.3899147999472916,1.0,happy,happy,141ms,168.0,47.0,2.0,141ms_happy
,EMOCONPILOT005_120HZ,0.2814199000131339,1.0,neutral,neutral,141ms,169.0,48.0,2.0,141ms_neutral
,EMOCONPILOT005_120HZ,0.3773490000749007,1.0,happy,happy,141ms,171.0,50.0,2.0,141ms_happy
,EMOCONPILOT005_120HZ,0.3301384999649599,1.0,happy,happy,141ms,173.0,52.0,2.0,141ms_happy
,EMOCONPILOT005_120HZ,0.5702209000010043,1.0,happy,happy,141ms,174.0,53.0,2.0,141ms_happy
,EMOCONPILOT005_120HZ,0.5269361999817193,1.0,happy,happy,141ms,175.0,54.0,2.0,141ms_happy
,EMOCONPILOT005_120HZ,0.5767357000149786,1.0,happy,happy,141ms,176.0,55.0,2.0,141ms_happy
,EMOCONPILOT005_120HZ,0.4453357999445871,1.0,neutral,neutral,141ms,177.0,56.0,2.0,141ms_neutral
,EMOCONPILOT005_120HZ,0.5666455000173299,1.0,sad,sad,141ms,178.0,57.0,2.0,141ms_sad
,EMOCONPILOT005_120HZ,0.5785668001044542,1.0,sad,sad,141ms,180.0,59.0,2.0,141ms_sad
,EMOCONPILOT005_120HZ,1.0313974000746384,0.0,happy,sad,141ms,182.0,61.0,2.0,141ms_sad
,EMOCONPILOT005_120HZ,0.4769126999890432,1.0,neutral,neutral,141ms,183.0,62.0,2.0,141ms_neutral
,EMOCONPILOT005_120HZ,0.4084565999219194,1.0,sad,sad,141ms,184.0,63.0,2.0,141ms_sad
,EMOCONPILOT005_120HZ,0.3750199000351131,1.0,happy,happy,141ms,185.0,64.0,2.0,141ms_happy
,EMOCONPILOT005_120HZ,0.4482193000148982,1.0,sad,sad,141ms,189.0,68.0,2.0,141ms_sad
,EMOCONPILOT005_120HZ,0.6116805999772623,1.0,neutral,neutral,141ms,192.0,71.0,2.0,141ms_neutral
,EMOCONPILOT005_120HZ,0.5540257999673486,1.0,neutral,neutral,141ms,197.0,76.0,2.0,141ms_neutral
,EMOCONPILOT005_120HZ,0.5963192000053823,1.0,sad,sad,141ms,198.0,77.0,2.0,141ms_sad
,EMOCONPILOT005_120HZ,0.3602408999577165,1.0,neutral,neutral,141ms,199.0,78.0,2.0,141ms_neutral
,EMOCONPILOT005_120HZ,0.6111581999575719,1.0,neutral,neutral,141ms,201.0,80.0,2.0,141ms_neutral
,EMOCONPILOT005_120HZ,0.4794880000408739,1.0,happy,happy,141ms,204.0,83.0,2.0,141ms_happy
,EMOCONPILOT005_120HZ,0.4778215999249369,1.0,neutral,neutral,141ms,205.0,84.0,2.0,141ms_neutral
,EMOCONPILOT005_120HZ,0.3462764999130741,1.0,happy,happy,141ms,207.0,86.0,2.0,141ms_happy
,EMOCONPILOT005_120HZ,0.3952760000247508,1.0,happy,happy,141ms,211.0,90.0,2.0,141ms_happy
,EMOCONPILOT005_120HZ,1.0488927999977022,1.0,sad,sad,141ms,215.0,94.0,2.0,141ms_sad
,EMOCONPILOT005_120HZ,0.4066917999880389,1.0,neutral,neutral,141ms,216.0,95.0,2.0,141ms_neutral
,EMOCONPILOT005_120HZ,0.3865814000600949,1.0,happy,happy,141ms,217.0,96.0,2.0,141ms_happy
,EMOCONPILOT005_120HZ,0.6021524000680074,1.0,sad,sad,141ms,218.0,97.0,2.0,141ms_sad
,EMOCONPILOT005_120HZ,0.5612377999350429,1.0,sad,sad,141ms,219.0,98.0,2.0,141ms_sad
,EMOCONPILOT005_120HZ,0.4504549999255687,1.0,sad,sad,141ms,220.0,99.0,2.0,141ms_sad
,EMOCONPILOT005_120HZ,0.2834095999132842,1.0,happy,happy,141ms,222.0,101.0,2.0,141ms_happy
,EMOCONPILOT005_120HZ,0.8302523999009281,1.0,sad,sad,141ms,223.0,102.0,2.0,141ms_sad
,EMOCONPILOT005_120HZ,0.5428323999512941,1.0,happy,happy,141ms,241.0,0.0,3.0,141ms_happy
,EMOCONPILOT005_120HZ,0.4745375999482349,1.0,happy,happy,141ms,242.0,1.0,3.0,141ms_happy
,EMOCONPILOT005_120HZ,0.5303940000012517,0.0,neutral,sad,141ms,245.0,4.0,3.0,141ms_sad
,EMOCONPILOT005_120HZ,0.4202905000420287,1.0,neutral,neutral,141ms,246.0,5.0,3.0,141ms_neutral
,EMOCONPILOT005_120HZ,0.4050549999810755,1.0,neutral,neutral,141ms,247.0,6.0,3.0,141ms_neutral
,EMOCONPILOT005_120HZ,0.5271795999724418,1.0,happy,happy,141ms,250.0,9.0,3.0,141ms_happy
,EMOCONPILOT005_120HZ,0.4854853000724688,1.0,neutral,neutral,141ms,251.0,10.0,3.0,141ms_neutral
,EMOCONPILOT005_120HZ,0.5780841000378132,1.0,neutral,neutral,141ms,253.0,12.0,3.0,141ms_neutral
,EMOCONPILOT005_120HZ,0.602506099967286,1.0,sad,sad,141ms,257.0,16.0,3.0,141ms_sad
,EMOCONPILOT005_120HZ,0.5067888000048697,1.0,neutral,neutral,141ms,258.0,17.0,3.0,141ms_neutral
,EMOCONPILOT005_120HZ,0.4556515000294894,1.0,sad,sad,141ms,259.0,18.0,3.0,141ms_sad
,EMOCONPILOT005_120HZ,0.36996230005752295,1.0,happy,happy,141ms,263.0,22.0,3.0,141ms_happy
,EMOCONPILOT005_120HZ,0.8371624000137672,1.0,sad,sad,141ms,267.0,26.0,3.0,141ms_sad
,EMOCONPILOT005_120HZ,0.46512569999322295,1.0,happy,happy,141ms,269.0,28.0,3.0,141ms_happy
,EMOCONPILOT005_120HZ,0.37517889996524895,1.0,neutral,neutral,141ms,270.0,29.0,3.0,141ms_neutral
,EMOCONPILOT005_120HZ,0.3832533999811858,1.0,neutral,neutral,141ms,271.0,30.0,3.0,141ms_neutral
,EMOCONPILOT005_120HZ,0.8885781000135466,1.0,sad,sad,141ms,277.0,36.0,3.0,141ms_sad
,EMOCONPILOT005_120HZ,0.4889622000046074,1.0,neutral,neutral,141ms,280.0,39.0,3.0,141ms_neutral
,EMOCONPILOT005_120HZ,0.3634525000816211,1.0,neutral,neutral,141ms,281.0,40.0,3.0,141ms_neutral
,EMOCONPILOT005_120HZ,0.41097990004345775,1.0,happy,happy,141ms,284.0,43.0,3.0,141ms_happy
,EMOCONPILOT005_120HZ,0.3555761000607163,1.0,happy,happy,141ms,285.0,44.0,3.0,141ms_happy
,EMOCONPILOT005_120HZ,0.34081339999102056,1.0,sad,sad,141ms,288.0,47.0,3.0,141ms_sad
,EMOCONPILOT005_120HZ,0.5777581000002101,1.0,sad,sad,141ms,289.0,48.0,3.0,141ms_sad
,EMOCONPILOT005_120HZ,0.399858400109224,1.0,happy,happy,141ms,290.0,49.0,3.0,141ms_happy
,EMOCONPILOT005_120HZ,0.30361529998481274,1.0,happy,happy,141ms,292.0,51.0,3.0,141ms_happy
,EMOCONPILOT005_120HZ,0.4092842000536621,1.0,sad,sad,141ms,293.0,52.0,3.0,141ms_sad
,EMOCONPILOT005_120HZ,0.34059160004835576,1.0,sad,sad,141ms,295.0,54.0,3.0,141ms_sad
,EMOCONPILOT005_120HZ,0.326932099997066,1.0,happy,happy,141ms,299.0,58.0,3.0,141ms_happy
,EMOCONPILOT005_120HZ,1.441441500093788,1.0,sad,sad,141ms,301.0,60.0,3.0,141ms_sad
,EMOCONPILOT005_120HZ,0.3651687999954447,1.0,happy,happy,141ms,302.0,61.0,3.0,141ms_happy
,EMOCONPILOT005_120HZ,0.31987310003023595,1.0,happy,happy,141ms,305.0,64.0,3.0,141ms_happy
,EMOCONPILOT005_120HZ,0.42175969993695617,1.0,sad,sad,141ms,308.0,67.0,3.0,141ms_sad
,EMOCONPILOT005_120HZ,0.5013065000530332,1.0,neutral,neutral,141ms,310.0,69.0,3.0,141ms_neutral
,EMOCONPILOT005_120HZ,1.4558760999934748,1.0,happy,happy,141ms,311.0,70.0,3.0,141ms_happy
,EMOCONPILOT005_120HZ,0.4420293000293896,1.0,neutral,neutral,141ms,312.0,71.0,3.0,141ms_neutral
,EMOCONPILOT005_120HZ,0.3796307999873534,1.0,sad,sad,141ms,313.0,72.0,3.0,141ms_sad
,EMOCONPILOT005_120HZ,0.6073545999825001,1.0,neutral,neutral,141ms,314.0,73.0,3.0,141ms_neutral
,EMOCONPILOT005_120HZ,0.3633034999947995,1.0,happy,happy,141ms,315.0,74.0,3.0,141ms_happy
,EMOCONPILOT005_120HZ,0.3822312999982387,1.0,happy,happy,141ms,317.0,76.0,3.0,141ms_happy
,EMOCONPILOT005_120HZ,0.31013989995699376,1.0,happy,happy,141ms,318.0,77.0,3.0,141ms_happy
,EMOCONPILOT005_120HZ,0.3641112999757752,1.0,sad,sad,141ms,319.0,78.0,3.0,141ms_sad
,EMOCONPILOT005_120HZ,0.4535472999559715,1.0,sad,sad,141ms,321.0,80.0,3.0,141ms_sad
,EMOCONPILOT005_120HZ,0.3622407999355346,1.0,happy,happy,141ms,322.0,81.0,3.0,141ms_happy
,EMOCONPILOT005_120HZ,0.3144682999700308,1.0,happy,happy,141ms,325.0,84.0,3.0,141ms_happy
,EMOCONPILOT005_120HZ,0.6306433000136167,0.0,neutral,sad,141ms,328.0,87.0,3.0,141ms_sad
,EMOCONPILOT005_120HZ,0.4066405999474227,1.0,sad,sad,141ms,332.0,91.0,3.0,141ms_sad
,EMOCONPILOT005_120HZ,0.3997541000135243,1.0,happy,happy,141ms,333.0,92.0,3.0,141ms_happy
,EMOCONPILOT005_120HZ,0.41653909999877214,1.0,neutral,neutral,141ms,335.0,94.0,3.0,141ms_neutral
,EMOCONPILOT005_120HZ,0.4086604000767693,1.0,sad,sad,141ms,337.0,96.0,3.0,141ms_sad
,EMOCONPILOT005_120HZ,0.5426296000368893,1.0,neutral,neutral,141ms,338.0,97.0,3.0,141ms_neutral
,EMOCONPILOT005_120HZ,0.9294446000130848,1.0,sad,sad,141ms,341.0,100.0,3.0,141ms_sad
,EMOCONPILOT005_120HZ,0.4669566999655217,1.0,sad,sad,141ms,343.0,102.0,3.0,141ms_sad
,EMOCONPILOT005_120HZ,0.35759419994428754,1.0,happy,happy,141ms,344.0,103.0,3.0,141ms_happy
,EMOCONPILOT005_120HZ,0.5436329001095146,1.0,neutral,neutral,141ms,345.0,104.0,3.0,141ms_neutral
,EMOCONPILOT005_120HZ,1.1641809999709951,1.0,neutral,neutral,141ms,347.0,106.0,3.0,141ms_neutral
,EMOCONPILOT005_120HZ,0.3395485000219196,1.0,sad,sad,141ms,348.0,107.0,3.0,141ms_sad
,EMOCONPILOT005_120HZ,0.4602673000190407,1.0,happy,happy,141ms,353.0,112.0,3.0,141ms_happy
,EMOCONPILOT005_120HZ,0.394109099986963,1.0,sad,sad,141ms,354.0,113.0,3.0,141ms_sad
,EMOCONPILOT005_120HZ,0.4876311999978498,1.0,sad,sad,141ms,357.0,116.0,3.0,141ms_sad
,EMOCONPILOT006,0.8159640999510884,0.0,neutral,sad,8ms,245.0,4.0,3.0,8ms_sad
,EMOCONPILOT006,0.9068343000253662,1.0,neutral,neutral,8ms,246.0,5.0,3.0,8ms_neutral
,EMOCONPILOT006,0.7344057000009343,0.0,happy,neutral,8ms,247.0,6.0,3.0,8ms_neutral
,EMOCONPILOT006,0.6080547999590635,0.0,neutral,happy,8ms,250.0,9.0,3.0,8ms_happy
,EMOCONPILOT006,0.908288300037384,1.0,sad,sad,8ms,259.0,18.0,3.0,8ms_sad
,EMOCONPILOT006,1.4001927999779582,0.0,happy,neutral,8ms,261.0,20.0,3.0,8ms_neutral
,EMOCONPILOT006,0.6867394999135286,0.0,neutral,happy,8ms,264.0,23.0,3.0,8ms_happy
,EMOCONPILOT006,0.5283470000140369,1.0,neutral,neutral,8ms,265.0,24.0,3.0,8ms_neutral
,EMOCONPILOT006,0.5992961999727413,0.0,happy,sad,8ms,267.0,26.0,3.0,8ms_sad
,EMOCONPILOT006,0.639769300003536,0.0,neutral,happy,8ms,269.0,28.0,3.0,8ms_happy
,EMOCONPILOT006,1.311613900004886,1.0,neutral,neutral,8ms,270.0,29.0,3.0,8ms_neutral
,EMOCONPILOT006,0.689833499956876,1.0,neutral,neutral,8ms,271.0,30.0,3.0,8ms_neutral
,EMOCONPILOT006,0.4973750000353903,0.0,neutral,sad,8ms,272.0,31.0,3.0,8ms_sad
,EMOCONPILOT006,0.6645536000141874,0.0,neutral,happy,8ms,276.0,35.0,3.0,8ms_happy
,EMOCONPILOT006,0.6293942999327555,1.0,happy,happy,8ms,278.0,37.0,3.0,8ms_happy
,EMOCONPILOT006,0.756410300033167,0.0,happy,neutral,8ms,280.0,39.0,3.0,8ms_neutral
,EMOCONPILOT006,0.5665745999431238,1.0,neutral,neutral,8ms,281.0,40.0,3.0,8ms_neutral
,EMOCONPILOT006,0.6798716000048444,0.0,neutral,happy,8ms,282.0,41.0,3.0,8ms_happy
,EMOCONPILOT006,0.4836077999789268,0.0,happy,sad,8ms,283.0,42.0,3.0,8ms_sad
,EMOCONPILOT006,0.5846642999676988,0.0,neutral,happy,8ms,285.0,44.0,3.0,8ms_happy
,EMOCONPILOT006,0.5461806999519467,0.0,neutral,sad,8ms,286.0,45.0,3.0,8ms_sad
,EMOCONPILOT006,0.4489540999056771,1.0,neutral,neutral,8ms,287.0,46.0,3.0,8ms_neutral
,EMOCONPILOT006,0.5546233999775723,0.0,neutral,sad,8ms,288.0,47.0,3.0,8ms_sad
,EMOCONPILOT006,0.4435958999674767,0.0,neutral,sad,8ms,289.0,48.0,3.0,8ms_sad
,EMOCONPILOT006,0.5241562000010163,0.0,happy,neutral,8ms,291.0,50.0,3.0,8ms_neutral
,EMOCONPILOT006,0.4331359999487177,1.0,happy,happy,8ms,292.0,51.0,3.0,8ms_happy
,EMOCONPILOT006,0.500905100023374,0.0,happy,sad,8ms,293.0,52.0,3.0,8ms_sad
,EMOCONPILOT006,0.565302100032568,1.0,neutral,neutral,8ms,298.0,57.0,3.0,8ms_neutral
,EMOCONPILOT006,0.6971032000146806,0.0,neutral,happy,8ms,300.0,59.0,3.0,8ms_happy
,EMOCONPILOT006,0.5340265000704676,0.0,neutral,sad,8ms,301.0,60.0,3.0,8ms_sad
,EMOCONPILOT006,0.8101781000150368,0.0,neutral,happy,8ms,303.0,62.0,3.0,8ms_happy
,EMOCONPILOT006,0.5973377999616787,0.0,happy,neutral,8ms,304.0,63.0,3.0,8ms_neutral
,EMOCONPILOT006,0.5320427999831736,1.0,happy,happy,8ms,305.0,64.0,3.0,8ms_happy
,EMOCONPILOT006,0.4707125000422821,0.0,neutral,sad,8ms,306.0,65.0,3.0,8ms_sad
,EMOCONPILOT006,0.5639578000409529,0.0,neutral,sad,8ms,308.0,67.0,3.0,8ms_sad
,EMOCONPILOT006,1.0592578999930993,0.0,happy,neutral,8ms,310.0,69.0,3.0,8ms_neutral
,EMOCONPILOT006,0.5484597999602556,1.0,neutral,neutral,8ms,314.0,73.0,3.0,8ms_neutral
,EMOCONPILOT006,0.8848211000440642,1.0,neutral,neutral,8ms,316.0,75.0,3.0,8ms_neutral
,EMOCONPILOT006,0.6439486000454053,0.0,neutral,happy,8ms,317.0,76.0,3.0,8ms_happy
,EMOCONPILOT006,0.5183714000741021,0.0,neutral,happy,8ms,320.0,79.0,3.0,8ms_happy
,EMOCONPILOT006,0.4913565000751987,0.0,neutral,sad,8ms,321.0,80.0,3.0,8ms_sad
,EMOCONPILOT006,0.8461636999854818,1.0,happy,happy,8ms,325.0,84.0,3.0,8ms_happy
,EMOCONPILOT006,0.5673765999963507,0.0,neutral,happy,8ms,326.0,85.0,3.0,8ms_happy
,EMOCONPILOT006,0.5820297000464052,0.0,neutral,sad,8ms,327.0,86.0,3.0,8ms_sad
,EMOCONPILOT006,0.543059500050731,0.0,neutral,sad,8ms,329.0,88.0,3.0,8ms_sad
,EMOCONPILOT006,0.9556894999695942,1.0,sad,sad,8ms,330.0,89.0,3.0,8ms_sad
,EMOCONPILOT006,0.8757764999754727,0.0,neutral,sad,8ms,331.0,90.0,3.0,8ms_sad
,EMOCONPILOT006,0.6225449000485241,0.0,neutral,sad,8ms,332.0,91.0,3.0,8ms_sad
,EMOCONPILOT006,0.4436412999639288,0.0,neutral,happy,8ms,333.0,92.0,3.0,8ms_happy
,EMOCONPILOT006,0.3998580999905244,1.0,neutral,neutral,8ms,334.0,93.0,3.0,8ms_neutral
,EMOCONPILOT006,0.4712903000181541,0.0,neutral,sad,8ms,336.0,95.0,3.0,8ms_sad
,EMOCONPILOT006,0.4631594000384212,1.0,neutral,neutral,8ms,338.0,97.0,3.0,8ms_neutral
,EMOCONPILOT006,0.5078058000653982,0.0,neutral,sad,8ms,341.0,100.0,3.0,8ms_sad
,EMOCONPILOT006,0.5388919999822974,1.0,neutral,neutral,8ms,342.0,101.0,3.0,8ms_neutral
,EMOCONPILOT006,0.5878523999126628,0.0,neutral,sad,8ms,343.0,102.0,3.0,8ms_sad
,EMOCONPILOT006,0.4235223999712616,0.0,neutral,happy,8ms,344.0,103.0,3.0,8ms_happy
,EMOCONPILOT006,0.5561097000027075,1.0,neutral,neutral,8ms,345.0,104.0,3.0,8ms_neutral
,EMOCONPILOT006,0.5060594000387937,0.0,neutral,happy,8ms,346.0,105.0,3.0,8ms_happy
,EMOCONPILOT006,1.3688739999197423,0.0,neutral,happy,8ms,352.0,111.0,3.0,8ms_happy
,EMOCONPILOT006,0.5393421000335366,0.0,neutral,happy,8ms,353.0,112.0,3.0,8ms_happy
,EMOCONPILOT006,1.1954478999832645,0.0,neutral,sad,16ms,121.0,0.0,2.0,16ms_sad
,EMOCONPILOT006,1.0927316000452263,1.0,neutral,neutral,16ms,125.0,4.0,2.0,16ms_neutral
,EMOCONPILOT006,0.9455735000083224,1.0,neutral,neutral,16ms,126.0,5.0,2.0,16ms_neutral
,EMOCONPILOT006,0.5775996999582276,0.0,neutral,sad,16ms,127.0,6.0,2.0,16ms_sad
,EMOCONPILOT006,1.4653346999548376,0.0,neutral,sad,16ms,129.0,8.0,2.0,16ms_sad
,EMOCONPILOT006,0.6538916999706998,0.0,neutral,sad,16ms,130.0,9.0,2.0,16ms_sad
,EMOCONPILOT006,0.835807399940677,1.0,neutral,neutral,16ms,131.0,10.0,2.0,16ms_neutral
,EMOCONPILOT006,0.6749264999525622,0.0,happy,sad,16ms,133.0,12.0,2.0,16ms_sad
,EMOCONPILOT006,0.3903532000258565,1.0,happy,happy,16ms,134.0,13.0,2.0,16ms_happy
,EMOCONPILOT006,0.5516020000213757,0.0,happy,neutral,16ms,136.0,15.0,2.0,16ms_neutral
,EMOCONPILOT006,0.5136463000671938,1.0,neutral,neutral,16ms,137.0,16.0,2.0,16ms_neutral
,EMOCONPILOT006,0.5719650000100955,1.0,happy,happy,16ms,138.0,17.0,2.0,16ms_happy
,EMOCONPILOT006,0.5754049000097439,1.0,happy,happy,16ms,141.0,20.0,2.0,16ms_happy
,EMOCONPILOT006,0.5843404000625014,0.0,happy,neutral,16ms,145.0,24.0,2.0,16ms_neutral
,EMOCONPILOT006,0.7168115000240505,1.0,happy,happy,16ms,148.0,27.0,2.0,16ms_happy
,EMOCONPILOT006,0.4698511000024155,1.0,happy,happy,16ms,152.0,31.0,2.0,16ms_happy
,EMOCONPILOT006,0.4430263000540435,0.0,happy,neutral,16ms,153.0,32.0,2.0,16ms_neutral
,EMOCONPILOT006,0.7274935999885201,1.0,neutral,neutral,16ms,155.0,34.0,2.0,16ms_neutral
,EMOCONPILOT006,0.4643897999776527,1.0,happy,happy,16ms,156.0,35.0,2.0,16ms_happy
,EMOCONPILOT006,0.5587475000647828,0.0,happy,sad,16ms,165.0,44.0,2.0,16ms_sad
,EMOCONPILOT006,0.6171900000190362,0.0,happy,neutral,16ms,166.0,45.0,2.0,16ms_neutral
,EMOCONPILOT006,0.5189258001046255,1.0,happy,happy,16ms,170.0,49.0,2.0,16ms_happy
,EMOCONPILOT006,0.4409847999922931,1.0,happy,happy,16ms,173.0,52.0,2.0,16ms_happy
,EMOCONPILOT006,0.4855361999943853,1.0,happy,happy,16ms,174.0,53.0,2.0,16ms_happy
,EMOCONPILOT006,0.5498177000554278,0.0,happy,sad,16ms,178.0,57.0,2.0,16ms_sad
,EMOCONPILOT006,1.1739579000277445,1.0,sad,sad,16ms,180.0,59.0,2.0,16ms_sad
,EMOCONPILOT006,0.6069251000881195,0.0,happy,sad,16ms,182.0,61.0,2.0,16ms_sad
,EMOCONPILOT006,0.6302952999249101,1.0,neutral,neutral,16ms,183.0,62.0,2.0,16ms_neutral
,EMOCONPILOT006,0.5966951000737026,1.0,happy,happy,16ms,185.0,64.0,2.0,16ms_happy
,EMOCONPILOT006,0.6273686001077294,1.0,neutral,neutral,16ms,186.0,65.0,2.0,16ms_neutral
,EMOCONPILOT006,0.5526810999726877,1.0,happy,happy,16ms,188.0,67.0,2.0,16ms_happy
,EMOCONPILOT006,0.7227507999632508,1.0,neutral,neutral,16ms,197.0,76.0,2.0,16ms_neutral
,EMOCONPILOT006,0.6890205999370664,0.0,neutral,sad,16ms,198.0,77.0,2.0,16ms_sad
,EMOCONPILOT006,0.5524204999674112,1.0,neutral,neutral,16ms,199.0,78.0,2.0,16ms_neutral
,EMOCONPILOT006,0.4751655999571085,1.0,happy,happy,16ms,200.0,79.0,2.0,16ms_happy
,EMOCONPILOT006,0.5947996000759304,1.0,neutral,neutral,16ms,201.0,80.0,2.0,16ms_neutral
,EMOCONPILOT006,0.511202699970454,1.0,happy,happy,16ms,202.0,81.0,2.0,16ms_happy
,EMOCONPILOT006,0.4922979000257328,1.0,happy,happy,16ms,203.0,82.0,2.0,16ms_happy
,EMOCONPILOT006,0.6661020000465214,1.0,happy,happy,16ms,207.0,86.0,2.0,16ms_happy
,EMOCONPILOT006,0.7204393999418244,0.0,happy,neutral,16ms,214.0,93.0,2.0,16ms_neutral
,EMOCONPILOT006,0.5776774999685585,0.0,happy,sad,16ms,215.0,94.0,2.0,16ms_sad
,EMOCONPILOT006,1.359199299942702,0.0,neutral,sad,16ms,218.0,97.0,2.0,16ms_sad
,EMOCONPILOT006,1.1381903999717906,1.0,sad,sad,16ms,219.0,98.0,2.0,16ms_sad
,EMOCONPILOT006,0.5308096000226215,1.0,happy,happy,16ms,222.0,101.0,2.0,16ms_happy
,EMOCONPILOT006,0.6070274999365209,1.0,happy,happy,16ms,225.0,104.0,2.0,16ms_happy
,EMOCONPILOT006,0.9152342999586836,1.0,neutral,neutral,16ms,226.0,105.0,2.0,16ms_neutral
,EMOCONPILOT006,0.7227901999140158,1.0,happy,happy,16ms,228.0,107.0,2.0,16ms_happy
,EMOCONPILOT006,0.5195397000061348,0.0,happy,sad,16ms,229.0,108.0,2.0,16ms_sad
,EMOCONPILOT006,0.4838463000487536,0.0,happy,sad,16ms,230.0,109.0,2.0,16ms_sad
,EMOCONPILOT006,0.4286217000335455,1.0,happy,happy,16ms,231.0,110.0,2.0,16ms_happy
,EMOCONPILOT006,0.5217464999295771,0.0,happy,neutral,16ms,232.0,111.0,2.0,16ms_neutral
,EMOCONPILOT006,0.5714658000506461,0.0,happy,sad,16ms,233.0,112.0,2.0,16ms_sad
,EMOCONPILOT006,0.5027406999142839,1.0,happy,happy,16ms,234.0,113.0,2.0,16ms_happy
