trials_example.thisRepN,trials_example.thisTrialN,trials_example.thisN,trials_example.thisIndex,block.thisRepN,block.thisTrialN,block.thisN,block.thisIndex,trials_study.thisRepN,trials_study.thisTrialN,trials_study.thisN,trials_study.thisIndex,text_welcome.started,text_welcome.stopped,text_intro.started,text_intro.stopped,key_resp_intro.keys,key_resp_intro.started,key_resp_intro.stopped,text_intro2.started,text_intro2.stopped,key_resp_intro2.keys,key_resp_intro2.rt,key_resp_intro2.started,key_resp_intro2.stopped,example trial,personPrimeExample,genderPrimeExample,primeExample,emotionPrimeExample,corrAnsPrimeExample,example mask time,fix300_example.started,fix300_example.stopped,image_primer_example.started,image_primer_example.stopped,scrambled.started,scrambled.stopped,text_response_example.started,text_response_example.stopped,key_resp_example.keys,key_resp_example.corr,key_resp_example.started,key_resp_example.stopped,Jitter_example.started,Jitter_example.stopped,key_resp_example.rt,key_resp_example.rt in ms,text_start.started,text_start.stopped,text_pause.started,text_pause.stopped,key_resp_pause.keys,key_resp_pause.rt,key_resp_pause.rt in ms,key_resp_pause.started,key_resp_pause.stopped,study trial,personPrimeStudy,genderPrimeStudy,primeStudy,emotionPrimeStudy,corrAnsPrimeStudy,study mask time,Block,fix300_study.started,fix300_study.stopped,image_primer_study.started,image_primer_study.stopped,scrambled_study.started,scrambled_study.stopped,text_response_study.started,text_response_study.stopped,key_resp_study.keys,key_resp_study.corr,key_resp_study.rt,key_resp_study.rt in ms,key_resp_study.started,key_resp_study.stopped,Jitter_study.started,Jitter_study.stopped,participant,date,expName,psychopyVersion,frameRate,
,,,,,,,,,,,,201.06235049990937,204.0510545899393,204.05492899985984,209.71522569006774,None,204.05492899985984,209.71522569006774,,,,,,,,,,,,,,,,,,,,,,,,,,,,,,,,,,,,,,,,,,,,,,,,,,,,,,,,,,,,,,,EMOCONPILOT021,2021_Jan_04_1612,EmoCon_Pilot_120Hz,2020.2.4,119.96074876756988,
,,,,,,,,,,,,,,,,,,,209.71914159995504,212.90156589008402,a,3.1669991000089794,209.71914159995504,212.90156589008402,,,,,,,,,,,,,,,,,,,,,,,,,,,,,,,,,,,,,,,,,,,,,,,,,,,,,,,,,EMOCONPILOT021,2021_Jan_04_1612,EmoCon_Pilot_120Hz,2020.2.4,119.96074876756988,
0,0,0,0,,,,,,,,,,,,,,,,,,,,,,0,3.0,f,1113_y_f_s_a.jpg,sad,a,3,212.90552489995025,213.19271778992842,213.4328067000024,213.4581001899438,213.46264149993658,213.497154389997,213.4983294000849,215.10521278998348,None,0,213.4983294000849,215.10521278998348,215.10807679989375,216.259477489884,,,,,,,,,,,,,,,,,,,,,,,,,,,,,,,,,,,,EMOCONPILOT021,2021_Jan_04_1612,EmoCon_Pilot_120Hz,2020.2.4,119.96074876756988,
1,0,1,0,,,,,,,,,,,,,,,,,,,,,,1,1.0,m,1111_m_m_s_a.jpg,sad,a,17,216.26241800002754,216.55957328996155,216.76999489986338,216.92682648987974,216.92959730001166,216.9699096898781,216.97295630001463,217.64366849001962,d,0,216.97295630001463,217.64366849001962,217.64631680003367,219.11797108992468,0.6570824000518769,657.0824000518769,,,,,,,,,,,,,,,,,,,,,,,,,,,,,,,,,,EMOCONPILOT021,2021_Jan_04_1612,EmoCon_Pilot_120Hz,2020.2.4,119.96074876756988,
2,0,2,0,,,,,,,,,,,,,,,,,,,,,,2,3.0,f,1113_y_f_n_a.jpg,neutral,s,3,219.12051719985902,219.4178630900802,219.62514030002058,219.65115989001933,219.65143459988758,219.6862599898828,219.68697150005028,220.74602688990998,s,1,219.68697150005028,220.74602688990998,220.74868369987234,221.85956679007504,1.0470367998350412,1047.0367998350412,,,,,,,,,,,,,,,,,,,,,,,,,,,,,,,,,,EMOCONPILOT021,2021_Jan_04_1612,EmoCon_Pilot_120Hz,2020.2.4,119.96074876756988,
3,0,3,0,,,,,,,,,,,,,,,,,,,,,,3,2.0,f,1112_m_f_h_a.jpg,happy,d,17,221.86073939991184,222.15956998991314,222.36049930006266,222.52018019000533,222.52258129999973,222.560224589915,222.5631361999549,223.19710388991516,a,0,222.5631361999549,223.19710388991516,223.19736459990963,224.6346179899061,0.6188513000961393,618.8513000961393,,,,,,,,,,,,,,,,,,,,,,,,,,,,,,,,,,EMOCONPILOT021,2021_Jan_04_1612,EmoCon_Pilot_120Hz,2020.2.4,119.96074876756988,
4,0,4,0,,,,,,,,,,,,,,,,,,,,,,4,2.0,f,1112_m_f_n_a.jpg,neutral,s,3,224.63606410007924,224.93467878994997,225.1429431999568,225.16930608989205,225.16968789999373,225.2058189900359,225.2063491998706,226.76421879001427,None,0,225.2063491998706,226.76421879001427,226.76484599988908,228.5097416900331,,,,,,,,,,,,,,,,,,,,,,,,,,,,,,,,,,,,EMOCONPILOT021,2021_Jan_04_1612,EmoCon_Pilot_120Hz,2020.2.4,119.96074876756988,
,,,,0,0,0,0,0,0,0,0,,,,,,,,,,,,,,,,,,,,,,,,,,,,,,,,,,,,,228.55259469989687,231.5432379900245,231.547699799994,234.46972038995008,a,2.906559499911964,2906.559499911964,231.547699799994,234.46972038995008,0,8.0,f,019_m_f_s_a.jpg,sad,a,17,1,234.47843779996037,234.76829168994445,235.03305420000106,235.1856597899692,235.1890658000484,235.2274236900499,235.23335370002314,235.9198417898966,d,0,0.6766139999963343,676.6139999963343,235.23335370002314,235.9198417898966,235.92798729985952,237.56827169007155,EMOCONPILOT021,2021_Jan_04_1612,EmoCon_Pilot_120Hz,2020.2.4,119.96074876756988,
,,,,0,0,0,0,1,0,1,0,,,,,,,,,,,,,,,,,,,,,,,,,,,,,,,,,,,,,,,,,,,,,,1,6.0,m,033_o_m_n_a.jpg,neutral,s,17,1,237.57349779992364,237.86828028995077,238.07474839990027,238.23400558999273,238.23707149992697,238.2737299900269,238.2768699999433,239.95324919002596,None,0,,,238.2768699999433,239.95324919002596,239.96015860000625,241.40994338996242,EMOCONPILOT021,2021_Jan_04_1612,EmoCon_Pilot_120Hz,2020.2.4,119.96074876756988,
,,,,0,0,0,0,2,0,2,0,,,,,,,,,,,,,,,,,,,,,,,,,,,,,,,,,,,,,,,,,,,,,,2,2.0,m,008_y_m_s_a.jpg,sad,a,17,1,241.41285869991407,241.70997479001525,241.94527189992368,242.1078853900777,242.11216760007665,242.15319619004148,242.15821349993348,243.05485688990447,a,1,0.8877439999487251,887.7439999487251,242.15821349993348,243.05485688990447,243.06070449994877,244.23494938996154,EMOCONPILOT021,2021_Jan_04_1612,EmoCon_Pilot_120Hz,2020.2.4,119.96074876756988,
,,,,0,0,0,0,3,0,3,0,,,,,,,,,,,,,,,,,,,,,,,,,,,,,,,,,,,,,,,,,,,,,,3,11.0,f,030_o_f_h_a.jpg,happy,d,17,1,244.2378578998614,244.5350347899599,244.73917369986884,244.910914189904,244.91540289996192,244.9563863899326,244.9604519000277,245.66289658986497,d,1,0.6935403000097722,693.5403000097722,244.9604519000277,245.66289658986497,245.66932319989428,247.47677239009644,EMOCONPILOT021,2021_Jan_04_1612,EmoCon_Pilot_120Hz,2020.2.4,119.96074876756988,
,,,,0,0,0,0,4,0,4,0,,,,,,,,,,,,,,,,,,,,,,,,,,,,,,,,,,,,,,,,,,,,,,4,11.0,f,030_o_f_s_a.jpg,sad,a,17,1,247.4815320998896,247.77677849007304,247.97864019987173,248.13884009004104,248.1424745998811,248.18248428988736,248.1877150000073,248.81478609007317,a,1,0.61826610006392,618.26610006392,248.1877150000073,248.81478609007317,248.81670879991725,249.92681829005014,EMOCONPILOT021,2021_Jan_04_1612,EmoCon_Pilot_120Hz,2020.2.4,119.96074876756988,
,,,,0,0,0,0,5,0,5,0,,,,,,,,,,,,,,,,,,,,,,,,,,,,,,,,,,,,,,,,,,,,,,5,11.0,f,030_o_f_s_a.jpg,sad,a,17,1,249.93096029991284,250.2268991898978,250.42924019997008,250.58814829008188,250.59256749995984,250.6326066900743,250.63776830001734,251.23727498997468,a,1,0.5844479000661522,584.4479000661522,250.63776830001734,251.23727498997468,251.24870290001854,252.8602469898993,EMOCONPILOT021,2021_Jan_04_1612,EmoCon_Pilot_120Hz,2020.2.4,119.96074876756988,
,,,,0,0,0,0,6,0,6,0,,,,,,,,,,,,,,,,,,,,,,,,,,,,,,,,,,,,,,,,,,,,,,6,5.0,m,027_o_m_n_a.jpg,neutral,s,17,1,252.86621570005082,253.16035179004538,253.36713610007428,253.53554068997036,253.540149099892,253.58017348989378,253.58448070008308,254.33582598997745,s,1,0.7415217999368906,741.5217999368906,253.58448070008308,254.33582598997745,254.34326189989224,256.2269734898815,EMOCONPILOT021,2021_Jan_04_1612,EmoCon_Pilot_120Hz,2020.2.4,119.96074876756988,
,,,,0,0,0,0,7,0,7,0,,,,,,,,,,,,,,,,,,,,,,,,,,,,,,,,,,,,,,,,,,,,,,7,8.0,f,019_m_f_n_a.jpg,neutral,s,3,1,256.23102899990045,256.5270843899576,256.7594278000761,256.78597078986934,256.7896805999335,256.8305828899844,256.83577880007215,257.9154013900785,s,1,1.0662716999650002,1066.2716999650002,256.83577880007215,257.9154013900785,257.9236749999691,259.26868319001517,EMOCONPILOT021,2021_Jan_04_1612,EmoCon_Pilot_120Hz,2020.2.4,119.96074876756988,
,,,,0,0,0,0,8,0,8,0,,,,,,,,,,,,,,,,,,,,,,,,,,,,,,,,,,,,,,,,,,,,,,8,5.0,m,027_o_m_h_a.jpg,happy,d,3,1,259.2739977000747,259.5687998899026,259.78527410002425,259.8115912899608,259.81289210007526,259.85255968992135,259.8576201000251,261.54661118986553,None,0,,,259.8576201000251,261.54661118986553,261.5516460998915,262.9270947899437,EMOCONPILOT021,2021_Jan_04_1612,EmoCon_Pilot_120Hz,2020.2.4,119.96074876756988,
,,,,0,0,0,0,9,0,9,0,,,,,,,,,,,,,,,,,,,,,,,,,,,,,,,,,,,,,,,,,,,,,,9,8.0,f,019_m_f_n_a.jpg,neutral,s,17,1,262.93139240005985,263.22710519006944,263.46856210008264,263.62660889003894,263.6314429999329,263.67090519007763,263.6758570999373,264.28689238990194,s,1,0.5943967001512647,594.3967001512647,263.6758570999373,264.28689238990194,264.29840729990974,265.61892339007466,EMOCONPILOT021,2021_Jan_04_1612,EmoCon_Pilot_120Hz,2020.2.4,119.96074876756988,
,,,,0,0,0,0,10,0,10,0,,,,,,,,,,,,,,,,,,,,,,,,,,,,,,,,,,,,,,,,,,,,,,10,11.0,f,030_o_f_h_a.jpg,happy,d,3,1,265.6249585999176,265.91887508986986,266.1285282999743,266.1547205900075,266.15499820001423,266.18967928995846,266.19059220002964,267.3908049899852,d,1,1.1915154000744224,1191.5154000744224,266.19059220002964,267.3908049899852,267.40037550008856,269.37729888993783,EMOCONPILOT021,2021_Jan_04_1612,EmoCon_Pilot_120Hz,2020.2.4,119.96074876756988,
,,,,0,0,0,0,11,0,11,0,,,,,,,,,,,,,,,,,,,,,,,,,,,,,,,,,,,,,,,,,,,,,,11,3.0,m,013_y_m_s_a.jpg,sad,a,17,1,269.3828050000593,269.6773365899222,269.76776269986294,269.9038005899871,269.90701780002564,269.94506498987323,269.94832760002464,270.9443757899804,a,1,0.9856734001077712,985.6734001077712,269.94832760002464,270.9443757899804,270.9519841999281,272.2189651900204,EMOCONPILOT021,2021_Jan_04_1612,EmoCon_Pilot_120Hz,2020.2.4,119.96074876756988,
,,,,0,0,0,0,12,0,12,0,,,,,,,,,,,,,,,,,,,,,,,,,,,,,,,,,,,,,,,,,,,,,,12,12.0,f,040_y_f_n_a.jpg,neutral,s,3,1,272.22307499987073,272.51895868990107,272.74285000003874,272.76856319003275,272.76945009990595,272.8033741899068,272.8049089999404,273.5658648899058,s,1,0.7451816000975668,745.1816000975668,272.8049089999404,273.5658648899058,273.57120519992895,275.17745938992596,EMOCONPILOT021,2021_Jan_04_1612,EmoCon_Pilot_120Hz,2020.2.4,119.96074876756988,
,,,,0,0,0,0,13,0,13,0,,,,,,,,,,,,,,,,,,,,,,,,,,,,,,,,,,,,,,,,,,,,,,13,12.0,f,040_y_f_h_a.jpg,happy,d,17,1,275.1834726999514,275.47740038998893,275.5004386000801,275.63740678995384,275.64245430007577,275.68292448997965,275.6880812998861,276.6896009899443,d,1,0.9900471000000834,990.0471000000834,275.6880812998861,276.6896009899443,276.6979771000333,277.7442010899773,EMOCONPILOT021,2021_Jan_04_1612,EmoCon_Pilot_120Hz,2020.2.4,119.96074876756988,
,,,,0,0,0,0,14,0,14,0,,,,,,,,,,,,,,,,,,,,,,,,,,,,,,,,,,,,,,,,,,,,,,14,7.0,f,012_o_f_h_a.jpg,happy,d,3,1,277.7496909000911,278.0442007899052,278.06040209997445,278.0822344899876,278.0830322999973,278.1203327900963,278.1216478999704,278.7525273899315,d,1,0.6203785999678075,620.3785999678075,278.1216478999704,278.7525273899315,278.75889099994674,279.92737819000615,EMOCONPILOT021,2021_Jan_04_1612,EmoCon_Pilot_120Hz,2020.2.4,119.96074876756988,
,,,,0,0,0,0,15,0,15,0,,,,,,,,,,,,,,,,,,,,,,,,,,,,,,,,,,,,,,,,,,,,,,15,9.0,f,021_o_f_n_a.jpg,neutral,s,17,1,279.93035819986835,280.2273871898884,280.44834990007803,280.6088687898824,280.6134832999669,280.65474888987376,280.6598273999989,281.2473895899253,s,1,0.5783437001518905,578.3437001518905,280.6598273999989,281.2473895899253,281.25088989990763,282.31075648989065,EMOCONPILOT021,2021_Jan_04_1612,EmoCon_Pilot_120Hz,2020.2.4,119.96074876756988,
,,,,0,0,0,0,16,0,16,0,,,,,,,,,,,,,,,,,,,,,,,,,,,,,,,,,,,,,,,,,,,,,,16,10.0,f,028_y_f_s_a.jpg,sad,a,3,1,282.313744999934,282.6109489898896,282.62640909990296,282.6483937900281,282.64867949998006,282.687113889982,282.68863049987704,283.3341604899848,a,1,0.6375692000146955,637.5692000146955,282.68863049987704,283.3341604899848,283.3434715999756,284.3359125899384,EMOCONPILOT021,2021_Jan_04_1612,EmoCon_Pilot_120Hz,2020.2.4,119.96074876756988,
,,,,0,0,0,0,17,0,17,0,,,,,,,,,,,,,,,,,,,,,,,,,,,,,,,,,,,,,,,,,,,,,,17,10.0,f,028_y_f_h_a.jpg,happy,d,3,1,284.34141770005226,284.6359281898709,284.65892429999076,284.6807735900162,284.681463399902,284.7204577899771,284.7206234000623,285.5442519900622,d,1,0.8133960999548435,813.3960999548435,284.7206234000623,285.5442519900622,285.55066669988446,286.7943072899012,EMOCONPILOT021,2021_Jan_04_1612,EmoCon_Pilot_120Hz,2020.2.4,119.96074876756988,
,,,,0,0,0,0,18,0,18,0,,,,,,,,,,,,,,,,,,,,,,,,,,,,,,,,,,,,,,,,,,,,,,18,9.0,f,021_o_f_h_a.jpg,happy,d,3,1,286.7985719998833,287.0942911899416,287.32024529995397,287.34762578995435,287.35126330005005,287.38948358993514,287.39399529993534,288.1642013900215,d,1,0.7560843999963254,756.0843999963254,287.39399529993534,288.1642013900215,288.1663307000417,289.577739989874,EMOCONPILOT021,2021_Jan_04_1612,EmoCon_Pilot_120Hz,2020.2.4,119.96074876756988,
,,,,0,0,0,0,19,0,19,0,,,,,,,,,,,,,,,,,,,,,,,,,,,,,,,,,,,,,,,,,,,,,,19,6.0,m,033_o_m_h_a.jpg,happy,d,17,1,289.58087509986944,289.87762278995945,289.89005950000137,290.0209930900252,290.02376849995926,290.06214428998067,290.06498649995774,290.5750280900626,d,1,0.5012029998470098,501.2029998470098,290.06498649995774,290.5750280900626,290.5834226999432,292.2444541899255,EMOCONPILOT021,2021_Jan_04_1612,EmoCon_Pilot_120Hz,2020.2.4,119.96074876756988,
,,,,0,0,0,0,20,0,20,0,,,,,,,,,,,,,,,,,,,,,,,,,,,,,,,,,,,,,,,,,,,,,,20,1.0,m,004_o_m_h_a.jpg,happy,d,3,1,292.2474913999904,292.54448678998745,292.746079799952,292.77149528989105,292.7723310999572,292.80670509000777,292.8066245999653,293.42345929008445,d,1,0.5998887999448925,599.8887999448925,292.8066245999653,293.42345929008445,293.43541710008867,294.9444658900844,EMOCONPILOT021,2021_Jan_04_1612,EmoCon_Pilot_120Hz,2020.2.4,119.96074876756988,
,,,,0,0,0,0,21,0,21,0,,,,,,,,,,,,,,,,,,,,,,,,,,,,,,,,,,,,,,,,,,,,,,21,2.0,m,008_y_m_s_a.jpg,sad,a,3,1,294.9484445999842,295.2443783900468,295.4873903999105,295.5144523899304,295.51829700008966,295.559335290012,295.56434819987044,296.30905488997234,a,1,0.7377971999812871,737.7971999812871,295.56434819987044,296.30905488997234,296.3175214000512,297.3777618899709,EMOCONPILOT021,2021_Jan_04_1612,EmoCon_Pilot_120Hz,2020.2.4,119.96074876756988,
,,,,0,0,0,0,22,0,22,0,,,,,,,,,,,,,,,,,,,,,,,,,,,,,,,,,,,,,,,,,,,,,,22,4.0,m,016_y_m_s_a.jpg,sad,a,17,1,297.3805470999796,297.67776678993835,297.69886650005355,297.82949838999195,297.8339748000726,297.8719476899365,297.8752583998721,298.4084198898869,a,1,0.5230664000846446,523.0664000846446,297.8752583998721,298.4084198898869,298.4191975998692,300.10292608991733,EMOCONPILOT021,2021_Jan_04_1612,EmoCon_Pilot_120Hz,2020.2.4,119.96074876756988,
,,,,0,0,0,0,23,0,23,0,,,,,,,,,,,,,,,,,,,,,,,,,,,,,,,,,,,,,,,,,,,,,,23,8.0,f,019_m_f_h_a.jpg,happy,d,3,1,300.10693200002424,300.40290529003835,300.4263875999022,300.44916938992685,300.4495997999329,300.48790669001176,300.48754690005444,301.05663468993737,d,1,0.5585121000185609,558.5121000185609,300.48754690005444,301.05663468993737,301.0623154998757,302.5695941900136,EMOCONPILOT021,2021_Jan_04_1612,EmoCon_Pilot_120Hz,2020.2.4,119.96074876756988,
,,,,0,0,0,0,24,0,24,0,,,,,,,,,,,,,,,,,,,,,,,,,,,,,,,,,,,,,,,,,,,,,,24,8.0,f,019_m_f_h_a.jpg,happy,d,3,1,302.57206749985926,302.86961418997964,302.89071130007505,302.9134981900221,302.91366109997034,302.9485165900784,302.94893989991397,303.5857733900426,d,1,0.6252671999391168,625.2671999391168,302.94893989991397,303.5857733900426,303.5953227998689,304.6028948899126,EMOCONPILOT021,2021_Jan_04_1612,EmoCon_Pilot_120Hz,2020.2.4,119.96074876756988,
,,,,0,0,0,0,25,0,25,0,,,,,,,,,,,,,,,,,,,,,,,,,,,,,,,,,,,,,,,,,,,,,,25,4.0,m,016_y_m_n_a.jpg,neutral,s,3,1,304.6058068999555,304.90294298997617,305.15199230005965,305.1776395899011,305.1777812000364,305.21240758991337,305.2130225999281,306.3268660900882,s,1,1.105263999896124,1105.263999896124,305.2130225999281,306.3268660900882,306.33529619988985,307.39469768994024,EMOCONPILOT021,2021_Jan_04_1612,EmoCon_Pilot_120Hz,2020.2.4,119.96074876756988,
,,,,0,0,0,0,26,0,26,0,,,,,,,,,,,,,,,,,,,,,,,,,,,,,,,,,,,,,,,,,,,,,,26,4.0,m,016_y_m_h_a.jpg,happy,d,17,1,307.39803759986535,307.6946231900016,307.7159812999889,307.84637999001427,307.8499157000333,307.8884154900676,307.8915454999078,308.4802624900127,d,1,0.5785722001455724,578.5722001455724,307.8915454999078,308.4802624900127,308.48852739995345,310.18647168998143,EMOCONPILOT021,2021_Jan_04_1612,EmoCon_Pilot_120Hz,2020.2.4,119.96074876756988,
,,,,0,0,0,0,27,0,27,0,,,,,,,,,,,,,,,,,,,,,,,,,,,,,,,,,,,,,,,,,,,,,,27,8.0,f,019_m_f_h_a.jpg,happy,d,3,1,310.19056109990925,310.48645158999136,310.51034380006604,310.53275788996837,310.5337493000552,310.5709087900119,310.57114990008995,311.0532300900901,d,1,0.46697990014217794,466.97990014217794,310.57114990008995,311.0532300900901,311.05981660005637,312.7614974898985,EMOCONPILOT021,2021_Jan_04_1612,EmoCon_Pilot_120Hz,2020.2.4,119.96074876756988,
,,,,0,0,0,0,28,0,28,0,,,,,,,,,,,,,,,,,,,,,,,,,,,,,,,,,,,,,,,,,,,,,,28,8.0,f,019_m_f_s_a.jpg,sad,a,17,1,312.76552370004356,313.0615381899057,313.3073028998915,313.4664979900932,313.4711611000821,313.51120709001555,313.51618449995294,314.390280890069,a,1,0.8582242000848055,858.2242000848055,313.51618449995294,314.390280890069,314.40202849986963,315.77822628992146,EMOCONPILOT021,2021_Jan_04_1612,EmoCon_Pilot_120Hz,2020.2.4,119.96074876756988,
,,,,0,0,0,0,29,0,29,0,,,,,,,,,,,,,,,,,,,,,,,,,,,,,,,,,,,,,,,,,,,,,,29,10.0,f,028_y_f_n_a.jpg,neutral,s,17,1,315.7830755999312,316.0782509900397,316.2805937998928,316.43825058990626,316.4420998999849,316.4806357899448,316.48573389998637,316.9083464900265,s,1,0.40844570007175207,408.44570007175207,316.48573389998637,316.9083464900265,316.91589060006663,318.5200035900576,EMOCONPILOT021,2021_Jan_04_1612,EmoCon_Pilot_120Hz,2020.2.4,119.96074876756988,
,,,,0,0,0,0,30,0,30,0,,,,,,,,,,,,,,,,,,,,,,,,,,,,,,,,,,,,,,,,,,,,,,30,12.0,f,040_y_f_n_a.jpg,neutral,s,3,1,318.5240205998998,318.819964190037,319.03919330006465,319.06480998990594,319.0654959999956,319.1003032899695,319.1005106999073,319.9105212900555,s,1,0.8016548999585211,801.6548999585211,319.1005106999073,319.9105212900555,319.91803169995546,320.9783183899941,EMOCONPILOT021,2021_Jan_04_1612,EmoCon_Pilot_120Hz,2020.2.4,119.96074876756988,
,,,,0,0,0,0,31,0,31,0,,,,,,,,,,,,,,,,,,,,,,,,,,,,,,,,,,,,,,,,,,,,,,31,5.0,m,027_o_m_n_a.jpg,neutral,s,3,1,320.9813618999906,321.27837868991776,321.4833483998664,321.5093769899337,321.5100269999821,321.5462581899716,321.5473676000256,322.2116810900858,s,1,0.6507013000082225,650.7013000082225,321.5473676000256,322.2116810900858,322.2185009000823,323.3616959899897,EMOCONPILOT021,2021_Jan_04_1612,EmoCon_Pilot_120Hz,2020.2.4,119.96074876756988,
,,,,0,0,0,0,32,0,32,0,,,,,,,,,,,,,,,,,,,,,,,,,,,,,,,,,,,,,,,,,,,,,,32,8.0,f,019_m_f_n_a.jpg,neutral,s,3,1,323.3654372000601,323.6617628899636,323.912096099928,323.93739169000185,323.93744580005296,323.97253058992794,323.97293629986234,324.548856789968,s,1,0.5611724001355469,561.1724001355469,323.97293629986234,324.548856789968,324.5543672000058,325.66176688999406,EMOCONPILOT021,2021_Jan_04_1612,EmoCon_Pilot_120Hz,2020.2.4,119.96074876756988,
,,,,0,0,0,0,33,0,33,0,,,,,,,,,,,,,,,,,,,,,,,,,,,,,,,,,,,,,,,,,,,,,,33,4.0,m,016_y_m_n_a.jpg,neutral,s,17,1,325.66740869986825,325.961832690076,326.20374969998375,326.360504489881,326.3640387998894,326.40131749005525,326.4045778999571,327.3332828900544,s,1,0.9217509999871254,921.7509999871254,326.4045778999571,327.3332828900544,327.33994339988567,328.95351318994074,EMOCONPILOT021,2021_Jan_04_1612,EmoCon_Pilot_120Hz,2020.2.4,119.96074876756988,
,,,,0,0,0,0,34,0,34,0,,,,,,,,,,,,,,,,,,,,,,,,,,,,,,,,,,,,,,,,,,,,,,34,11.0,f,030_o_f_n_a.jpg,neutral,s,17,1,328.9575749000069,329.25352308994627,329.4622359999921,329.62585248986727,329.63088870001957,329.6716821899405,329.6765916000586,330.13319319000004,s,1,0.441671600099653,441.671600099653,329.6765916000586,330.13319319000004,330.14473009994254,331.17026479009076,EMOCONPILOT021,2021_Jan_04_1612,EmoCon_Pilot_120Hz,2020.2.4,119.96074876756988,
,,,,0,0,0,0,35,0,35,0,,,,,,,,,,,,,,,,,,,,,,,,,,,,,,,,,,,,,,,,,,,,,,35,9.0,f,021_o_f_h_a.jpg,happy,d,3,1,331.1756450999528,331.470257390081,331.6929691999685,331.7192029899685,331.72018909989856,331.75484088996893,331.7549401000142,332.32196249000265,d,1,0.555075200041756,555.075200041756,331.7549401000142,332.32196249000265,332.32844329997897,333.47032618990636,EMOCONPILOT021,2021_Jan_04_1612,EmoCon_Pilot_120Hz,2020.2.4,119.96074876756988,
,,,,0,0,0,0,36,0,36,0,,,,,,,,,,,,,,,,,,,,,,,,,,,,,,,,,,,,,,,,,,,,,,36,11.0,f,030_o_f_s_a.jpg,sad,a,3,1,333.47427550004795,333.77027388990393,333.97786969994195,334.00432978991887,334.004717099946,334.03901078996716,334.0407086000778,334.7641106900061,s,0,0.709464400075376,709.464400075376,334.0407086000778,334.7641106900061,334.77148759993725,336.32882289008705,EMOCONPILOT021,2021_Jan_04_1612,EmoCon_Pilot_120Hz,2020.2.4,119.96074876756988,
,,,,0,0,0,0,37,0,37,0,,,,,,,,,,,,,,,,,,,,,,,,,,,,,,,,,,,,,,,,,,,,,,37,12.0,f,040_y_f_n_a.jpg,neutral,s,3,1,336.3341933998745,336.62883239008954,336.8402883000672,336.86654989004603,336.8700800999068,336.91108979007697,336.9160338998772,337.4950325899059,s,1,0.5623324001207948,562.3324001207948,336.9160338998772,337.4950325899059,337.50646389997564,338.7620500899153,EMOCONPILOT021,2021_Jan_04_1612,EmoCon_Pilot_120Hz,2020.2.4,119.96074876756988,
,,,,0,0,0,0,38,0,38,0,,,,,,,,,,,,,,,,,,,,,,,,,,,,,,,,,,,,,,,,,,,,,,38,9.0,f,021_o_f_s_a.jpg,sad,a,3,1,338.7660469999537,339.0620499900775,339.08591459994204,339.10789829005955,339.1089508999139,339.14651989007837,339.14668389991857,340.3660722899018,a,1,1.2034748999867588,1203.4748999867588,339.14668389991857,340.3660722899018,340.3754215000663,342.24549229003026,EMOCONPILOT021,2021_Jan_04_1612,EmoCon_Pilot_120Hz,2020.2.4,119.96074876756988,
,,,,0,0,0,0,39,0,39,0,,,,,,,,,,,,,,,,,,,,,,,,,,,,,,,,,,,,,,,,,,,,,,39,4.0,m,016_y_m_n_a.jpg,neutral,s,17,1,342.2506466000341,342.54550588994755,342.7972847998608,342.9622926900862,342.96651869989,343.0066906900844,343.0118110999465,343.5609548900044,s,1,0.538425600156188,538.425600156188,343.0118110999465,343.5609548900044,343.5715809999965,345.47894798989876,EMOCONPILOT021,2021_Jan_04_1612,EmoCon_Pilot_120Hz,2020.2.4,119.96074876756988,
,,,,0,0,0,0,40,0,40,0,,,,,,,,,,,,,,,,,,,,,,,,,,,,,,,,,,,,,,,,,,,,,,40,9.0,f,021_o_f_s_a.jpg,sad,a,3,1,345.48436599993147,345.7788859899389,345.8038788998965,345.826605689968,345.82724880008027,345.86338039000987,345.8647791999392,347.3216719900025,a,1,1.4453835999593139,1445.3835999593139,345.8647791999392,347.3216719900025,347.3324599999469,348.58726768989584,EMOCONPILOT021,2021_Jan_04_1612,EmoCon_Pilot_120Hz,2020.2.4,119.96074876756988,
,,,,0,0,0,0,41,0,41,0,,,,,,,,,,,,,,,,,,,,,,,,,,,,,,,,,,,,,,,,,,,,,,41,11.0,f,030_o_f_h_a.jpg,happy,d,17,1,348.59128990001045,348.88726108989215,349.09380179992877,349.2495650900761,349.25422100001015,349.294780890015,349.2996112999972,349.74798428991346,d,1,0.4346628999337554,434.6628999337554,349.2996112999972,349.74798428991346,349.7599191998597,351.20403169004715,EMOCONPILOT021,2021_Jan_04_1612,EmoCon_Pilot_120Hz,2020.2.4,119.96074876756988,
,,,,0,0,0,0,42,0,42,0,,,,,,,,,,,,,,,,,,,,,,,,,,,,,,,,,,,,,,,,,,,,,,42,4.0,m,016_y_m_h_a.jpg,happy,d,17,1,351.2092752000317,351.5041222900851,351.5263469000347,351.6639736900339,351.66584710008465,351.70527838987766,351.7080548000522,352.12536608988887,d,1,0.4021102001424879,402.1102001424879,351.7080548000522,352.12536608988887,352.13452080008574,353.9790925900685,EMOCONPILOT021,2021_Jan_04_1612,EmoCon_Pilot_120Hz,2020.2.4,119.96074876756988,
,,,,0,0,0,0,43,0,43,0,,,,,,,,,,,,,,,,,,,,,,,,,,,,,,,,,,,,,,,,,,,,,,43,1.0,m,004_o_m_s_a.jpg,sad,a,17,1,353.98457299987786,354.2791418899084,354.30110580008477,354.4389731900534,354.4421085999347,354.48030458998403,354.4834354000632,355.51615288995674,a,1,1.0187393999658525,1018.7393999658525,354.4834354000632,355.51615288995674,355.5229195000138,357.4541271899594,EMOCONPILOT021,2021_Jan_04_1612,EmoCon_Pilot_120Hz,2020.2.4,119.96074876756988,
,,,,0,0,0,0,44,0,44,0,,,,,,,,,,,,,,,,,,,,,,,,,,,,,,,,,,,,,,,,,,,,,,44,4.0,m,016_y_m_h_a.jpg,happy,d,17,1,357.4581160999369,357.7541983900825,357.7742882000748,357.90585038999563,357.90963010000996,357.9486344899284,357.9527244998608,358.4058515900048,d,1,0.4455814999528229,445.5814999528229,357.9527244998608,358.4058515900048,358.41661010007374,360.02915829003325,EMOCONPILOT021,2021_Jan_04_1612,EmoCon_Pilot_120Hz,2020.2.4,119.96074876756988,
,,,,0,0,0,0,45,0,45,0,,,,,,,,,,,,,,,,,,,,,,,,,,,,,,,,,,,,,,,,,,,,,,45,7.0,f,012_o_f_s_a.jpg,sad,a,3,1,360.0353461999912,360.32910719003996,360.3444401000161,360.36625588990285,360.3661281999666,360.4054372899933,360.4067670998629,361.3416956900852,a,1,0.9194045001640916,919.4045001640916,360.4067670998629,361.3416956900852,361.34357909997925,363.2208776900312,EMOCONPILOT021,2021_Jan_04_1612,EmoCon_Pilot_120Hz,2020.2.4,119.96074876756988,
,,,,0,0,0,0,46,0,46,0,,,,,,,,,,,,,,,,,,,,,,,,,,,,,,,,,,,,,,,,,,,,,,46,8.0,f,019_m_f_n_a.jpg,neutral,s,17,1,363.2250840999186,363.5208913900657,363.7791548999958,363.9396312900586,363.9441128000617,363.98323649007364,363.98620789987035,364.58784748988694,s,1,0.5880076000466943,588.0076000466943,363.98620789987035,364.58784748988694,364.5959222000092,365.8710039900849,EMOCONPILOT021,2021_Jan_04_1612,EmoCon_Pilot_120Hz,2020.2.4,119.96074876756988,
,,,,0,0,0,0,47,0,47,0,,,,,,,,,,,,,,,,,,,,,,,,,,,,,,,,,,,,,,,,,,,,,,47,2.0,m,008_y_m_h_a.jpg,happy,d,3,1,365.8763206999283,366.17109168998434,366.19646140001714,366.2192774899537,366.22021629987285,366.2555513899075,366.255521700019,367.38276759001894,d,1,1.1189059000462294,1118.9059000462294,366.255521700019,367.38276759001894,367.38930769986473,368.97106438993944,EMOCONPILOT021,2021_Jan_04_1612,EmoCon_Pilot_120Hz,2020.2.4,119.96074876756988,
,,,,0,0,0,0,48,0,48,0,,,,,,,,,,,,,,,,,,,,,,,,,,,,,,,,,,,,,,,,,,,,,,48,12.0,f,040_y_f_n_a.jpg,neutral,s,17,1,368.9742983998731,369.27112718999854,369.50112670008093,369.6602167899488,369.66541439993307,369.70640958987644,369.7115024998784,370.1701230900595,s,1,0.4467702000401914,446.7702000401914,369.7115024998784,370.1701230900595,370.1789152000565,371.5461458899314,EMOCONPILOT021,2021_Jan_04_1612,EmoCon_Pilot_120Hz,2020.2.4,119.96074876756988,
,,,,0,0,0,0,49,0,49,0,,,,,,,,,,,,,,,,,,,,,,,,,,,,,,,,,,,,,,,,,,,,,,49,11.0,f,030_o_f_n_a.jpg,neutral,s,3,1,371.5500250000041,371.8461019899929,372.0437656000722,372.0699056899408,372.06985930004157,372.1056451900164,372.10588799999095,373.1868223899743,s,1,1.0686293998733163,1068.6293998733163,372.10588799999095,373.1868223899743,373.19648980000056,375.08783218988685,EMOCONPILOT021,2021_Jan_04_1612,EmoCon_Pilot_120Hz,2020.2.4,119.96074876756988,
,,,,0,0,0,0,50,0,50,0,,,,,,,,,,,,,,,,,,,,,,,,,,,,,,,,,,,,,,,,,,,,,,50,8.0,f,019_m_f_h_a.jpg,happy,d,3,1,375.09196519991383,375.3879427900771,375.41027639992535,375.4318428898929,375.4337528999895,375.47240298988766,375.47401749994606,376.0993971899385,d,1,0.612079800106585,612.079800106585,375.47401749994606,376.0993971899385,376.1076634998899,377.662905389932,EMOCONPILOT021,2021_Jan_04_1612,EmoCon_Pilot_120Hz,2020.2.4,119.96074876756988,
,,,,0,0,0,0,51,0,51,0,,,,,,,,,,,,,,,,,,,,,,,,,,,,,,,,,,,,,,,,,,,,,,51,8.0,f,019_m_f_n_a.jpg,neutral,s,17,1,377.6667591999285,377.9628941898933,378.20517989993095,378.36366858987606,378.3684825000819,378.4096389899729,378.41495179990306,378.8732305900427,s,1,0.44713290012441576,447.13290012441576,378.41495179990306,378.8732305900427,378.87992129987106,380.08800199001564,EMOCONPILOT021,2021_Jan_04_1612,EmoCon_Pilot_120Hz,2020.2.4,119.96074876756988,
,,,,0,0,0,0,52,0,52,0,,,,,,,,,,,,,,,,,,,,,,,,,,,,,,,,,,,,,,,,,,,,,,52,12.0,f,040_y_f_n_a.jpg,neutral,s,3,1,380.09268780006096,380.3880787899485,380.61118860007264,380.63813398990317,380.64211930008605,380.68292199007703,380.688136999961,381.34863868986724,s,1,0.6461545000784099,646.1545000784099,380.688136999961,381.34863868986724,381.3600286000874,382.6964197899448,EMOCONPILOT021,2021_Jan_04_1612,EmoCon_Pilot_120Hz,2020.2.4,119.96074876756988,
,,,,0,0,0,0,53,0,53,0,,,,,,,,,,,,,,,,,,,,,,,,,,,,,,,,,,,,,,,,,,,,,,53,9.0,f,021_o_f_h_a.jpg,happy,d,3,1,382.7009121000301,382.99629768987654,383.2131044000853,383.23924559007867,383.23965390003286,383.2748556898674,383.27451179991476,383.9424421899254,d,1,0.6597589999437332,659.7589999437332,383.27451179991476,383.9424421899254,383.949823099887,385.0964419900207,EMOCONPILOT021,2021_Jan_04_1612,EmoCon_Pilot_120Hz,2020.2.4,119.96074876756988,
,,,,0,0,0,0,54,0,54,0,,,,,,,,,,,,,,,,,,,,,,,,,,,,,,,,,,,,,,,,,,,,,,54,2.0,m,008_y_m_n_a.jpg,neutral,s,3,1,385.1009243000299,385.39640839004426,385.6316225999035,385.65834958993366,385.6619257000275,385.70206199006645,385.7072540000081,386.36812488993166,s,1,0.6510052001103759,651.0052001103759,385.7072540000081,386.36812488993166,386.3803391000256,388.08821018997116,EMOCONPILOT021,2021_Jan_04_1612,EmoCon_Pilot_120Hz,2020.2.4,119.96074876756988,
,,,,0,0,0,0,55,0,55,0,,,,,,,,,,,,,,,,,,,,,,,,,,,,,,,,,,,,,,,,,,,,,,55,10.0,f,028_y_f_n_a.jpg,neutral,s,3,1,388.09353509987704,388.3881007898832,388.5909706999082,388.6170479899971,388.61830560001545,388.65590098991527,388.65702959988266,389.3889372900827,s,1,0.7251186000648886,725.1186000648886,388.65702959988266,389.3889372900827,389.3964760999661,390.51323928989007,EMOCONPILOT021,2021_Jan_04_1612,EmoCon_Pilot_120Hz,2020.2.4,119.96074876756988,
,,,,0,0,0,0,56,0,56,0,,,,,,,,,,,,,,,,,,,,,,,,,,,,,,,,,,,,,,,,,,,,,,56,12.0,f,040_y_f_h_a.jpg,happy,d,17,1,390.517211999977,390.81312618989034,390.8360699999612,390.97318279000467,390.97708759992383,391.0153240899323,391.0192829000298,391.4515743900789,d,1,0.41890279995277524,418.90279995277524,391.0192829000298,391.4515743900789,391.4613467999734,392.47992059008686,EMOCONPILOT021,2021_Jan_04_1612,EmoCon_Pilot_120Hz,2020.2.4,119.96074876756988,
,,,,0,0,0,0,57,0,57,0,,,,,,,,,,,,,,,,,,,,,,,,,,,,,,,,,,,,,,,,,,,,,,57,2.0,m,008_y_m_n_a.jpg,neutral,s,3,1,392.48377999989316,392.7799616898643,393.027798099909,393.0535283899168,393.0536000998691,393.0895148900105,393.09091909998097,393.9025884899544,s,1,0.8033218998461962,803.3218998461962,393.09091909998097,393.9025884899544,393.91181969991885,395.8050403900212,EMOCONPILOT021,2021_Jan_04_1612,EmoCon_Pilot_120Hz,2020.2.4,119.96074876756988,
,,,,0,0,0,0,58,0,58,0,,,,,,,,,,,,,,,,,,,,,,,,,,,,,,,,,,,,,,,,,,,,,,58,9.0,f,021_o_f_n_a.jpg,neutral,s,3,1,395.8091674998868,396.1050921899965,396.3247253000736,396.35228568993045,396.35573820001446,396.39669838992415,396.40157829993404,397.1035274900729,s,1,0.6848848999943584,684.8848999943584,396.40157829993404,397.1035274900729,397.1130156998988,398.863333490002,EMOCONPILOT021,2021_Jan_04_1612,EmoCon_Pilot_120Hz,2020.2.4,119.96074876756988,
,,,,0,0,0,0,59,0,59,0,,,,,,,,,,,,,,,,,,,,,,,,,,,,,,,,,,,,,,,,,,,,,,59,4.0,m,016_y_m_n_a.jpg,neutral,s,3,1,398.86750629986636,399.163348889933,399.38955760002136,399.41489909009545,399.41509520006366,399.4499842899619,399.4508104000706,400.0451456899988,s,1,0.5794460000470281,579.4460000470281,399.4508104000706,400.0451456899988,400.0551527000498,401.74677329000554,EMOCONPILOT021,2021_Jan_04_1612,EmoCon_Pilot_120Hz,2020.2.4,119.96074876756988,
,,,,0,0,0,0,60,0,60,0,,,,,,,,,,,,,,,,,,,,,,,,,,,,,,,,,,,,,,,,,,,,,,60,6.0,m,033_o_m_s_a.jpg,sad,a,17,1,401.7519103998784,402.04677958998366,402.07271019998007,402.20678449005356,402.2117186000105,402.252271089959,402.25734460004605,403.01992129001303,a,1,0.7491499001625925,749.1499001625925,402.25734460004605,403.01992129001303,403.030839700019,404.23838039000987,EMOCONPILOT021,2021_Jan_04_1612,EmoCon_Pilot_120Hz,2020.2.4,119.96074876756988,
,,,,0,0,0,0,61,0,61,0,,,,,,,,,,,,,,,,,,,,,,,,,,,,,,,,,,,,,,,,,,,,,,61,7.0,f,012_o_f_n_a.jpg,neutral,s,17,1,404.24140290007927,404.538430589973,404.7520546000451,404.91501598993784,404.91961099999025,404.9606026900234,404.9658762998879,405.6575062899152,s,1,0.6803243001922965,680.3243001922965,404.9658762998879,405.6575062899152,405.66316349990666,406.83018498986496,EMOCONPILOT021,2021_Jan_04_1612,EmoCon_Pilot_120Hz,2020.2.4,119.96074876756988,
,,,,0,0,0,0,62,0,62,0,,,,,,,,,,,,,,,,,,,,,,,,,,,,,,,,,,,,,,,,,,,,,,62,2.0,m,008_y_m_h_a.jpg,happy,d,3,1,406.83436429989524,407.13023308992854,407.146430300083,407.16903719005643,407.16968709998764,407.20640308994336,407.20787839987315,408.60386578997134,d,1,1.3824003001209348,1382.4003001209348,407.20787839987315,408.60386578997134,408.6151479999535,410.0802322898759,EMOCONPILOT021,2021_Jan_04_1612,EmoCon_Pilot_120Hz,2020.2.4,119.96074876756988,
,,,,0,0,0,0,63,0,63,0,,,,,,,,,,,,,,,,,,,,,,,,,,,,,,,,,,,,,,,,,,,,,,63,10.0,f,028_y_f_h_a.jpg,happy,d,3,1,410.0842468999326,410.38025069006255,410.40236489987,410.4249606898753,410.42687269998714,410.46477759003176,410.4648724999279,411.1561407898786,d,1,0.6773464998695999,677.3464998695999,410.4648724999279,411.1561407898786,411.1594455000013,412.2304122899892,EMOCONPILOT021,2021_Jan_04_1612,EmoCon_Pilot_120Hz,2020.2.4,119.96074876756988,
,,,,0,0,0,0,64,0,64,0,,,,,,,,,,,,,,,,,,,,,,,,,,,,,,,,,,,,,,,,,,,,,,64,4.0,m,016_y_m_h_a.jpg,happy,d,3,1,412.23457690002397,412.5302991899895,412.54671499994583,412.5688420899911,412.5687744000461,412.6065464900108,412.606578100007,413.32513839008755,d,1,0.7118963999673724,711.8963999673724,412.606578100007,413.32513839008755,413.33688349998556,414.3553684898885,EMOCONPILOT021,2021_Jan_04_1612,EmoCon_Pilot_120Hz,2020.2.4,119.96074876756988,
,,,,0,0,0,0,65,0,65,0,,,,,,,,,,,,,,,,,,,,,,,,,,,,,,,,,,,,,,,,,,,,,,65,9.0,f,021_o_f_s_a.jpg,sad,a,17,1,414.3609072000254,414.6553777898895,414.67776770005,414.81616178995466,414.8170678000897,414.8564741900424,414.85750579996966,415.66363228999546,a,1,0.7968254000879824,796.8254000879824,414.85750579996966,415.66363228999546,415.67201819992624,417.41375698989725,EMOCONPILOT021,2021_Jan_04_1612,EmoCon_Pilot_120Hz,2020.2.4,119.96074876756988,
,,,,0,0,0,0,66,0,66,0,,,,,,,,,,,,,,,,,,,,,,,,,,,,,,,,,,,,,,,,,,,,,,66,7.0,f,012_o_f_h_a.jpg,happy,d,3,1,417.419115500059,417.7138512900798,417.73394869989716,417.75688348992264,417.75880529987626,417.7940177899087,417.79523480008356,418.517080490035,d,1,0.7069963000249118,706.9963000249118,417.79523480008356,418.517080490035,418.52304310002364,419.8971178899752,EMOCONPILOT021,2021_Jan_04_1612,EmoCon_Pilot_120Hz,2020.2.4,119.96074876756988,
,,,,0,0,0,0,67,0,67,0,,,,,,,,,,,,,,,,,,,,,,,,,,,,,,,,,,,,,,,,,,,,,,67,9.0,f,021_o_f_h_a.jpg,happy,d,3,1,419.901259199949,420.19712629008575,420.42306110006757,420.45048578993885,420.4540629000403,420.49438468997835,420.499749599956,420.97153919006234,d,1,0.45823420002125204,458.23420002125204,420.499749599956,420.97153919006234,420.9750609998591,422.07218009002975,EMOCONPILOT021,2021_Jan_04_1612,EmoCon_Pilot_120Hz,2020.2.4,119.96074876756988,
,,,,0,0,0,0,68,0,68,0,,,,,,,,,,,,,,,,,,,,,,,,,,,,,,,,,,,,,,,,,,,,,,68,8.0,f,019_m_f_h_a.jpg,happy,d,3,1,422.0763709999155,422.3721722900169,422.39440049999394,422.4173665899085,422.4178704000078,422.4567209899193,422.45776639995165,422.9116624898976,d,1,0.444409100105986,444.409100105986,422.45776639995165,422.9116624898976,422.9182177998591,424.7222096899292,EMOCONPILOT021,2021_Jan_04_1612,EmoCon_Pilot_120Hz,2020.2.4,119.96074876756988,
,,,,0,0,0,0,69,0,69,0,,,,,,,,,,,,,,,,,,,,,,,,,,,,,,,,,,,,,,,,,,,,,,69,9.0,f,021_o_f_s_a.jpg,sad,a,17,1,424.7253195999656,425.0222050899407,425.0423930999823,425.17417048991194,425.1787322999444,425.21834438994995,425.2225271000061,425.86462649006864,a,1,0.6317660000640899,631.7660000640899,425.2225271000061,425.86462649006864,425.87315150001086,427.49731639006643,EMOCONPILOT021,2021_Jan_04_1612,EmoCon_Pilot_120Hz,2020.2.4,119.96074876756988,
,,,,0,0,0,0,70,0,70,0,,,,,,,,,,,,,,,,,,,,,,,,,,,,,,,,,,,,,,,,,,,,,,70,2.0,m,008_y_m_h_a.jpg,happy,d,17,1,427.5012783999555,427.79727168988904,427.82130230008624,427.9572917900747,427.960209999932,427.9985699900659,428.0016131999437,428.44462928993164,d,1,0.42866410012356937,428.66410012356937,428.0016131999437,428.44462928993164,428.4537543000188,430.26409388987815,EMOCONPILOT021,2021_Jan_04_1612,EmoCon_Pilot_120Hz,2020.2.4,119.96074876756988,
,,,,0,0,0,0,71,0,71,0,,,,,,,,,,,,,,,,,,,,,,,,,,,,,,,,,,,,,,,,,,,,,,71,1.0,m,004_o_m_h_a.jpg,happy,d,3,1,430.26806750008836,430.56415048989004,430.7806744000409,430.80699178997895,430.8076486000791,430.84258238996847,430.84230910008773,431.35239698996304,d,1,0.4998717999551445,499.8717999551445,430.84230910008773,431.35239698996304,431.35974039998837,433.11420078997037,EMOCONPILOT021,2021_Jan_04_1612,EmoCon_Pilot_120Hz,2020.2.4,119.96074876756988,
,,,,0,0,0,0,72,0,72,0,,,,,,,,,,,,,,,,,,,,,,,,,,,,,,,,,,,,,,,,,,,,,,72,11.0,f,030_o_f_h_a.jpg,happy,d,3,1,433.1196524000261,433.41415389000906,433.60869959997945,433.6354646899505,433.6358294999227,433.67366208999886,433.6751333998982,434.12682309004015,d,1,0.4432836000341922,443.2836000341922,433.6751333998982,434.12682309004015,434.1351050999947,435.94743508987597,EMOCONPILOT021,2021_Jan_04_1612,EmoCon_Pilot_120Hz,2020.2.4,119.96074876756988,
,,,,0,0,0,0,73,0,73,0,,,,,,,,,,,,,,,,,,,,,,,,,,,,,,,,,,,,,,,,,,,,,,73,8.0,f,019_m_f_s_a.jpg,sad,a,17,1,435.9501769999042,436.24739908988124,436.4823566998821,436.64116509004964,436.6458896000404,436.6865327898646,436.69177330005914,437.1192512898939,a,1,0.4186697001568973,418.6697001568973,436.69177330005914,437.1192512898939,437.1310405000113,438.46418669007255,EMOCONPILOT021,2021_Jan_04_1612,EmoCon_Pilot_120Hz,2020.2.4,119.96074876756988,
,,,,0,0,0,0,74,0,74,0,,,,,,,,,,,,,,,,,,,,,,,,,,,,,,,,,,,,,,,,,,,,,,74,5.0,m,027_o_m_h_a.jpg,happy,d,17,1,438.4682855999563,438.7641965900781,438.959424499888,439.13008838987446,439.1348311000038,439.1761831899872,439.1804025999736,439.5251421900699,d,1,0.32987109990790486,329.87109990790486,439.1804025999736,439.5251421900699,439.53584120003507,441.18933419000825,EMOCONPILOT021,2021_Jan_04_1612,EmoCon_Pilot_120Hz,2020.2.4,119.96074876756988,
,,,,0,0,0,0,75,0,75,0,,,,,,,,,,,,,,,,,,,,,,,,,,,,,,,,,,,,,,,,,,,,,,75,8.0,f,019_m_f_s_a.jpg,sad,a,3,1,441.19467850006185,441.4893026899314,441.7279153999407,441.7544707900612,441.7582507999614,441.79918958994097,441.8043668998871,442.3653468899662,a,1,0.545960099902004,545.960099902004,441.8043668998871,442.3653468899662,442.3770709000528,443.42266698998867,EMOCONPILOT021,2021_Jan_04_1612,EmoCon_Pilot_120Hz,2020.2.4,119.96074876756988,
,,,,0,0,0,0,76,0,76,0,,,,,,,,,,,,,,,,,,,,,,,,,,,,,,,,,,,,,,,,,,,,,,76,7.0,f,012_o_f_n_a.jpg,neutral,s,3,1,443.427981399931,443.72277198990344,443.94033810007386,443.9674044898944,443.968201499898,444.00325978992043,444.0031635998748,445.383854589914,a,0,1.371119299903512,1371.119299903512,444.0031635998748,445.383854589914,445.393184900051,446.9894019898726,EMOCONPILOT021,2021_Jan_04_1612,EmoCon_Pilot_120Hz,2020.2.4,119.96074876756988,
,,,,0,0,0,0,77,0,77,0,,,,,,,,,,,,,,,,,,,,,,,,,,,,,,,,,,,,,,,,,,,,,,77,6.0,m,033_o_m_s_a.jpg,sad,a,17,1,446.9948382000439,447.289496589941,447.3144864998758,447.4493700899417,447.45345909986645,447.49462688995993,447.4998496999033,448.0694278900279,a,1,0.554509999928996,554.509999928996,447.4998496999033,448.0694278900279,448.0809214999899,449.6394138899865,EMOCONPILOT021,2021_Jan_04_1612,EmoCon_Pilot_120Hz,2020.2.4,119.96074876756988,
,,,,0,0,0,0,78,0,78,0,,,,,,,,,,,,,,,,,,,,,,,,,,,,,,,,,,,,,,,,,,,,,,78,1.0,m,004_o_m_h_a.jpg,happy,d,3,1,449.64315259992145,449.9394923900487,450.14711289992556,450.1735688899877,450.17663830006495,450.21421098990834,450.2166710998863,450.6626587899169,d,1,0.43761919997632504,437.61919997632504,450.2166710998863,450.6626587899169,450.6711706998758,452.4060771900928,EMOCONPILOT021,2021_Jan_04_1612,EmoCon_Pilot_120Hz,2020.2.4,119.96074876756988,
,,,,0,0,0,0,79,0,79,0,,,,,,,,,,,,,,,,,,,,,,,,,,,,,,,,,,,,,,,,,,,,,,79,5.0,m,027_o_m_s_a.jpg,sad,a,17,1,452.4089204999618,452.706087289867,452.7184929999057,452.8495617900277,452.85327739990316,452.8934726899257,452.89790700003505,453.3564601899358,a,1,0.4445111998356879,444.5111998356879,452.89790700003505,453.3564601899358,453.36787369986996,455.03962708988695,EMOCONPILOT021,2021_Jan_04_1612,EmoCon_Pilot_120Hz,2020.2.4,119.96074876756988,
,,,,0,0,0,0,80,0,80,0,,,,,,,,,,,,,,,,,,,,,,,,,,,,,,,,,,,,,,,,,,,,,,80,9.0,f,021_o_f_s_a.jpg,sad,a,3,1,455.045008999994,455.33959728993943,455.3638285000343,455.3863512899494,455.3872479000129,455.42401158998257,455.4241617000662,456.03904659000693,a,1,0.5982813998125494,598.2813998125494,455.4241617000662,456.03904659000693,456.05070400005206,457.173001490091,EMOCONPILOT021,2021_Jan_04_1612,EmoCon_Pilot_120Hz,2020.2.4,119.96074876756988,
,,,,0,0,0,0,81,0,81,0,,,,,,,,,,,,,,,,,,,,,,,,,,,,,,,,,,,,,,,,,,,,,,81,5.0,m,027_o_m_s_a.jpg,sad,a,3,1,457.17901000007987,457.4729583899258,457.4883556999266,457.5115590899019,457.5118054000195,457.54922118994875,457.5492757000029,458.17217848987787,a,1,0.6090322001837194,609.0322001837194,457.5492757000029,458.17217848987787,458.1803033000324,459.4480034900131,EMOCONPILOT021,2021_Jan_04_1612,EmoCon_Pilot_120Hz,2020.2.4,119.96074876756988,
,,,,0,0,0,0,82,0,82,0,,,,,,,,,,,,,,,,,,,,,,,,,,,,,,,,,,,,,,,,,,,,,,82,7.0,f,012_o_f_h_a.jpg,happy,d,3,1,459.4533049999736,459.748042889894,459.7703533999156,459.7928344900953,459.79358149995096,459.8325804900611,459.83384109986946,460.5912519900827,d,1,0.7486913001630455,748.6913001630455,459.83384109986946,460.5912519900827,460.60190279991366,462.32306698991454,EMOCONPILOT021,2021_Jan_04_1612,EmoCon_Pilot_120Hz,2020.2.4,119.96074876756988,
,,,,0,0,0,0,83,0,83,0,,,,,,,,,,,,,,,,,,,,,,,,,,,,,,,,,,,,,,,,,,,,,,83,3.0,m,013_y_m_s_a.jpg,sad,a,17,1,462.3268037000671,462.6230139900232,462.64734239992686,462.7829305900028,462.7859539000783,462.82428609000056,462.82702969992533,463.6916987900855,a,1,0.8511799001134932,851.1799001134932,462.82702969992533,463.6916987900855,463.69942219997756,464.8731733900728,EMOCONPILOT021,2021_Jan_04_1612,EmoCon_Pilot_120Hz,2020.2.4,119.96074876756988,
,,,,0,0,0,0,84,0,84,0,,,,,,,,,,,,,,,,,,,,,,,,,,,,,,,,,,,,,,,,,,,,,,84,5.0,m,027_o_m_s_a.jpg,sad,a,3,1,464.8786925000604,465.173110589874,465.1952048998792,465.21711778992324,465.218827100005,465.257637090073,465.2591508999467,465.9738155899337,a,1,0.7070619000587612,707.0619000587612,465.2591508999467,465.9738155899337,465.98036619997583,467.1314491899917,EMOCONPILOT021,2021_Jan_04_1612,EmoCon_Pilot_120Hz,2020.2.4,119.96074876756988,
,,,,0,0,0,0,85,0,85,0,,,,,,,,,,,,,,,,,,,,,,,,,,,,,,,,,,,,,,,,,,,,,,85,4.0,m,016_y_m_s_a.jpg,sad,a,17,1,467.1356005000416,467.43153408986984,467.45573649997823,467.59142828991173,467.5947074999567,467.6331000898732,467.63719159993343,468.09238598986997,a,1,0.4411148999352008,441.1148999352008,467.63719159993343,468.09238598986997,468.102913599927,469.5648475899594,EMOCONPILOT021,2021_Jan_04_1612,EmoCon_Pilot_120Hz,2020.2.4,119.96074876756988,
,,,,0,0,0,0,86,0,86,0,,,,,,,,,,,,,,,,,,,,,,,,,,,,,,,,,,,,,,,,,,,,,,86,5.0,m,027_o_m_n_a.jpg,neutral,s,17,1,469.5689314000774,469.8648946900154,470.09645850001834,470.2660078900168,470.26889019994996,470.30636698987803,470.3092211999465,470.8233579900349,s,1,0.5049941998440772,504.99419984407723,470.3092211999465,470.8233579900349,470.8318528998643,472.1149113900261,EMOCONPILOT021,2021_Jan_04_1612,EmoCon_Pilot_120Hz,2020.2.4,119.96074876756988,
,,,,0,0,0,0,87,0,87,0,,,,,,,,,,,,,,,,,,,,,,,,,,,,,,,,,,,,,,,,,,,,,,87,3.0,m,013_y_m_h_a.jpg,happy,d,3,1,472.1190178000834,472.41491918989925,472.6541544999927,472.6783718900057,472.6787598999217,472.71619228997736,472.7175036999397,473.2695312900702,d,1,0.536797899985686,536.797899985686,472.7175036999397,473.2695312900702,473.2752535000909,474.9066276899772,EMOCONPILOT021,2021_Jan_04_1612,EmoCon_Pilot_120Hz,2020.2.4,119.96074876756988,
,,,,0,0,0,0,88,0,88,0,,,,,,,,,,,,,,,,,,,,,,,,,,,,,,,,,,,,,,,,,,,,,,88,5.0,m,027_o_m_s_a.jpg,sad,a,17,1,474.9109264998697,475.2065910899779,475.2268374999985,475.35823558995037,475.36004239995964,475.39956148995554,475.40237469994463,475.7903397900751,a,1,0.3718567998148501,371.8567998148501,475.40237469994463,475.7903397900751,475.79855709988624,477.2733802900417,EMOCONPILOT021,2021_Jan_04_1612,EmoCon_Pilot_120Hz,2020.2.4,119.96074876756988,
,,,,0,0,0,0,89,0,89,0,,,,,,,,,,,,,,,,,,,,,,,,,,,,,,,,,,,,,,,,,,,,,,89,5.0,m,027_o_m_s_a.jpg,sad,a,17,1,477.2783981000539,477.5734442898771,477.593668699963,477.72495768989904,477.72811649995856,477.76630008991344,477.769262699876,478.1193744899007,a,1,0.3411316000856459,341.1316000856459,477.769262699876,478.1193744899007,478.12749939993955,479.32342039004436,EMOCONPILOT021,2021_Jan_04_1612,EmoCon_Pilot_120Hz,2020.2.4,119.96074876756988,
,,,,0,0,0,0,90,0,90,0,,,,,,,,,,,,,,,,,,,,,,,,,,,,,,,,,,,,,,,,,,,,,,90,12.0,f,040_y_f_s_a.jpg,sad,a,3,1,479.32894450007007,479.62343578997536,479.63941839989275,479.6611967899604,479.66223890008405,479.6997077900684,479.70059809996746,480.94971838991626,a,1,1.2416218998841941,1241.6218998841941,479.70059809996746,480.94971838991626,480.95633720001206,482.8734644900775,EMOCONPILOT021,2021_Jan_04_1612,EmoCon_Pilot_120Hz,2020.2.4,119.96074876756988,
,,,,0,0,0,0,91,0,91,0,,,,,,,,,,,,,,,,,,,,,,,,,,,,,,,,,,,,,,,,,,,,,,91,3.0,m,013_y_m_n_a.jpg,neutral,s,17,1,482.87773399986327,483.1734676899156,483.4220221999567,483.5743995900499,483.57767160004005,483.6177910899511,483.6227843000088,484.21601118987894,s,1,0.583363400073722,583.363400073722,483.6227843000088,484.21601118987894,484.217727500014,485.90686199001505,EMOCONPILOT021,2021_Jan_04_1612,EmoCon_Pilot_120Hz,2020.2.4,119.96074876756988,
,,,,0,0,0,0,92,0,92,0,,,,,,,,,,,,,,,,,,,,,,,,,,,,,,,,,,,,,,,,,,,,,,92,12.0,f,040_y_f_s_a.jpg,sad,a,17,1,485.91218900005333,486.20696398990697,486.23223469988443,486.3668057900155,486.37036499986425,486.40819309002256,486.41132090007886,486.97763269001155,a,1,0.5549997999332845,554.9997999332845,486.41132090007886,486.97763269001155,486.9878744999878,488.93192218991464,EMOCONPILOT021,2021_Jan_04_1612,EmoCon_Pilot_120Hz,2020.2.4,119.96074876756988,
,,,,0,0,0,0,93,0,93,0,,,,,,,,,,,,,,,,,,,,,,,,,,,,,,,,,,,,,,,,,,,,,,93,6.0,m,033_o_m_s_a.jpg,sad,a,3,1,488.9360903999768,489.23207238994075,489.2556821000762,489.27828659003137,489.27914620004594,489.31652669005564,489.3165152000729,490.27086998990274,s,0,0.9377230999525636,937.7230999525636,489.3165152000729,490.27086998990274,490.27911620005034,491.3986751900753,EMOCONPILOT021,2021_Jan_04_1612,EmoCon_Pilot_120Hz,2020.2.4,119.96074876756988,
,,,,0,0,0,0,94,0,94,0,,,,,,,,,,,,,,,,,,,,,,,,,,,,,,,,,,,,,,,,,,,,,,94,2.0,m,008_y_m_s_a.jpg,sad,a,3,1,491.4042080999352,491.6986823899439,491.942875900073,491.96841379001273,491.96901010000147,492.0053658900084,492.00682009989396,492.66268019007987,a,1,0.647467799950391,647.467799950391,492.00682009989396,492.66268019007987,492.6701235999353,494.4320669900859,EMOCONPILOT021,2021_Jan_04_1612,EmoCon_Pilot_120Hz,2020.2.4,119.96074876756988,
,,,,0,0,0,0,95,0,95,0,,,,,,,,,,,,,,,,,,,,,,,,,,,,,,,,,,,,,,,,,,,,,,95,8.0,f,019_m_f_s_a.jpg,sad,a,17,1,494.4361429999117,494.732083190023,494.9715670000296,495.13226818994156,495.135673499899,495.1729044900509,495.17601779988036,495.69256638993977,a,1,0.5023324000649154,502.3324000649154,495.17601779988036,495.69256638993977,495.70066209998913,497.01539638990073,EMOCONPILOT021,2021_Jan_04_1612,EmoCon_Pilot_120Hz,2020.2.4,119.96074876756988,
,,,,0,0,0,0,96,0,96,0,,,,,,,,,,,,,,,,,,,,,,,,,,,,,,,,,,,,,,,,,,,,,,96,9.0,f,021_o_f_n_a.jpg,neutral,s,17,1,497.01841420005076,497.31536289004146,497.5324452999048,497.69256698994434,497.6970655999612,497.73796468998773,497.74346000002697,498.2637121898821,s,1,0.5030715998727828,503.0715998727828,497.74346000002697,498.2637121898821,498.27505149994977,499.50712228987834,EMOCONPILOT021,2021_Jan_04_1612,EmoCon_Pilot_120Hz,2020.2.4,119.96074876756988,
,,,,0,0,0,0,97,0,97,0,,,,,,,,,,,,,,,,,,,,,,,,,,,,,,,,,,,,,,,,,,,,,,97,11.0,f,030_o_f_h_a.jpg,happy,d,3,1,499.511101400014,499.80714238996154,500.0059412000701,500.0320834899554,500.03225759998895,500.0675359899411,500.0692254998721,500.69083268989345,d,1,0.6092896999325603,609.2896999325603,500.0692254998721,500.69083268989345,500.7008531000465,501.8405844900059,EMOCONPILOT021,2021_Jan_04_1612,EmoCon_Pilot_120Hz,2020.2.4,119.96074876756988,
,,,,0,0,0,0,98,0,98,0,,,,,,,,,,,,,,,,,,,,,,,,,,,,,,,,,,,,,,,,,,,,,,98,12.0,f,040_y_f_n_a.jpg,neutral,s,17,1,501.8453446000349,502.1406779899495,502.35491860006005,502.51821889008863,502.52309769997373,502.56402329008563,502.56896619987674,503.04779248989655,s,1,0.4695567998569459,469.5567998569459,502.56896619987674,503.04779248989655,503.0596596999094,504.5238637898816,EMOCONPILOT021,2021_Jan_04_1612,EmoCon_Pilot_120Hz,2020.2.4,119.96074876756988,
,,,,0,0,0,0,99,0,99,0,,,,,,,,,,,,,,,,,,,,,,,,,,,,,,,,,,,,,,,,,,,,,,99,12.0,f,040_y_f_s_a.jpg,sad,a,3,1,504.52678239997476,504.8239788899897,504.8456579998601,504.8687848900678,504.8689528000541,504.90851648992395,504.9101261999458,505.7439407899743,s,0,0.824167100014165,824.167100014165,504.9101261999458,505.7439407899743,505.7541461000219,506.9740181900794,EMOCONPILOT021,2021_Jan_04_1612,EmoCon_Pilot_120Hz,2020.2.4,119.96074876756988,
,,,,0,0,0,0,100,0,100,0,,,,,,,,,,,,,,,,,,,,,,,,,,,,,,,,,,,,,,,,,,,,,,100,4.0,m,016_y_m_n_a.jpg,neutral,s,17,1,506.97938150004484,507.2740182900103,507.5139184000436,507.67969558995685,507.6845825999044,507.72454578990585,507.72951849992387,508.3487594900886,s,1,0.6048235001508147,604.8235001508147,507.72951849992387,508.3487594900886,508.36011769995093,510.1157647900051,EMOCONPILOT021,2021_Jan_04_1612,EmoCon_Pilot_120Hz,2020.2.4,119.96074876756988,
,,,,0,0,0,0,101,0,101,0,,,,,,,,,,,,,,,,,,,,,,,,,,,,,,,,,,,,,,,,,,,,,,101,11.0,f,030_o_f_s_a.jpg,sad,a,3,1,510.11945430003107,510.41569389009385,510.6114896000363,510.63832138993314,510.64120329986326,510.6780753899599,510.6811587999109,511.9837422899669,a,1,1.2930169000755996,1293.0169000755996,510.6811587999109,511.9837422899669,511.98921700008214,513.1574966900749,EMOCONPILOT021,2021_Jan_04_1612,EmoCon_Pilot_120Hz,2020.2.4,119.96074876756988,
,,,,0,0,0,0,102,0,102,0,,,,,,,,,,,,,,,,,,,,,,,,,,,,,,,,,,,,,,,,,,,,,,102,3.0,m,013_y_m_h_a.jpg,happy,d,17,1,513.1621548000257,513.4574852900347,513.6982336000074,513.8604626900284,513.8644487999845,513.9046093900921,513.9097086000256,514.3168722898932,d,1,0.39259629999287426,392.59629999287426,513.9097086000256,514.3168722898932,514.3267218999099,515.5992022899678,EMOCONPILOT021,2021_Jan_04_1612,EmoCon_Pilot_120Hz,2020.2.4,119.96074876756988,
,,,,0,0,0,0,103,0,103,0,,,,,,,,,,,,,,,,,,,,,,,,,,,,,,,,,,,,,,,,,,,,,,103,2.0,m,008_y_m_s_a.jpg,sad,a,3,1,515.6052310999949,515.899213589984,516.1203035998624,516.1460542900255,516.1463854000904,516.1837809898658,516.1851170998998,516.7974956899649,a,1,0.597341800108552,597.341800108552,516.1851170998998,516.7974956899649,516.8051255999599,517.9408800900216,EMOCONPILOT021,2021_Jan_04_1612,EmoCon_Pilot_120Hz,2020.2.4,119.96074876756988,
,,,,0,0,0,0,104,0,104,0,,,,,,,,,,,,,,,,,,,,,,,,,,,,,,,,,,,,,,,,,,,,,,104,11.0,f,030_o_f_s_a.jpg,sad,a,3,1,517.9448055999819,518.2408857899951,518.4389468000736,518.4653223899892,518.465254199924,518.500340590044,518.5005995000247,519.4242587900022,s,0,0.9138493998907506,913.8493998907506,518.5005995000247,519.4242587900022,519.432687799912,520.4575237899786,EMOCONPILOT021,2021_Jan_04_1612,EmoCon_Pilot_120Hz,2020.2.4,119.96074876756988,
,,,,0,0,0,0,105,0,105,0,,,,,,,,,,,,,,,,,,,,,,,,,,,,,,,,,,,,,,,,,,,,,,105,4.0,m,016_y_m_h_a.jpg,happy,d,3,1,520.4605368999764,520.7576357899467,520.7806245000102,520.8033639900619,520.8055556998588,520.8430683899438,520.8448073000181,521.5661371900002,d,1,0.7137534997891635,713.7534997891635,520.8448073000181,521.5661371900002,521.5749057000503,522.757779789879,EMOCONPILOT021,2021_Jan_04_1612,EmoCon_Pilot_120Hz,2020.2.4,119.96074876756988,
,,,,0,0,0,0,106,0,106,0,,,,,,,,,,,,,,,,,,,,,,,,,,,,,,,,,,,,,,,,,,,,,,106,7.0,f,012_o_f_n_a.jpg,neutral,s,3,1,522.7635808000341,523.0576975899982,523.264965099981,523.291105390084,523.2918805999216,523.3260982900625,523.3262533999514,524.246147089894,s,1,0.9042608998715878,904.2608998715878,523.3262533999514,524.246147089894,524.2555205000099,526.2493923900416,EMOCONPILOT021,2021_Jan_04_1612,EmoCon_Pilot_120Hz,2020.2.4,119.96074876756988,
,,,,0,0,0,0,107,0,107,0,,,,,,,,,,,,,,,,,,,,,,,,,,,,,,,,,,,,,,,,,,,,,,107,11.0,f,030_o_f_h_a.jpg,happy,d,17,1,526.2536913000513,526.549402589933,526.7522976000328,526.9097507898929,526.9133957999293,526.9541755900951,526.9584647999145,527.3558021900477,d,1,0.3841057999525219,384.1057999525219,526.9584647999145,527.3558021900477,527.3657990000211,529.0911929898663,EMOCONPILOT021,2021_Jan_04_1612,EmoCon_Pilot_120Hz,2020.2.4,119.96074876756988,
,,,,0,0,0,0,108,0,108,0,,,,,,,,,,,,,,,,,,,,,,,,,,,,,,,,,,,,,,,,,,,,,,108,1.0,m,004_o_m_s_a.jpg,sad,a,17,1,529.0954978000373,529.3911013899138,529.4132554000244,529.5511212898651,529.5545296999626,529.5941697899485,529.5974415000528,530.2761267898837,a,1,0.6648718998767436,664.8718998767436,529.5974415000528,530.2761267898837,530.2862398000434,531.757940890058,EMOCONPILOT021,2021_Jan_04_1612,EmoCon_Pilot_120Hz,2020.2.4,119.96074876756988,
,,,,0,0,0,0,109,0,109,0,,,,,,,,,,,,,,,,,,,,,,,,,,,,,,,,,,,,,,,,,,,,,,109,3.0,m,013_y_m_n_a.jpg,neutral,s,3,1,531.7640434999485,532.0579172899248,532.3004972999915,532.3261495898711,532.3266535999719,532.3606714899885,532.3605965999886,532.9933244900545,s,1,0.6217050000559539,621.7050000559539,532.3605965999886,532.9933244900545,533.000334699871,534.5078910899116,EMOCONPILOT021,2021_Jan_04_1612,EmoCon_Pilot_120Hz,2020.2.4,119.96074876756988,
,,,,0,0,0,0,110,0,110,0,,,,,,,,,,,,,,,,,,,,,,,,,,,,,,,,,,,,,,,,,,,,,,110,10.0,f,028_y_f_s_a.jpg,sad,a,17,1,534.5120423999615,534.8079195900588,534.8279770000372,534.9595571900951,534.9640041999519,535.0046128900955,535.0098339000251,535.5690463900333,a,1,0.5484776999801397,548.4776999801397,535.0098339000251,535.5690463900333,535.5786427999847,537.4247495900141,EMOCONPILOT021,2021_Jan_04_1612,EmoCon_Pilot_120Hz,2020.2.4,119.96074876756988,
,,,,0,0,0,0,111,0,111,0,,,,,,,,,,,,,,,,,,,,,,,,,,,,,,,,,,,,,,,,,,,,,,111,11.0,f,030_o_f_h_a.jpg,happy,d,17,1,537.4298447000328,537.724680990004,537.9172467000317,538.0837380900281,538.0876267000567,538.1289436898893,538.1341748000123,538.4199565900723,d,1,0.27246020012535155,272.46020012535155,538.1341748000123,538.4199565900723,538.4309805000667,540.1496973899426,EMOCONPILOT021,2021_Jan_04_1612,EmoCon_Pilot_120Hz,2020.2.4,119.96074876756988,
,,,,0,0,0,0,112,0,112,0,,,,,,,,,,,,,,,,,,,,,,,,,,,,,,,,,,,,,,,,,,,,,,112,7.0,f,012_o_f_n_a.jpg,neutral,s,17,1,540.1537591000088,540.4496832899982,540.665407499997,540.8290705899941,540.8325686999597,540.8736243900145,540.8787946999073,541.681163589959,s,1,0.7917346002068371,791.7346002068371,540.8787946999073,541.681163589959,541.6927676000632,543.1164160899585,EMOCONPILOT021,2021_Jan_04_1612,EmoCon_Pilot_120Hz,2020.2.4,119.96074876756988,
,,,,0,0,0,0,113,0,113,0,,,,,,,,,,,,,,,,,,,,,,,,,,,,,,,,,,,,,,,,,,,,,,113,2.0,m,008_y_m_s_a.jpg,sad,a,17,1,543.1202752999961,543.4164079900598,543.6466069000307,543.8130123899551,543.8179148999043,543.8592176900944,543.8644165000878,544.2460088900058,a,1,0.3736898999195546,373.6898999195546,543.8644165000878,544.2460088900058,544.2522315999959,546.1998252899153,EMOCONPILOT021,2021_Jan_04_1612,EmoCon_Pilot_120Hz,2020.2.4,119.96074876756988,
,,,,0,0,0,0,114,0,114,0,,,,,,,,,,,,,,,,,,,,,,,,,,,,,,,,,,,,,,,,,,,,,,114,11.0,f,030_o_f_h_a.jpg,happy,d,17,1,546.2039262000471,546.4999298900599,546.6913920999505,546.8448318899842,546.8478236999363,546.8844033899019,546.8871999999974,547.275973089994,d,1,0.3751789000816643,375.1789000816643,546.8871999999974,547.275973089994,547.2850369999651,548.758207689994,EMOCONPILOT021,2021_Jan_04_1612,EmoCon_Pilot_120Hz,2020.2.4,119.96074876756988,
,,,,0,0,0,0,115,0,115,0,,,,,,,,,,,,,,,,,,,,,,,,,,,,,,,,,,,,,,,,,,,,,,115,3.0,m,013_y_m_h_a.jpg,happy,d,17,1,548.7622378999367,549.0582135899691,549.3019644999877,549.4564968899591,549.4601596000139,549.5005334899994,549.5054826999549,549.9335803899681,d,1,0.4209678000770509,420.9678000770509,549.5054826999549,549.9335803899681,549.9455468000378,551.3665963900509,EMOCONPILOT021,2021_Jan_04_1612,EmoCon_Pilot_120Hz,2020.2.4,119.96074876756988,
,,,,0,0,0,0,116,0,116,0,,,,,,,,,,,,,,,,,,,,,,,,,,,,,,,,,,,,,,,,,,,,,,116,2.0,m,008_y_m_s_a.jpg,sad,a,17,1,551.3707693999168,551.6666432898725,551.897897399962,552.0515592899407,552.0564735999797,552.0961137900828,552.1009162000846,552.4280389899155,d,0,0.31369969993829727,313.6996999382973,552.1009162000846,552.4280389899155,552.4389543998986,553.9083034899319,EMOCONPILOT021,2021_Jan_04_1612,EmoCon_Pilot_120Hz,2020.2.4,119.96074876756988,
,,,,0,0,0,0,117,0,117,0,,,,,,,,,,,,,,,,,,,,,,,,,,,,,,,,,,,,,,,,,,,,,,117,3.0,m,013_y_m_n_a.jpg,neutral,s,17,1,553.9113346999511,554.2083344899817,554.4520687998738,554.6058761899127,554.6100457999855,554.6509184900439,554.6553753998596,555.123949389928,s,1,0.4549731998704374,454.9731998704374,554.6553753998596,555.123949389928,555.1326409000903,556.1916699898662,EMOCONPILOT021,2021_Jan_04_1612,EmoCon_Pilot_120Hz,2020.2.4,119.96074876756988,
,,,,0,0,0,0,118,0,118,0,,,,,,,,,,,,,,,,,,,,,,,,,,,,,,,,,,,,,,,,,,,,,,118,6.0,m,033_o_m_n_a.jpg,neutral,s,17,1,556.1946229999885,556.491734189936,556.6923787998967,556.8629001900787,556.8674901998602,556.9081788899144,556.9132578000426,557.4323557899567,s,1,0.5090683000162244,509.0683000162244,556.9132578000426,557.4323557899567,557.4439151999541,559.183424989949,EMOCONPILOT021,2021_Jan_04_1612,EmoCon_Pilot_120Hz,2020.2.4,119.96074876756988,
,,,,0,0,0,0,119,0,119,0,,,,,,,,,,,,,,,,,,,,,,,,,,,,,,,,,,,,,,,,,,,,,,119,6.0,m,033_o_m_n_a.jpg,neutral,s,17,1,559.1877265998628,559.4834398899926,559.6892770000268,559.8508900900139,559.8555381000042,559.8962470900966,559.9007206000388,560.4485878900392,s,1,0.5377753998618573,537.7753998618573,559.9007206000388,560.4485878900392,560.4610265998635,562.108491190034,EMOCONPILOT021,2021_Jan_04_1612,EmoCon_Pilot_120Hz,2020.2.4,119.96074876756988,
,,,,1,0,1,0,0,0,0,0,,,,,,,,,,,,,,,,,,,,,,,,,,,,,,,,,,,,,,,562.200797899859,572.0374372899765,a,9.821626600110903,9821.626600110903,562.200797899859,572.0374372899765,0,1.0,m,004_o_m_s_a.jpg,sad,a,17,2,572.0448308999185,572.3337452900829,572.3516228999943,572.4853730900446,572.4895705999807,572.5301373899216,572.5342949999031,573.1495407899143,a,1,0.6081278000492603,608.1278000492603,572.5342949999031,573.1495407899143,573.1624795999378,574.7337963900296,EMOCONPILOT021,2021_Jan_04_1612,EmoCon_Pilot_120Hz,2020.2.4,119.96074876756988,
,,,,1,0,1,0,1,0,1,0,,,,,,,,,,,,,,,,,,,,,,,,,,,,,,,,,,,,,,,,,,,,,,1,9.0,f,021_o_f_n_a.jpg,neutral,s,2,2,574.7383886999451,575.0337974899682,575.2543830999639,575.2720820899355,575.272713500075,575.3099351900397,575.3094084998593,576.118407489988,s,1,0.8012180998921394,801.2180998921394,575.3094084998593,576.118407489988,576.1292149999645,577.9255098898662,EMOCONPILOT021,2021_Jan_04_1612,EmoCon_Pilot_120Hz,2020.2.4,119.96074876756988,
,,,,1,0,1,0,2,0,2,0,,,,,,,,,,,,,,,,,,,,,,,,,,,,,,,,,,,,,,,,,,,,,,2,11.0,f,030_o_f_s_a.jpg,sad,a,2,2,577.9295904000755,578.2255335899769,578.4273625998758,578.444836289878,578.4448522999883,578.4793158900226,578.4798653000034,579.3463387899334,s,0,0.8544759999495,854.4759999495,578.4798653000034,579.3463387899334,579.3537667999044,580.8673562898999,EMOCONPILOT021,2021_Jan_04_1612,EmoCon_Pilot_120Hz,2020.2.4,119.96074876756988,
,,,,1,0,1,0,3,0,3,0,,,,,,,,,,,,,,,,,,,,,,,,,,,,,,,,,,,,,,,,,,,,,,3,10.0,f,028_y_f_s_a.jpg,sad,a,17,2,580.8730387999676,581.1673796898918,581.1925282999873,581.3271504899254,581.3303628000431,581.3685079899384,581.3715758998878,581.8506582898787,a,1,0.4669584999792278,466.9584999792278,581.3715758998878,581.8506582898787,581.8608434998896,582.8840441899607,EMOCONPILOT021,2021_Jan_04_1612,EmoCon_Pilot_120Hz,2020.2.4,119.96074876756988,
,,,,1,0,1,0,4,0,4,0,,,,,,,,,,,,,,,,,,,,,,,,,,,,,,,,,,,,,,,,,,,,,,4,6.0,m,033_o_m_n_a.jpg,neutral,s,17,2,582.8884107999038,583.1839426900493,583.3908069999889,583.549570889934,583.5540584998671,583.5943370899419,583.5994682998862,584.0046965899179,a,0,0.39094080007635057,390.94080007635057,583.5994682998862,584.0046965899179,584.016275400063,585.8258047900396,EMOCONPILOT021,2021_Jan_04_1612,EmoCon_Pilot_120Hz,2020.2.4,119.96074876756988,
,,,,1,0,1,0,5,0,5,0,,,,,,,,,,,,,,,,,,,,,,,,,,,,,,,,,,,,,,,,,,,,,,5,1.0,m,004_o_m_n_a.jpg,neutral,s,2,2,585.831129899947,586.1257083900506,586.3203415998723,586.3379103900166,586.3380910998676,586.3731198900147,586.3730514000636,587.1264460899635,s,1,0.7454599000047892,745.4599000047892,586.3730514000636,587.1264460899635,587.1341379000805,588.5008582899114,EMOCONPILOT021,2021_Jan_04_1612,EmoCon_Pilot_120Hz,2020.2.4,119.96074876756988,
,,,,1,0,1,0,6,0,6,0,,,,,,,,,,,,,,,,,,,,,,,,,,,,,,,,,,,,,,,,,,,,,,6,12.0,f,040_y_f_s_a.jpg,sad,a,17,2,588.5062259999104,588.8008606899763,588.8262932000216,588.9606961899204,588.963300799951,589.001965390076,589.0049938999582,589.8373443898978,a,1,0.8253858999814838,825.3858999814838,589.0049938999582,589.8373443898978,589.8458034999203,591.1174172898988,EMOCONPILOT021,2021_Jan_04_1612,EmoCon_Pilot_120Hz,2020.2.4,119.96074876756988,
,,,,1,0,1,0,7,0,7,0,,,,,,,,,,,,,,,,,,,,,,,,,,,,,,,,,,,,,,,,,,,,,,7,9.0,f,021_o_f_n_a.jpg,neutral,s,17,2,591.1203493999783,591.417413390032,591.624239699915,591.7917215898866,591.7964365000371,591.8365756899817,591.8416959000751,592.6314524899004,s,1,0.7806796999648213,780.6796999648213,591.8416959000751,592.6314524899004,592.6399107999168,594.4092919898918,EMOCONPILOT021,2021_Jan_04_1612,EmoCon_Pilot_120Hz,2020.2.4,119.96074876756988,
,,,,1,0,1,0,8,0,8,0,,,,,,,,,,,,,,,,,,,,,,,,,,,,,,,,,,,,,,,,,,,,,,8,9.0,f,021_o_f_s_a.jpg,sad,a,2,2,594.4121701999102,594.709207089874,594.7302037999034,594.7457555900561,594.7466271000449,594.7829267899739,594.7825348998886,595.5674623900792,s,0,0.775861999951303,775.861999951303,594.7825348998886,595.5674623900792,595.5758958000224,596.767597989901,EMOCONPILOT021,2021_Jan_04_1612,EmoCon_Pilot_120Hz,2020.2.4,119.96074876756988,
,,,,1,0,1,0,9,0,9,0,,,,,,,,,,,,,,,,,,,,,,,,,,,,,,,,,,,,,,,,,,,,,,9,4.0,m,016_y_m_s_a.jpg,sad,a,2,2,596.7703390000388,597.0675408900948,597.0881751000416,597.1039946899051,597.1043390999548,597.1396760898875,597.1400051999371,598.3670896899654,a,1,1.2183411000296474,1218.3411000296474,597.1400051999371,598.3670896899654,598.3752288999967,600.1592974900501,EMOCONPILOT021,2021_Jan_04_1612,EmoCon_Pilot_120Hz,2020.2.4,119.96074876756988,
,,,,1,0,1,0,10,0,10,0,,,,,,,,,,,,,,,,,,,,,,,,,,,,,,,,,,,,,,,,,,,,,,10,7.0,f,012_o_f_n_a.jpg,neutral,s,17,2,600.1634184999857,600.4593248900725,600.6799333998933,600.8522866899381,600.8558209000621,600.8962573900586,600.9008585999254,601.4296305899276,s,1,0.513433399843052,513.433399843052,600.9008585999254,601.4296305899276,601.4314675000496,602.5843308898853,EMOCONPILOT021,2021_Jan_04_1612,EmoCon_Pilot_120Hz,2020.2.4,119.96074876756988,
,,,,1,0,1,0,11,0,11,0,,,,,,,,,,,,,,,,,,,,,,,,,,,,,,,,,,,,,,,,,,,,,,11,2.0,m,008_y_m_n_a.jpg,neutral,s,17,2,602.5884257999714,602.8843516900903,603.1185603998601,603.2761905899039,603.2808870999143,603.3200407899218,603.3252200998832,605.1504314900609,None,0,,,603.3252200998832,605.1504314900609,605.157567899907,606.6928790898761,EMOCONPILOT021,2021_Jan_04_1612,EmoCon_Pilot_120Hz,2020.2.4,119.96074876756988,
,,,,1,0,1,0,12,0,12,0,,,,,,,,,,,,,,,,,,,,,,,,,,,,,,,,,,,,,,,,,,,,,,12,1.0,m,004_o_m_s_a.jpg,sad,a,2,2,606.6971859000623,606.9928554899758,607.0132023999467,607.028147890023,607.0290361000225,607.0641247900436,607.0647142999806,608.178180790064,a,1,1.1016684998758137,1101.6684998758137,607.0647142999806,608.178180790064,608.1865649998654,609.6594326899154,EMOCONPILOT021,2021_Jan_04_1612,EmoCon_Pilot_120Hz,2020.2.4,119.96074876756988,
,,,,1,0,1,0,13,0,13,0,,,,,,,,,,,,,,,,,,,,,,,,,,,,,,,,,,,,,,,,,,,,,,13,7.0,f,012_o_f_h_a.jpg,happy,d,2,2,609.6624537999742,609.9595218899427,609.9837088000495,609.9995590900304,610.0000559999608,610.0357189900475,610.0358295999467,611.6952676899033,None,0,,,610.0358295999467,611.6952676899033,611.7009429000318,613.0428781900788,EMOCONPILOT021,2021_Jan_04_1612,EmoCon_Pilot_120Hz,2020.2.4,119.96074876756988,
,,,,1,0,1,0,14,0,14,0,,,,,,,,,,,,,,,,,,,,,,,,,,,,,,,,,,,,,,,,,,,,,,14,3.0,m,013_y_m_h_a.jpg,happy,d,2,2,613.0466072000563,613.3428834900493,613.5947610998992,613.6119952900568,613.6122236000374,613.6478833898669,613.6483988999389,614.7155156899477,d,1,1.053925900021568,1053.925900021568,613.6483988999389,614.7155156899477,614.7238865999971,615.8846855899552,EMOCONPILOT021,2021_Jan_04_1612,EmoCon_Pilot_120Hz,2020.2.4,119.96074876756988,
,,,,1,0,1,0,15,0,15,0,,,,,,,,,,,,,,,,,,,,,,,,,,,,,,,,,,,,,,,,,,,,,,15,11.0,f,030_o_f_n_a.jpg,neutral,s,17,2,615.8900061000604,616.1847154898802,616.3895487999544,616.5494938900462,616.5541296000592,616.5955308899516,616.6005468999501,617.0972792899935,s,1,0.4859459998551756,485.9459998551756,616.6005468999501,617.0972792899935,617.1089236999396,618.9764679898741,EMOCONPILOT021,2021_Jan_04_1612,EmoCon_Pilot_120Hz,2020.2.4,119.96074876756988,
,,,,1,0,1,0,16,0,16,0,,,,,,,,,,,,,,,,,,,,,,,,,,,,,,,,,,,,,,,,,,,,,,16,3.0,m,013_y_m_n_a.jpg,neutral,s,2,2,618.9824113999493,619.2765354900854,619.5103498999961,619.527574989968,619.5281322998926,619.5638261898654,619.5640982000623,621.1333537900588,d,0,1.562369299819693,1562.369299819693,619.5640982000623,621.1333537900588,621.1437486000359,623.0182070899988,EMOCONPILOT021,2021_Jan_04_1612,EmoCon_Pilot_120Hz,2020.2.4,119.96074876756988,
,,,,1,0,1,0,17,0,17,0,,,,,,,,,,,,,,,,,,,,,,,,,,,,,,,,,,,,,,,,,,,,,,17,9.0,f,021_o_f_h_a.jpg,happy,d,17,2,623.0245097998995,623.318170289998,623.5180524000898,623.6801019900246,623.6840089999605,623.7250556899468,623.7297936000396,624.2075944899349,d,1,0.46081930003128946,460.81930003128946,623.7297936000396,624.2075944899349,624.2190896000247,626.0099586900557,EMOCONPILOT021,2021_Jan_04_1612,EmoCon_Pilot_120Hz,2020.2.4,119.96074876756988,
,,,,1,0,1,0,18,0,18,0,,,,,,,,,,,,,,,,,,,,,,,,,,,,,,,,,,,,,,,,,,,,,,18,3.0,m,013_y_m_s_a.jpg,sad,a,17,2,626.0159412999637,626.3099218900549,626.3329660999589,626.4699751900276,626.4746429999359,626.515460290038,626.5205443000887,627.2123344899388,a,1,0.6778187998570502,677.8187998570502,626.5205443000887,627.2123344899388,627.220312200021,628.7182433898794,EMOCONPILOT021,2021_Jan_04_1612,EmoCon_Pilot_120Hz,2020.2.4,119.96074876756988,
,,,,1,0,1,0,19,0,19,0,,,,,,,,,,,,,,,,,,,,,,,,,,,,,,,,,,,,,,,,,,,,,,19,10.0,f,028_y_f_h_a.jpg,happy,d,17,2,628.7214091999922,629.0182619900676,629.0391466999426,629.1701948899077,629.1716682999395,629.2111626900966,629.212808500044,629.6004075899488,d,1,0.3777478002011776,377.7478002011776,629.212808500044,629.6004075899488,629.6117217999417,630.6849527899409,EMOCONPILOT021,2021_Jan_04_1612,EmoCon_Pilot_120Hz,2020.2.4,119.96074876756988,
,,,,1,0,1,0,20,0,20,0,,,,,,,,,,,,,,,,,,,,,,,,,,,,,,,,,,,,,,,,,,,,,,20,4.0,m,016_y_m_h_a.jpg,happy,d,2,2,630.6891771999653,630.9849486900727,631.007374699926,631.0224660900654,631.0236249999143,631.0612000900088,631.0613289000466,631.7968968900619,d,1,0.7208980999421328,720.8980999421328,631.0613289000466,631.7968968900619,631.8025531999301,633.0267803899711,EMOCONPILOT021,2021_Jan_04_1612,EmoCon_Pilot_120Hz,2020.2.4,119.96074876756988,
,,,,1,0,1,0,21,0,21,0,,,,,,,,,,,,,,,,,,,,,,,,,,,,,,,,,,,,,,,,,,,,,,21,6.0,m,033_o_m_h_a.jpg,happy,d,17,2,633.0311243999749,633.3266809899593,633.3469742999878,633.4784040900646,633.4801970000844,633.5196892898763,633.5213196999393,633.9112869899487,d,1,0.38145920005626976,381.45920005626976,633.5213196999393,633.9112869899487,633.9189450000413,634.9351437899983,EMOCONPILOT021,2021_Jan_04_1612,EmoCon_Pilot_120Hz,2020.2.4,119.96074876756988,
,,,,1,0,1,0,22,0,22,0,,,,,,,,,,,,,,,,,,,,,,,,,,,,,,,,,,,,,,,,,,,,,,22,5.0,m,027_o_m_s_a.jpg,sad,a,2,2,634.9404587999452,635.2350931898924,635.2551225998905,635.270660189935,635.2709665999282,635.3052149899537,635.3055751998909,636.893012489914,None,0,,,635.3055751998909,636.893012489914,636.8976751998998,638.6101285899291,EMOCONPILOT021,2021_Jan_04_1612,EmoCon_Pilot_120Hz,2020.2.4,119.96074876756988,
,,,,1,0,1,0,23,0,23,0,,,,,,,,,,,,,,,,,,,,,,,,,,,,,,,,,,,,,,,,,,,,,,23,10.0,f,028_y_f_n_a.jpg,neutral,s,2,2,638.614142099861,638.9101247899467,639.1334987999871,639.1500369899674,639.1504599000327,639.1863503898727,639.1865339998621,640.1880006899825,s,1,0.987855999963358,987.855999963358,639.1865339998621,640.1880006899825,640.1936633998994,641.6685122899013,EMOCONPILOT021,2021_Jan_04_1612,EmoCon_Pilot_120Hz,2020.2.4,119.96074876756988,
,,,,1,0,1,0,24,0,24,0,,,,,,,,,,,,,,,,,,,,,,,,,,,,,,,,,,,,,,,,,,,,,,24,9.0,f,021_o_f_n_a.jpg,neutral,s,17,2,641.6722532999702,641.9686433898984,642.1909080999903,642.3516287899344,642.3561378999148,642.3975664898986,642.4028375998605,642.9407423900208,s,1,0.5235611998941749,523.5611998941749,642.4028375998605,642.9407423900208,642.9522813998628,644.2187215900282,EMOCONPILOT021,2021_Jan_04_1612,EmoCon_Pilot_120Hz,2020.2.4,119.96074876756988,
,,,,1,0,1,0,25,0,25,0,,,,,,,,,,,,,,,,,,,,,,,,,,,,,,,,,,,,,,,,,,,,,,25,8.0,f,019_m_f_h_a.jpg,happy,d,2,2,644.2241477998905,644.5186924899696,644.5396566998679,644.5554372899002,644.5559183000587,644.5908877898706,644.5907048999798,645.1741375900107,d,1,0.5756607998628169,575.6607998628169,644.5907048999798,645.1741375900107,645.1850258999038,646.8853001899785,EMOCONPILOT021,2021_Jan_04_1612,EmoCon_Pilot_120Hz,2020.2.4,119.96074876756988,
,,,,1,0,1,0,26,0,26,0,,,,,,,,,,,,,,,,,,,,,,,,,,,,,,,,,,,,,,,,,,,,,,26,4.0,m,016_y_m_n_a.jpg,neutral,s,2,2,646.8882834999822,647.1852800899884,647.4294131998904,647.4465326899896,647.447047600057,647.4817232899601,647.4820383999031,648.2629852900515,s,1,0.7647154000587761,764.7154000587761,647.4820383999031,648.2629852900515,648.2746214000508,649.8938375900267,EMOCONPILOT021,2021_Jan_04_1612,EmoCon_Pilot_120Hz,2020.2.4,119.96074876756988,
,,,,1,0,1,0,27,0,27,0,,,,,,,,,,,,,,,,,,,,,,,,,,,,,,,,,,,,,,,,,,,,,,27,1.0,m,004_o_m_h_a.jpg,happy,d,17,2,649.8993136999197,650.1937326900894,650.3960951999761,650.556484190072,650.5609963999595,650.6022532899166,650.606278500054,650.9521822899347,d,1,0.3363340999931097,336.3340999931097,650.606278500054,650.9521822899347,650.9587339998689,652.1604266900337,EMOCONPILOT021,2021_Jan_04_1612,EmoCon_Pilot_120Hz,2020.2.4,119.96074876756988,
,,,,1,0,1,0,28,0,28,0,,,,,,,,,,,,,,,,,,,,,,,,,,,,,,,,,,,,,,,,,,,,,,28,10.0,f,028_y_f_s_a.jpg,sad,a,17,2,652.1653738999739,652.4604248900665,652.4733694999013,652.605198089988,652.6098815998994,652.6508894900559,652.6556748999283,653.3380665900419,a,1,0.6708372000139207,670.8372000139207,652.6556748999283,653.3380665900419,653.349764799932,654.7021423899802,EMOCONPILOT021,2021_Jan_04_1612,EmoCon_Pilot_120Hz,2020.2.4,119.96074876756988,
,,,,1,0,1,0,29,0,29,0,,,,,,,,,,,,,,,,,,,,,,,,,,,,,,,,,,,,,,,,,,,,,,29,5.0,m,027_o_m_h_a.jpg,happy,d,2,2,654.7074349999893,655.0021627899492,655.2193191999104,655.2357676900225,655.2393781999126,655.2795906900661,655.2846671999432,655.8135620900663,d,1,0.5138113000430167,513.8113000430167,655.2846671999432,655.8135620900663,655.824794499902,657.6355552899419,EMOCONPILOT021,2021_Jan_04_1612,EmoCon_Pilot_120Hz,2020.2.4,119.96074876756988,
,,,,1,0,1,0,30,0,30,0,,,,,,,,,,,,,,,,,,,,,,,,,,,,,,,,,,,,,,,,,,,,,,30,10.0,f,028_y_f_h_a.jpg,happy,d,17,2,657.6386160999537,657.9354777899804,657.9466651000548,658.0787541899132,658.0815951998811,658.1200932900189,658.1229000000749,658.551383489999,d,1,0.4195174998603761,419.5174998603761,658.1229000000749,658.551383489999,658.5597121000756,660.5523819900351,EMOCONPILOT021,2021_Jan_04_1612,EmoCon_Pilot_120Hz,2020.2.4,119.96074876756988,
,,,,1,0,1,0,31,0,31,0,,,,,,,,,,,,,,,,,,,,,,,,,,,,,,,,,,,,,,,,,,,,,,31,5.0,m,027_o_m_h_a.jpg,happy,d,17,2,660.5580104999244,660.8523097899975,661.0742637999356,661.236981990072,661.2415809000377,661.2815249900101,661.2858982000034,661.627381789987,d,1,0.32840769994072616,328.40769994072616,661.2858982000034,661.627381789987,661.6340361000039,662.9856652899413,EMOCONPILOT021,2021_Jan_04_1612,EmoCon_Pilot_120Hz,2020.2.4,119.96074876756988,
,,,,1,0,1,0,32,0,32,0,,,,,,,,,,,,,,,,,,,,,,,,,,,,,,,,,,,,,,,,,,,,,,32,9.0,f,021_o_f_n_a.jpg,neutral,s,2,2,662.99063939997,663.2856511899969,663.50073780003,663.5175366900163,663.5205244000535,663.5579389899736,663.5632563999388,664.5910031900509,s,1,1.0112253001425415,1011.2253001425415,663.5632563999388,664.5910031900509,664.6034035000484,666.2690467899898,EMOCONPILOT021,2021_Jan_04_1612,EmoCon_Pilot_120Hz,2020.2.4,119.96074876756988,
,,,,1,0,1,0,33,0,33,0,,,,,,,,,,,,,,,,,,,,,,,,,,,,,,,,,,,,,,,,,,,,,,33,3.0,m,013_y_m_s_a.jpg,sad,a,17,2,666.2729593999684,666.5690410898766,666.5933580999263,666.7289821899263,666.7320220998954,666.770376589871,666.7732001999393,667.3267505900236,a,1,0.5373714999295771,537.3714999295771,666.7732001999393,667.3267505900236,667.3354994999245,668.944103089883,EMOCONPILOT021,2021_Jan_04_1612,EmoCon_Pilot_120Hz,2020.2.4,119.96074876756988,
,,,,1,0,1,0,34,0,34,0,,,,,,,,,,,,,,,,,,,,,,,,,,,,,,,,,,,,,,,,,,,,,,34,1.0,m,004_o_m_n_a.jpg,neutral,s,2,2,668.9481325999368,669.2441035900498,669.4440343999304,669.461371189938,669.4620004999451,669.497222289932,669.4970829000231,670.430839889939,s,1,0.925501300022006,925.501300022006,669.4970829000231,670.430839889939,670.4402699999046,671.9442132900236,EMOCONPILOT021,2021_Jan_04_1612,EmoCon_Pilot_120Hz,2020.2.4,119.96074876756988,
,,,,1,0,1,0,35,0,35,0,,,,,,,,,,,,,,,,,,,,,,,,,,,,,,,,,,,,,,,,,,,,,,35,12.0,f,040_y_f_h_a.jpg,happy,d,2,2,671.9478803998791,672.2443178899354,672.270452399971,672.2858110899339,672.286457600072,672.3219876899617,672.3215898000635,672.8627156899544,d,1,0.5328002001624554,532.8002001624554,672.3215898000635,672.8627156899544,672.8690452000592,673.9192551900866,EMOCONPILOT021,2021_Jan_04_1612,EmoCon_Pilot_120Hz,2020.2.4,119.96074876756988,
,,,,1,0,1,0,36,0,36,0,,,,,,,,,,,,,,,,,,,,,,,,,,,,,,,,,,,,,,,,,,,,,,36,10.0,f,028_y_f_n_a.jpg,neutral,s,2,2,673.9246469999198,674.2192425900372,674.4131261000875,674.430083389883,674.430039400002,674.4648189898813,674.4649173999205,675.5745724900859,s,1,1.09337030001916,1093.37030001916,674.4649173999205,675.5745724900859,675.58124520001,677.0692066899734,EMOCONPILOT021,2021_Jan_04_1612,EmoCon_Pilot_120Hz,2020.2.4,119.96074876756988,
,,,,1,0,1,0,37,0,37,0,,,,,,,,,,,,,,,,,,,,,,,,,,,,,,,,,,,,,,,,,,,,,,37,11.0,f,030_o_f_n_a.jpg,neutral,s,2,2,677.0719294000883,677.369208589918,677.5736996000633,677.5913145900937,677.5922495999839,677.6287663900526,677.6288447999395,678.5426214898704,s,1,0.9059274999890476,905.9274999890476,677.6288447999395,678.5426214898704,678.5524202000815,679.9192992900731,EMOCONPILOT021,2021_Jan_04_1612,EmoCon_Pilot_120Hz,2020.2.4,119.96074876756988,
,,,,1,0,1,0,38,0,38,0,,,,,,,,,,,,,,,,,,,,,,,,,,,,,,,,,,,,,,,,,,,,,,38,1.0,m,004_o_m_h_a.jpg,happy,d,2,2,679.9231173000298,680.2194113899255,680.4091984999832,680.426350989868,680.4269125000574,680.4638267900096,680.4640748000238,680.9415144899627,d,1,0.4623455998953432,462.3455998953432,680.4640748000238,680.9415144899627,680.9469991000369,682.6027840900002,EMOCONPILOT021,2021_Jan_04_1612,EmoCon_Pilot_120Hz,2020.2.4,119.96074876756988,
,,,,1,0,1,0,39,0,39,0,,,,,,,,,,,,,,,,,,,,,,,,,,,,,,,,,,,,,,,,,,,,,,39,6.0,m,033_o_m_h_a.jpg,happy,d,2,2,682.6084803999402,682.9027325900039,682.9287296000402,682.9436026900308,682.9443999000359,682.97935269007,682.9788893999066,683.5822843900183,d,1,0.5955423000268638,595.5423000268638,682.9788893999066,683.5822843900183,683.5898285000585,684.9529076898704,EMOCONPILOT021,2021_Jan_04_1612,EmoCon_Pilot_120Hz,2020.2.4,119.96074876756988,
,,,,1,0,1,0,40,0,40,0,,,,,,,,,,,,,,,,,,,,,,,,,,,,,,,,,,,,,,,,,,,,,,40,7.0,f,012_o_f_h_a.jpg,happy,d,17,2,684.9584820000455,685.2529205898987,685.2650947999209,685.3974605899072,685.4020565999672,685.4430811899016,685.4479284000117,685.8552870899672,d,1,0.3985482999123633,398.5482999123633,685.4479284000117,685.8552870899672,685.8664985999931,686.8694637899986,EMOCONPILOT021,2021_Jan_04_1612,EmoCon_Pilot_120Hz,2020.2.4,119.96074876756988,
,,,,1,0,1,0,41,0,41,0,,,,,,,,,,,,,,,,,,,,,,,,,,,,,,,,,,,,,,,,,,,,,,41,6.0,m,033_o_m_n_a.jpg,neutral,s,2,2,686.8733345998917,687.1694662899478,687.3852421999909,687.4024743899005,687.403183599934,687.439456590009,687.4397404999472,688.0889236899326,s,1,0.6389504000544548,638.9504000544548,687.4397404999472,688.0889236899326,688.1004262000788,689.7528106898768,EMOCONPILOT021,2021_Jan_04_1612,EmoCon_Pilot_120Hz,2020.2.4,119.96074876756988,
,,,,1,0,1,0,42,0,42,0,,,,,,,,,,,,,,,,,,,,,,,,,,,,,,,,,,,,,,,,,,,,,,42,7.0,f,012_o_f_h_a.jpg,happy,d,2,2,689.7557661999017,690.0528114899295,690.0727385000791,690.0882461900125,690.0888954999391,690.1240429899423,690.1238263000268,690.8522709899349,d,1,0.7146012999583036,714.6012999583036,690.1238263000268,690.8522709899349,690.8588274999056,692.2278480900219,EMOCONPILOT021,2021_Jan_04_1612,EmoCon_Pilot_120Hz,2020.2.4,119.96074876756988,
,,,,1,0,1,0,43,0,43,0,,,,,,,,,,,,,,,,,,,,,,,,,,,,,,,,,,,,,,,,,,,,,,43,5.0,m,027_o_m_h_a.jpg,happy,d,17,2,692.2307050998788,692.5278662899742,692.7381954998709,692.8975535899168,692.9019502000883,692.943227590085,692.948107099859,693.3852496899432,d,1,0.42646019998937845,426.46019998937845,692.948107099859,693.3852496899432,693.3966033998877,694.9112348899013,EMOCONPILOT021,2021_Jan_04_1612,EmoCon_Pilot_120Hz,2020.2.4,119.96074876756988,
,,,,1,0,1,0,44,0,44,0,,,,,,,,,,,,,,,,,,,,,,,,,,,,,,,,,,,,,,,,,,,,,,44,10.0,f,028_y_f_s_a.jpg,sad,a,17,2,694.9141156999394,695.2112465899205,695.2314857000019,695.3630532899639,695.3680306999013,695.4088028900093,695.4139419998974,696.5421884900658,s,0,1.1206466001458466,1120.6466001458466,695.4139419998974,696.5421884900658,696.5539804000873,697.9614335899474,EMOCONPILOT021,2021_Jan_04_1612,EmoCon_Pilot_120Hz,2020.2.4,119.96074876756988,
,,,,1,0,1,0,45,0,45,0,,,,,,,,,,,,,,,,,,,,,,,,,,,,,,,,,,,,,,,,,,,,,,45,7.0,f,012_o_f_n_a.jpg,neutral,s,2,2,697.9656088999473,698.2614143900806,698.466286999872,698.4834429898998,698.484197899932,698.520876989956,698.5210921999533,699.2917063900037,s,1,0.7573310001753271,757.3310001753271,698.5210921999533,699.2917063900037,699.2983559998684,701.00309859009,EMOCONPILOT021,2021_Jan_04_1612,EmoCon_Pilot_120Hz,2020.2.4,119.96074876756988,
,,,,1,0,1,0,46,0,46,0,,,,,,,,,,,,,,,,,,,,,,,,,,,,,,,,,,,,,,,,,,,,,,46,1.0,m,004_o_m_n_a.jpg,neutral,s,2,2,701.0071127000265,701.3032067900291,701.4969981000759,701.5146100900835,701.5147241000086,701.5503387900768,701.5502996998839,702.5263948899461,s,1,0.9682742001023144,968.2742001023144,701.5502996998839,702.5263948899461,702.5330906000454,704.0283012900269,EMOCONPILOT021,2021_Jan_04_1612,EmoCon_Pilot_120Hz,2020.2.4,119.96074876756988,
,,,,1,0,1,0,47,0,47,0,,,,,,,,,,,,,,,,,,,,,,,,,,,,,,,,,,,,,,,,,,,,,,47,9.0,f,021_o_f_h_a.jpg,happy,d,17,2,704.0337121000048,704.3281623900635,704.5290749999695,704.6971398899565,704.7016712999903,704.742491089995,704.7477466999553,705.1430866900133,d,1,0.38693829998373985,386.93829998373985,704.7477466999553,705.1430866900133,705.1546869999729,706.3365892900853,EMOCONPILOT021,2021_Jan_04_1612,EmoCon_Pilot_120Hz,2020.2.4,119.96074876756988,
,,,,1,0,1,0,48,0,48,0,,,,,,,,,,,,,,,,,,,,,,,,,,,,,,,,,,,,,,,,,,,,,,48,10.0,f,028_y_f_n_a.jpg,neutral,s,2,2,706.3418866000138,706.6365994899767,706.8408013000153,706.8579401900294,706.858694500057,706.8961855899776,706.8973588000517,707.7573221898871,s,1,0.8530303000006825,853.0303000006825,706.8973588000517,707.7573221898871,707.7644448999781,709.2699653899996,EMOCONPILOT021,2021_Jan_04_1612,EmoCon_Pilot_120Hz,2020.2.4,119.96074876756988,
,,,,1,0,1,0,49,0,49,0,,,,,,,,,,,,,,,,,,,,,,,,,,,,,,,,,,,,,,,,,,,,,,49,7.0,f,012_o_f_h_a.jpg,happy,d,17,2,709.2702245998662,709.5700944899814,709.5959133000579,709.7299936900614,709.7337412999477,709.7719875900308,709.7760785999708,710.1807821900817,d,1,0.3904703001026064,390.4703001026064,709.7760785999708,710.1807821900817,710.1917920000851,711.7033419900341,EMOCONPILOT021,2021_Jan_04_1612,EmoCon_Pilot_120Hz,2020.2.4,119.96074876756988,
,,,,1,0,1,0,50,0,50,0,,,,,,,,,,,,,,,,,,,,,,,,,,,,,,,,,,,,,,,,,,,,,,50,5.0,m,027_o_m_h_a.jpg,happy,d,2,2,711.7074108000379,712.0033535899362,712.2238894000184,712.2409554899438,712.2412270999048,712.2776023899438,712.2774465000257,712.8582637899323,d,1,0.5690999000798911,569.0999000798911,712.2774465000257,712.8582637899323,712.8701080998871,713.9701623900561,EMOCONPILOT021,2021_Jan_04_1612,EmoCon_Pilot_120Hz,2020.2.4,119.96074876756988,
,,,,1,0,1,0,51,0,51,0,,,,,,,,,,,,,,,,,,,,,,,,,,,,,,,,,,,,,,,,,,,,,,51,12.0,f,040_y_f_n_a.jpg,neutral,s,17,2,713.974137299927,714.2701825900236,714.4826336998958,714.640199590032,714.6438909000717,714.6853148900205,714.689980099909,715.1674553898862,s,1,0.46850620000623167,468.50620000623167,714.689980099909,715.1674553898862,715.1791064999998,716.4701796900714,EMOCONPILOT021,2021_Jan_04_1612,EmoCon_Pilot_120Hz,2020.2.4,119.96074876756988,
,,,,1,0,1,0,52,0,52,0,,,,,,,,,,,,,,,,,,,,,,,,,,,,,,,,,,,,,,,,,,,,,,52,2.0,m,008_y_m_h_a.jpg,happy,d,17,2,716.4748046000022,716.7701744900784,716.7917947000824,716.9300851898967,716.9333339000586,716.9730157898972,716.9764519999735,717.4612748900196,d,1,0.47005699994042516,470.05699994042516,716.9764519999735,717.4612748900196,717.4714732000139,719.3284966899315,EMOCONPILOT021,2021_Jan_04_1612,EmoCon_Pilot_120Hz,2020.2.4,119.96074876756988,
,,,,1,0,1,0,53,0,53,0,,,,,,,,,,,,,,,,,,,,,,,,,,,,,,,,,,,,,,,,,,,,,,53,6.0,m,033_o_m_h_a.jpg,happy,d,2,2,719.3316687999759,719.6284526898759,719.6498485999182,719.6659786899341,719.6675271000713,719.7047974900576,719.7063500999939,720.2567352899583,d,1,0.5400117998942733,540.0117998942733,719.7063500999939,720.2567352899583,720.2642409999389,721.5451438899851,EMOCONPILOT021,2021_Jan_04_1612,EmoCon_Pilot_120Hz,2020.2.4,119.96074876756988,
,,,,1,0,1,0,54,0,54,0,,,,,,,,,,,,,,,,,,,,,,,,,,,,,,,,,,,,,,,,,,,,,,54,2.0,m,008_y_m_h_a.jpg,happy,d,2,2,721.5479210000485,721.8452433899744,721.8676265000831,721.8826553900959,721.883820099989,721.9214429899818,721.9224731998984,722.6457369900542,d,1,0.716160399839282,716.160399839282,721.9224731998984,722.6457369900542,722.6572167000268,724.6203042899957,EMOCONPILOT021,2021_Jan_04_1612,EmoCon_Pilot_120Hz,2020.2.4,119.96074876756988,
,,,,1,0,1,0,55,0,55,0,,,,,,,,,,,,,,,,,,,,,,,,,,,,,,,,,,,,,,,,,,,,,,55,12.0,f,040_y_f_h_a.jpg,happy,d,17,2,724.6219403999858,724.9201849899488,724.940022099996,725.0718967900845,725.0749311000109,725.1132499899483,725.115971100051,725.5260666900082,d,1,0.4025556999258697,402.5556999258697,725.115971100051,725.5260666900082,725.534254899947,726.8787942899158,EMOCONPILOT021,2021_Jan_04_1612,EmoCon_Pilot_120Hz,2020.2.4,119.96074876756988,
,,,,1,0,1,0,56,0,56,0,,,,,,,,,,,,,,,,,,,,,,,,,,,,,,,,,,,,,,,,,,,,,,56,10.0,f,028_y_f_n_a.jpg,neutral,s,2,2,726.8845331999473,727.1788211900508,727.4001467998605,727.4172063900857,727.4181164999027,727.4549268898787,727.4563175998628,728.1764932899038,s,1,0.7102300000842661,710.2300000842661,727.4563175998628,728.1764932899038,728.1856622998603,729.6370702900691,EMOCONPILOT021,2021_Jan_04_1612,EmoCon_Pilot_120Hz,2020.2.4,119.96074876756988,
,,,,1,0,1,0,57,0,57,0,,,,,,,,,,,,,,,,,,,,,,,,,,,,,,,,,,,,,,,,,,,,,,57,12.0,f,040_y_f_s_a.jpg,sad,a,17,2,729.6412512999959,729.937157789967,729.9626732000615,730.0972237899201,730.1008353000507,730.1398168900283,730.1429919998627,730.8710275900318,a,1,0.7117415999528021,711.7415999528021,730.1429919998627,730.8710275900318,730.8823992998805,732.5455169899157,EMOCONPILOT021,2021_Jan_04_1612,EmoCon_Pilot_120Hz,2020.2.4,119.96074876756988,
,,,,1,0,1,0,58,0,58,0,,,,,,,,,,,,,,,,,,,,,,,,,,,,,,,,,,,,,,,,,,,,,,58,5.0,m,027_o_m_n_a.jpg,neutral,s,2,2,732.5492887999862,732.8454709900776,733.062216799939,733.0793993899366,733.0793210000265,733.1145801900653,733.1140781999566,733.9635095899226,s,1,0.8363179001025856,836.3179001025856,733.1140781999566,733.9635095899226,733.9706635999028,734.9956680899719,EMOCONPILOT021,2021_Jan_04_1612,EmoCon_Pilot_120Hz,2020.2.4,119.96074876756988,
,,,,1,0,1,0,59,0,59,0,,,,,,,,,,,,,,,,,,,,,,,,,,,,,,,,,,,,,,,,,,,,,,59,4.0,m,016_y_m_s_a.jpg,sad,a,17,2,735.0017470999155,735.2954563899199,735.3165404999163,735.4473778899061,735.4509346999694,735.4897646899568,735.4932709999848,736.0121299899416,a,1,0.5051470000762492,505.14700007624924,735.4932709999848,736.0121299899416,736.0194490998983,737.4372848898871,EMOCONPILOT021,2021_Jan_04_1612,EmoCon_Pilot_120Hz,2020.2.4,119.96074876756988,
,,,,1,0,1,0,60,0,60,0,,,,,,,,,,,,,,,,,,,,,,,,,,,,,,,,,,,,,,,,,,,,,,60,5.0,m,027_o_m_n_a.jpg,neutral,s,2,2,737.4426070998888,737.7373852899997,737.9584858000744,737.9761417899514,737.9783648999874,738.0192153898766,738.0241185000632,738.8581185899908,s,1,0.8226185999810696,822.6185999810696,738.0241185000632,738.8581185899908,738.8688876000233,739.9707390899072,EMOCONPILOT021,2021_Jan_04_1612,EmoCon_Pilot_120Hz,2020.2.4,119.96074876756988,
,,,,1,0,1,0,61,0,61,0,,,,,,,,,,,,,,,,,,,,,,,,,,,,,,,,,,,,,,,,,,,,,,61,10.0,f,028_y_f_s_a.jpg,sad,a,2,2,739.9766579000279,740.2707441898762,740.2904980999883,740.3060462898808,740.3066785000265,740.3428036899073,740.3424960998818,741.0472616900457,s,0,0.6959218000993133,695.9218000993133,740.3424960998818,741.0472616900457,741.0535420000087,742.7457502898993,EMOCONPILOT021,2021_Jan_04_1612,EmoCon_Pilot_120Hz,2020.2.4,119.96074876756988,
,,,,1,0,1,0,62,0,62,0,,,,,,,,,,,,,,,,,,,,,,,,,,,,,,,,,,,,,,,,,,,,,,62,3.0,m,013_y_m_n_a.jpg,neutral,s,2,2,742.7488923000637,743.0457183900522,743.2755769998766,743.2922845899826,743.2926457999274,743.3302554900525,743.3297977999318,744.0321135900682,s,1,0.692603699862957,692.603699862957,743.3297977999318,744.0321135900682,744.0386937998701,745.5541999899084,EMOCONPILOT021,2021_Jan_04_1612,EmoCon_Pilot_120Hz,2020.2.4,119.96074876756988,
,,,,1,0,1,0,63,0,63,0,,,,,,,,,,,,,,,,,,,,,,,,,,,,,,,,,,,,,,,,,,,,,,63,4.0,m,016_y_m_s_a.jpg,sad,a,17,2,745.5597178000025,745.8542242900236,745.8806199000683,746.0140113900649,746.0172156000044,746.0552925900789,746.0586836000439,746.5105477900012,a,1,0.44403769983910024,444.03769983910024,746.0586836000439,746.5105477900012,746.5208667998668,747.8208808899159,EMOCONPILOT021,2021_Jan_04_1612,EmoCon_Pilot_120Hz,2020.2.4,119.96074876756988,
,,,,1,0,1,0,64,0,64,0,,,,,,,,,,,,,,,,,,,,,,,,,,,,,,,,,,,,,,,,,,,,,,64,12.0,f,040_y_f_h_a.jpg,happy,d,2,2,747.8248405000195,748.1208924900508,748.1332564998884,748.1493399900152,748.1498809999321,748.1850125899306,748.1866973999422,748.8490240900079,d,1,0.6517860000021756,651.7860000021756,748.1866973999422,748.8490240900079,748.8599918999244,750.5875101899961,EMOCONPILOT021,2021_Jan_04_1612,EmoCon_Pilot_120Hz,2020.2.4,119.96074876756988,
,,,,1,0,1,0,65,0,65,0,,,,,,,,,,,,,,,,,,,,,,,,,,,,,,,,,,,,,,,,,,,,,,65,5.0,m,027_o_m_n_a.jpg,neutral,s,17,2,750.5917406999506,750.8875159900869,751.1058545000851,751.2661984900711,751.269656599965,751.3098988898797,751.3150841000024,752.1907343899599,s,1,0.8678018001373857,867.8018001373857,751.3150841000024,752.1907343899599,752.2024471999612,753.9542993898737,EMOCONPILOT021,2021_Jan_04_1612,EmoCon_Pilot_120Hz,2020.2.4,119.96074876756988,
,,,,1,0,1,0,66,0,66,0,,,,,,,,,,,,,,,,,,,,,,,,,,,,,,,,,,,,,,,,,,,,,,66,6.0,m,033_o_m_s_a.jpg,sad,a,17,2,753.9598250999115,754.2543037899537,754.2796140999999,754.4140900899889,754.4142809999175,754.4553054899676,754.4554659000132,755.4020439898828,a,1,0.9350763000547886,935.0763000547886,754.4554659000132,755.4020439898828,755.4126339999493,756.6377383899177,EMOCONPILOT021,2021_Jan_04_1612,EmoCon_Pilot_120Hz,2020.2.4,119.96074876756988,
,,,,1,0,1,0,67,0,67,0,,,,,,,,,,,,,,,,,,,,,,,,,,,,,,,,,,,,,,,,,,,,,,67,6.0,m,033_o_m_h_a.jpg,happy,d,2,2,756.6431451998651,756.9377881898778,756.9596245000139,756.9747113900027,756.9750836000312,757.0139186899411,757.015340300044,757.7161381899147,d,1,0.687219699844718,687.219699844718,757.015340300044,757.7161381899147,757.7268435000442,758.8126972900005,EMOCONPILOT021,2021_Jan_04_1612,EmoCon_Pilot_120Hz,2020.2.4,119.96074876756988,
,,,,1,0,1,0,68,0,68,0,,,,,,,,,,,,,,,,,,,,,,,,,,,,,,,,,,,,,,,,,,,,,,68,2.0,m,008_y_m_s_a.jpg,sad,a,2,2,758.8168424000032,759.112674289872,759.3634347999468,759.380197790009,759.3806143000256,759.4164382899413,759.4183469000272,760.2621702898992,a,1,0.8361138000618666,836.1138000618666,759.4183469000272,760.2621702898992,760.2706659999676,761.5545380900381,EMOCONPILOT021,2021_Jan_04_1612,EmoCon_Pilot_120Hz,2020.2.4,119.96074876756988,
,,,,1,0,1,0,69,0,69,0,,,,,,,,,,,,,,,,,,,,,,,,,,,,,,,,,,,,,,,,,,,,,,69,1.0,m,004_o_m_n_a.jpg,neutral,s,17,2,761.5587945999578,761.8544321900932,762.0560693000443,762.2128006899962,762.2173486000393,762.2587161900243,762.2631624999922,762.8559771899833,s,1,0.5833642999641597,583.3642999641597,762.2631624999922,762.8559771899833,762.8661545000505,764.5879593899241,EMOCONPILOT021,2021_Jan_04_1612,EmoCon_Pilot_120Hz,2020.2.4,119.96074876756988,
,,,,1,0,1,0,70,0,70,0,,,,,,,,,,,,,,,,,,,,,,,,,,,,,,,,,,,,,,,,,,,,,,70,2.0,m,008_y_m_s_a.jpg,sad,a,17,2,764.5935227000155,764.8878634900553,765.121155800065,765.2785388899734,765.2834169999696,765.3235266900389,765.3286729999818,765.8243130899733,a,1,0.4857163999695331,485.7163999695331,765.3286729999818,765.8243130899733,765.8299465999007,766.8879842900438,EMOCONPILOT021,2021_Jan_04_1612,EmoCon_Pilot_120Hz,2020.2.4,119.96074876756988,
,,,,1,0,1,0,71,0,71,0,,,,,,,,,,,,,,,,,,,,,,,,,,,,,,,,,,,,,,,,,,,,,,71,11.0,f,030_o_f_n_a.jpg,neutral,s,17,2,766.8937170000281,767.1878976898967,767.3928789999336,767.5533862898825,767.5579369000625,767.5981821900001,767.6031907000579,768.1281500899,a,0,0.5152920999098569,515.2920999098569,767.6031907000579,768.1281500899,768.1365827999543,769.3963012900437,EMOCONPILOT021,2021_Jan_04_1612,EmoCon_Pilot_120Hz,2020.2.4,119.96074876756988,
,,,,1,0,1,0,72,0,72,0,,,,,,,,,,,,,,,,,,,,,,,,,,,,,,,,,,,,,,,,,,,,,,72,11.0,f,030_o_f_n_a.jpg,neutral,s,2,2,769.4016903000884,769.6963577899384,769.901225599926,769.9181711899815,769.9188647998963,769.9557265900308,769.956960799871,770.7990715899738,s,1,0.83372120000422,833.72120000422,769.956960799871,770.7990715899738,770.806697400054,772.5797765900148,EMOCONPILOT021,2021_Jan_04_1612,EmoCon_Pilot_120Hz,2020.2.4,119.96074876756988,
,,,,1,0,1,0,73,0,73,0,,,,,,,,,,,,,,,,,,,,,,,,,,,,,,,,,,,,,,,,,,,,,,73,2.0,m,008_y_m_s_a.jpg,sad,a,2,2,772.5838218999561,772.8797037899727,773.1178065999411,773.1347777899588,773.1354302999098,773.1725458898815,773.1727903999854,773.7772626900347,a,1,0.5937943998724222,593.7943998724222,773.1727903999854,773.7772626900347,773.7878739999142,775.1797770899954,EMOCONPILOT021,2021_Jan_04_1612,EmoCon_Pilot_120Hz,2020.2.4,119.96074876756988,
,,,,1,0,1,0,74,0,74,0,,,,,,,,,,,,,,,,,,,,,,,,,,,,,,,,,,,,,,,,,,,,,,74,11.0,f,030_o_f_n_a.jpg,neutral,s,2,2,775.1850542000029,775.4797859899933,775.6852102000266,775.7027083898662,775.7044987999834,775.7435580899706,775.7465882999822,776.7921847899212,s,1,1.0359852998517454,1035.9852998517454,775.7465882999822,776.7921847899212,776.8038755999878,777.8798644899158,EMOCONPILOT021,2021_Jan_04_1612,EmoCon_Pilot_120Hz,2020.2.4,119.96074876756988,
,,,,1,0,1,0,75,0,75,0,,,,,,,,,,,,,,,,,,,,,,,,,,,,,,,,,,,,,,,,,,,,,,75,1.0,m,004_o_m_s_a.jpg,sad,a,2,2,777.884973899927,778.1798029900762,778.1939649998676,778.2090485899477,778.2103025000542,778.2477697900264,778.2490433999337,778.9407051899703,a,1,0.6775480001233518,677.5480001233518,778.2490433999337,778.9407051899703,778.9476012000814,780.2048135900637,EMOCONPILOT021,2021_Jan_04_1612,EmoCon_Pilot_120Hz,2020.2.4,119.96074876756988,
,,,,1,0,1,0,76,0,76,0,,,,,,,,,,,,,,,,,,,,,,,,,,,,,,,,,,,,,,,,,,,,,,76,3.0,m,013_y_m_n_a.jpg,neutral,s,2,2,780.2078124999534,780.5048028899124,780.7464282999281,780.7639471900417,780.7657719999552,780.8027075899532,780.8053339999169,781.6065956899198,s,1,0.7851238001603633,785.1238001603633,780.8053339999169,781.6065956899198,781.6145667999517,783.0550118899206,EMOCONPILOT021,2021_Jan_04_1612,EmoCon_Pilot_120Hz,2020.2.4,119.96074876756988,
,,,,1,0,1,0,77,0,77,0,,,,,,,,,,,,,,,,,,,,,,,,,,,,,,,,,,,,,,,,,,,,,,77,7.0,f,012_o_f_s_a.jpg,sad,a,2,2,783.0605661999434,783.3549727900187,783.3708146999124,783.3859193900367,783.3868275999557,783.4227834900609,783.4238936000038,784.1682901899563,s,0,0.7346081999130547,734.6081999130547,783.4238936000038,784.1682901899563,784.1766095000785,786.1300735899946,EMOCONPILOT021,2021_Jan_04_1612,EmoCon_Pilot_120Hz,2020.2.4,119.96074876756988,
,,,,1,0,1,0,78,0,78,0,,,,,,,,,,,,,,,,,,,,,,,,,,,,,,,,,,,,,,,,,,,,,,78,12.0,f,040_y_f_n_a.jpg,neutral,s,2,2,786.1356335999444,786.430092589953,786.6602046999615,786.67685708988,786.6774333999492,786.7145042899298,786.7157997000031,787.7888181898976,s,1,1.0588400999549776,1058.8400999549776,786.7157997000031,787.7888181898976,787.7964482000098,788.9965910900152,EMOCONPILOT021,2021_Jan_04_1612,EmoCon_Pilot_120Hz,2020.2.4,119.96074876756988,
,,,,1,0,1,0,79,0,79,0,,,,,,,,,,,,,,,,,,,,,,,,,,,,,,,,,,,,,,,,,,,,,,79,6.0,m,033_o_m_h_a.jpg,happy,d,17,2,788.9992708999198,789.296715189959,789.3180277000647,789.448620589939,789.453126499895,789.4939820899395,789.4992791998666,789.8863577898825,d,1,0.3714149999432266,371.4149999432266,789.4992791998666,789.8863577898825,789.8978035000619,791.5635057899868,EMOCONPILOT021,2021_Jan_04_1612,EmoCon_Pilot_120Hz,2020.2.4,119.96074876756988,
,,,,1,0,1,0,80,0,80,0,,,,,,,,,,,,,,,,,,,,,,,,,,,,,,,,,,,,,,,,,,,,,,80,2.0,m,008_y_m_n_a.jpg,neutral,s,17,2,791.5695241000503,791.8634531898657,792.1071534999646,792.2640558900545,792.2686230000108,792.3083472899394,792.3126097000204,793.2471690899926,s,1,0.9181395000778139,918.1395000778139,792.3126097000204,793.2471690899926,793.2590014000889,794.5134909900604,EMOCONPILOT021,2021_Jan_04_1612,EmoCon_Pilot_120Hz,2020.2.4,119.96074876756988,
,,,,1,0,1,0,81,0,81,0,,,,,,,,,,,,,,,,,,,,,,,,,,,,,,,,,,,,,,,,,,,,,,81,12.0,f,040_y_f_h_a.jpg,happy,d,17,2,794.5188791998662,794.8135242900113,794.8384040000383,794.9734554898693,794.9768968999851,795.0165919899242,795.021066499874,795.4685903899605,d,1,0.4334788001142442,433.4788001142442,795.021066499874,795.4685903899605,795.4796452999581,797.4135476900498,EMOCONPILOT021,2021_Jan_04_1612,EmoCon_Pilot_120Hz,2020.2.4,119.96074876756988,
,,,,1,0,1,0,82,0,82,0,,,,,,,,,,,,,,,,,,,,,,,,,,,,,,,,,,,,,,,,,,,,,,82,9.0,f,021_o_f_h_a.jpg,happy,d,2,2,797.4194572998676,797.7136407899903,797.9236099999398,797.9412106899778,797.942059099907,797.9768558899174,797.9765351000242,798.7427579900483,d,1,0.7581756000872701,758.1756000872701,797.9765351000242,798.7427579900483,798.7499561998993,800.4802983899368,EMOCONPILOT021,2021_Jan_04_1612,EmoCon_Pilot_120Hz,2020.2.4,119.96074876756988,
,,,,1,0,1,0,83,0,83,0,,,,,,,,,,,,,,,,,,,,,,,,,,,,,,,,,,,,,,,,,,,,,,83,6.0,m,033_o_m_h_a.jpg,happy,d,17,2,800.4856320000254,800.780305089918,800.8025257999543,800.9402537900256,800.9448466999456,800.9856738900068,800.9907957999967,801.4397829899332,d,1,0.4320840002037585,432.0840002037585,800.9907957999967,801.4397829899332,801.4527368999552,802.7719609900611,EMOCONPILOT021,2021_Jan_04_1612,EmoCon_Pilot_120Hz,2020.2.4,119.96074876756988,
,,,,1,0,1,0,84,0,84,0,,,,,,,,,,,,,,,,,,,,,,,,,,,,,,,,,,,,,,,,,,,,,,84,2.0,m,008_y_m_n_a.jpg,neutral,s,2,2,802.7780798000749,803.0719735899708,803.2978320000693,803.3144693898736,803.3145973999053,803.3497573898873,803.3496637998614,804.2773512900109,s,1,0.9127603999804705,912.7603999804705,803.3496637998614,804.2773512900109,804.2841848998796,805.7220796898706,EMOCONPILOT021,2021_Jan_04_1612,EmoCon_Pilot_120Hz,2020.2.4,119.96074876756988,
,,,,1,0,1,0,85,0,85,0,,,,,,,,,,,,,,,,,,,,,,,,,,,,,,,,,,,,,,,,,,,,,,85,10.0,f,028_y_f_n_a.jpg,neutral,s,17,2,805.727362100035,806.0220768898959,806.2273150000256,806.3804997899803,806.3836763999425,806.422534290026,806.4254608999472,807.0549340900267,s,1,0.6130441999994218,613.0441999994218,806.4254608999472,807.0549340900267,807.0643928998616,808.4387331900886,EMOCONPILOT021,2021_Jan_04_1612,EmoCon_Pilot_120Hz,2020.2.4,119.96074876756988,
,,,,1,0,1,0,86,0,86,0,,,,,,,,,,,,,,,,,,,,,,,,,,,,,,,,,,,,,,,,,,,,,,86,6.0,m,033_o_m_h_a.jpg,happy,d,2,2,808.4438962000422,808.7387831900502,808.7617486000527,808.7772974900669,808.7780557000078,808.8149898899952,808.8163379000034,809.5099654898746,d,1,0.6860738000832498,686.0738000832498,808.8163379000034,809.5099654898746,809.5175916999578,810.7805834899424,EMOCONPILOT021,2021_Jan_04_1612,EmoCon_Pilot_120Hz,2020.2.4,119.96074876756988,
,,,,1,0,1,0,87,0,87,0,,,,,,,,,,,,,,,,,,,,,,,,,,,,,,,,,,,,,,,,,,,,,,87,5.0,m,027_o_m_s_a.jpg,sad,a,2,2,810.7872337000445,811.0805706898915,811.1087243000511,811.1250309900148,811.126712199999,811.1640545900678,811.165634999983,812.0066518900218,s,0,0.8330552999395877,833.0552999395877,811.165634999983,812.0066518900218,812.0152620999143,813.0639475900913,EMOCONPILOT021,2021_Jan_04_1612,EmoCon_Pilot_120Hz,2020.2.4,119.96074876756988,
,,,,1,0,1,0,88,0,88,0,,,,,,,,,,,,,,,,,,,,,,,,,,,,,,,,,,,,,,,,,,,,,,88,7.0,f,012_o_f_s_a.jpg,sad,a,17,2,813.069019000046,813.3638537898893,813.3847983998712,813.5154757900397,813.5182334999554,813.5567297900794,813.5593854000326,814.1189729899867,a,1,0.5431009000167251,543.1009000167251,813.5593854000326,814.1189729899867,814.12726139999,815.7639107899973,EMOCONPILOT021,2021_Jan_04_1612,EmoCon_Pilot_120Hz,2020.2.4,119.96074876756988,
,,,,1,0,1,0,89,0,89,0,,,,,,,,,,,,,,,,,,,,,,,,,,,,,,,,,,,,,,,,,,,,,,89,2.0,m,008_y_m_h_a.jpg,happy,d,2,2,815.7681927999947,816.0639169900911,816.0763606000692,816.0921112899902,816.0928807000164,816.1294292900944,816.1289921998978,816.8224570900435,d,1,0.6855387999676168,685.5387999676168,816.1289921998978,816.8224570900435,816.8314056000672,818.0723228899529,EMOCONPILOT021,2021_Jan_04_1612,EmoCon_Pilot_120Hz,2020.2.4,119.96074876756988,
,,,,1,0,1,0,90,0,90,0,,,,,,,,,,,,,,,,,,,,,,,,,,,,,,,,,,,,,,,,,,,,,,90,7.0,f,012_o_f_h_a.jpg,happy,d,2,2,818.0780000998639,818.3724071900593,818.39773899992,818.4137889899081,818.4144420998637,818.4515265899478,818.4525099999737,819.3178069899092,d,1,0.8500274000689387,850.0274000689387,818.4525099999737,819.3178069899092,819.3256045999005,821.1972805899801,EMOCONPILOT021,2021_Jan_04_1612,EmoCon_Pilot_120Hz,2020.2.4,119.96074876756988,
,,,,1,0,1,0,91,0,91,0,,,,,,,,,,,,,,,,,,,,,,,,,,,,,,,,,,,,,,,,,,,,,,91,10.0,f,028_y_f_s_a.jpg,sad,a,17,2,821.2001034000423,821.4973257899052,821.5166197000071,821.6490413900698,821.6525848999154,821.69375498991,821.698873099871,822.2078861899441,a,1,0.49184249993413687,491.84249993413687,821.698873099871,822.2078861899441,822.219378199894,823.430758989905,EMOCONPILOT021,2021_Jan_04_1612,EmoCon_Pilot_120Hz,2020.2.4,119.96074876756988,
,,,,1,0,1,0,92,0,92,0,,,,,,,,,,,,,,,,,,,,,,,,,,,,,,,,,,,,,,,,,,,,,,92,12.0,f,040_y_f_s_a.jpg,sad,a,2,2,823.4346704999916,823.730806489964,823.7515559000894,823.7674703900935,823.7681559999473,823.802865489875,823.8031983000692,824.733789290092,d,0,0.915379700018093,915.379700018093,823.8031983000692,824.733789290092,824.7399275999051,826.2308941900498,EMOCONPILOT021,2021_Jan_04_1612,EmoCon_Pilot_120Hz,2020.2.4,119.96074876756988,
,,,,1,0,1,0,93,0,93,0,,,,,,,,,,,,,,,,,,,,,,,,,,,,,,,,,,,,,,,,,,,,,,93,2.0,m,008_y_m_n_a.jpg,neutral,s,2,2,826.2370014998596,826.5309202899458,826.7705389000475,826.7867604899453,826.7895422000438,826.8278617898701,826.8319506000262,827.5755981900962,s,1,0.7345322000328451,734.5322000328451,826.8319506000262,827.5755981900962,827.5830166998785,829.1310029900866,EMOCONPILOT021,2021_Jan_04_1612,EmoCon_Pilot_120Hz,2020.2.4,119.96074876756988,
,,,,1,0,1,0,94,0,94,0,,,,,,,,,,,,,,,,,,,,,,,,,,,,,,,,,,,,,,,,,,,,,,94,11.0,f,030_o_f_s_a.jpg,sad,a,2,2,829.1366123999469,829.4310208899202,829.6349478000775,829.6525391899282,829.6567597000394,829.697293889965,829.7022647000849,830.5496739899041,s,0,0.8325418001040816,832.5418001040816,829.7022647000849,830.5496739899041,830.5608516000211,831.914346989966,EMOCONPILOT021,2021_Jan_04_1612,EmoCon_Pilot_120Hz,2020.2.4,119.96074876756988,
