trials_example.thisRepN,trials_example.thisTrialN,trials_example.thisN,trials_example.thisIndex,block.thisRepN,block.thisTrialN,block.thisN,block.thisIndex,trials_study.thisRepN,trials_study.thisTrialN,trials_study.thisN,trials_study.thisIndex,text_welcome.started,text_welcome.stopped,text_intro.started,text_intro.stopped,key_resp_intro.keys,key_resp_intro.started,key_resp_intro.stopped,text_intro2.started,text_intro2.stopped,key_resp_intro2.keys,key_resp_intro2.rt,key_resp_intro2.started,key_resp_intro2.stopped,example trial,personPrimeExample,genderPrimeExample,primeExample,emotionPrimeExample,corrAnsPrimeExample,example mask time,fix300_example.started,fix300_example.stopped,image_primer_example.started,image_primer_example.stopped,scrambled.started,scrambled.stopped,text_response_example.started,text_response_example.stopped,key_resp_example.keys,key_resp_example.corr,key_resp_example.started,key_resp_example.stopped,Jitter_example.started,Jitter_example.stopped,key_resp_example.rt,key_resp_example.rt in ms,text_start.started,text_start.stopped,text_pause.started,text_pause.stopped,key_resp_pause.keys,key_resp_pause.rt,key_resp_pause.rt in ms,key_resp_pause.started,key_resp_pause.stopped,study trial,personPrimeStudy,genderPrimeStudy,primeStudy,emotionPrimeStudy,corrAnsPrimeStudy,study mask time,Block,fix300_study.started,fix300_study.stopped,image_primer_study.started,image_primer_study.stopped,scrambled_study.started,scrambled_study.stopped,text_response_study.started,text_response_study.stopped,key_resp_study.keys,key_resp_study.corr,key_resp_study.rt,key_resp_study.rt in ms,key_resp_study.started,key_resp_study.stopped,Jitter_study.started,Jitter_study.stopped,participant,date,expName,psychopyVersion,frameRate,
,,,,,,,,,,,,2602.3130370000144,2605.3022707700206,2605.3075344000245,2611.1417131699914,None,2605.3075344000245,2611.1417131699914,,,,,,,,,,,,,,,,,,,,,,,,,,,,,,,,,,,,,,,,,,,,,,,,,,,,,,,,,,,,,,,EMOCONPILOT017,2021_Feb_23_1508,EmoCon_Pilot_120Hz,2020.2.4,119.86570242119392,
,,,,,,,,,,,,,,,,,,,2611.1469085999997,2614.479555870005,a,3.3234774000011384,2611.1469085999997,2614.479555870005,,,,,,,,,,,,,,,,,,,,,,,,,,,,,,,,,,,,,,,,,,,,,,,,,,,,,,,,,EMOCONPILOT017,2021_Feb_23_1508,EmoCon_Pilot_120Hz,2020.2.4,119.86570242119392,
0,0,0,0,,,,,,,,,,,,,,,,,,,,,,0,3.0,f,1113_y_f_s_a.jpg,sad,a,3,2614.4843623000197,2614.7772259700055,2615.7073722999776,2615.735283870023,2615.7566629999783,2615.79422226997,2615.7956861000275,2617.39345586999,None,0,2615.7956861000275,2617.39345586999,2617.3953609999735,2618.8774389699743,,,,,,,,,,,,,,,,,,,,,,,,,,,,,,,,,,,,EMOCONPILOT017,2021_Feb_23_1508,EmoCon_Pilot_120Hz,2020.2.4,119.86570242119392,
1,0,1,0,,,,,,,,,,,,,,,,,,,,,,1,1.0,m,1111_m_m_s_a.jpg,sad,a,3,2618.879405100015,2619.1774754700077,2619.407567200018,2619.4347022699717,2619.437458499975,2619.478325670009,2619.481487300014,2621.0941206699995,None,0,2619.481487300014,2621.0941206699995,2621.09509040002,2622.8940620700073,,,,,,,,,,,,,,,,,,,,,,,,,,,,,,,,,,,,EMOCONPILOT017,2021_Feb_23_1508,EmoCon_Pilot_120Hz,2020.2.4,119.86570242119392,
2,0,2,0,,,,,,,,,,,,,,,,,,,,,,2,3.0,f,1113_y_f_n_a.jpg,neutral,s,3,2622.8951571999933,2623.1941192700237,2623.3982876000227,2623.4247681699985,2623.4267690000124,2623.4675227699977,2623.4702388999867,2625.1379271699757,None,0,2623.4702388999867,2625.1379271699757,2625.138905700005,2626.235821069981,,,,,,,,,,,,,,,,,,,,,,,,,,,,,,,,,,,,EMOCONPILOT017,2021_Feb_23_1508,EmoCon_Pilot_120Hz,2020.2.4,119.86570242119392,
3,0,3,0,,,,,,,,,,,,,,,,,,,,,,3,2.0,f,1112_m_f_h_a.jpg,happy,d,17,2626.2371154000284,2626.5358155699855,2626.741898200009,2626.899420470005,2626.9025440000114,2626.939956569992,2626.9423033000203,2628.2699293699757,d,1,2626.9423033000203,2628.2699293699757,2628.2738583000028,2630.086025269999,1.3122496000141837,1312.2496000141837,,,,,,,,,,,,,,,,,,,,,,,,,,,,,,,,,,EMOCONPILOT017,2021_Feb_23_1508,EmoCon_Pilot_120Hz,2020.2.4,119.86570242119392,
4,0,4,0,,,,,,,,,,,,,,,,,,,,,,4,2.0,f,1112_m_f_n_a.jpg,neutral,s,17,2630.087512600003,2630.3860098699865,2630.590968900011,2630.751439769991,2630.7540593000012,2630.7951214700065,2630.7980005000136,2631.7715480700194,s,1,2630.7980005000136,2631.7715480700194,2631.774560799997,2633.0276780700137,0.960287399997469,960.287399997469,,,,,,,,,,,,,,,,,,,,,,,,,,,,,,,,,,EMOCONPILOT017,2021_Feb_23_1508,EmoCon_Pilot_120Hz,2020.2.4,119.86570242119392,
,,,,0,0,0,0,0,0,0,0,,,,,,,,,,,,,,,,,,,,,,,,,,,,,,,,,,,,,2633.08003870002,2636.0694313700137,2636.0742681000265,2675.7856497700036,s,39.70005939999828,39700.05939999828,2636.0742681000265,2675.7856497700036,0,8.0,f,019_m_f_s_a.jpg,sad,a,17,1,2675.792317799991,2676.0869116699964,2676.8671376000275,2677.0344826700225,2677.039300900011,2677.0803354699806,2677.0860267999815,2678.0034747700033,a,1,0.9041579000186175,904.1579000186175,2677.0860267999815,2678.0034747700033,2678.00933000003,2679.320229869982,EMOCONPILOT017,2021_Feb_23_1508,EmoCon_Pilot_120Hz,2020.2.4,119.86570242119392,
,,,,0,0,0,0,1,0,1,0,,,,,,,,,,,,,,,,,,,,,,,,,,,,,,,,,,,,,,,,,,,,,,1,6.0,m,033_o_m_n_a.jpg,neutral,s,3,1,2679.3268831000314,2679.6202809700103,2679.8279201000114,2679.854266570014,2679.854266899987,2679.8886559699954,2679.8887987000053,2681.4753763700196,None,0,,,2679.8887987000053,2681.4753763700196,2681.475737700006,2682.553494670027,EMOCONPILOT017,2021_Feb_23_1508,EmoCon_Pilot_120Hz,2020.2.4,119.86570242119392,
,,,,0,0,0,0,2,0,2,0,,,,,,,,,,,,,,,,,,,,,,,,,,,,,,,,,,,,,,,,,,,,,,2,2.0,m,008_y_m_s_a.jpg,sad,a,3,1,2682.556491700001,2682.853603669972,2683.092915199988,2683.118713470007,2683.1193578999955,2683.154695570009,2683.1547953999834,2684.7476942699927,None,0,,,2683.1547953999834,2684.7476942699927,2684.7527921000146,2685.9203200700053,EMOCONPILOT017,2021_Feb_23_1508,EmoCon_Pilot_120Hz,2020.2.4,119.86570242119392,
,,,,0,0,0,0,3,0,3,0,,,,,,,,,,,,,,,,,,,,,,,,,,,,,,,,,,,,,,,,,,,,,,3,11.0,f,030_o_f_h_a.jpg,happy,d,3,1,2685.9254297000007,2686.2204047699984,2686.4244429999962,2686.4509191699967,2686.451399500016,2686.4881340700144,2686.4884218000225,2687.607653970021,d,1,1.1098322000470944,1109.8322000470944,2686.4884218000225,2687.607653970021,2687.617071799992,2688.67047596997,EMOCONPILOT017,2021_Feb_23_1508,EmoCon_Pilot_120Hz,2020.2.4,119.86570242119392,
,,,,0,0,0,0,4,0,4,0,,,,,,,,,,,,,,,,,,,,,,,,,,,,,,,,,,,,,,,,,,,,,,4,11.0,f,030_o_f_s_a.jpg,sad,a,17,1,2688.67624120001,2688.9704122699973,2689.1754516999936,2689.3443814700063,2689.3491402000072,2689.389212269982,2689.394462299999,2690.333620570024,a,1,0.9237748999730684,923.7748999730684,2689.394462299999,2690.333620570024,2690.339293600002,2691.728871069971,EMOCONPILOT017,2021_Feb_23_1508,EmoCon_Pilot_120Hz,2020.2.4,119.86570242119392,
,,,,0,0,0,0,5,0,5,0,,,,,,,,,,,,,,,,,,,,,,,,,,,,,,,,,,,,,,,,,,,,,,5,11.0,f,030_o_f_s_a.jpg,sad,a,17,1,2691.7339330000104,2692.0288636700193,2692.224917899992,2692.3864049700264,2692.390418199997,2692.4276960699995,2692.432750899985,2693.9054053700006,a,1,1.4615066000260413,1461.5066000260413,2692.432750899985,2693.9054053700006,2693.9139347000164,2695.003845469974,EMOCONPILOT017,2021_Feb_23_1508,EmoCon_Pilot_120Hz,2020.2.4,119.86570242119392,
,,,,0,0,0,0,6,0,6,0,,,,,,,,,,,,,,,,,,,,,,,,,,,,,,,,,,,,,,,,,,,,,,6,5.0,m,027_o_m_n_a.jpg,neutral,s,17,1,2695.009232899989,2695.3038457700227,2695.517992899986,2695.6790095699894,2695.6837239000015,2695.724897069979,2695.730115399987,2696.4065423699853,s,1,0.6681518999976106,668.1518999976106,2695.730115399987,2696.4065423699853,2696.4128002999933,2697.9038963699772,EMOCONPILOT017,2021_Feb_23_1508,EmoCon_Pilot_120Hz,2020.2.4,119.86570242119392,
,,,,0,0,0,0,7,0,7,0,,,,,,,,,,,,,,,,,,,,,,,,,,,,,,,,,,,,,,,,,,,,,,7,8.0,f,019_m_f_n_a.jpg,neutral,s,3,1,2697.908967800031,2698.2039461699956,2698.452163400012,2698.479187669995,2698.4810275000054,2698.518329470017,2698.5198511999915,2699.8395066700236,s,1,1.310370100021828,1310.370100021828,2698.5198511999915,2699.8395066700236,2699.847199800017,2700.88721947,EMOCONPILOT017,2021_Feb_23_1508,EmoCon_Pilot_120Hz,2020.2.4,119.86570242119392,
,,,,0,0,0,0,8,0,8,0,,,,,,,,,,,,,,,,,,,,,,,,,,,,,,,,,,,,,,,,,,,,,,8,5.0,m,027_o_m_h_a.jpg,happy,d,3,1,2700.8913641999825,2701.1873271699938,2701.399723200011,2701.425980669976,2701.4261023,2701.463406869973,2701.465135300008,2702.0544289699815,d,1,0.5731529999757186,573.1529999757186,2701.465135300008,2702.0544289699815,2702.0620514000184,2703.737364569976,EMOCONPILOT017,2021_Feb_23_1508,EmoCon_Pilot_120Hz,2020.2.4,119.86570242119392,
,,,,0,0,0,0,9,0,9,0,,,,,,,,,,,,,,,,,,,,,,,,,,,,,,,,,,,,,,,,,,,,,,9,8.0,f,019_m_f_n_a.jpg,neutral,s,3,1,2703.742891800008,2704.037371770019,2704.2779866000055,2704.304282070027,2704.3089576999773,2704.348872369976,2704.3541172000114,2705.1816716700037,s,1,0.812386300007347,812.386300007347,2704.3541172000114,2705.1816716700037,2705.193055199983,2706.6373486699945,EMOCONPILOT017,2021_Feb_23_1508,EmoCon_Pilot_120Hz,2020.2.4,119.86570242119392,
,,,,0,0,0,0,10,0,10,0,,,,,,,,,,,,,,,,,,,,,,,,,,,,,,,,,,,,,,,,,,,,,,10,11.0,f,030_o_f_h_a.jpg,happy,d,3,1,2706.6392430000124,2706.9374210700103,2707.142036299978,2707.1695208699734,2707.172908400011,2707.210044169979,2707.213106399984,2707.8884362700105,d,1,0.665153999987524,665.153999987524,2707.213106399984,2707.8884362700105,2707.8978329999954,2709.8625366700057,EMOCONPILOT017,2021_Feb_23_1508,EmoCon_Pilot_120Hz,2020.2.4,119.86570242119392,
,,,,0,0,0,0,11,0,11,0,,,,,,,,,,,,,,,,,,,,,,,,,,,,,,,,,,,,,,,,,,,,,,11,3.0,m,013_y_m_s_a.jpg,sad,a,3,1,2709.867963000026,2710.1625568699733,2710.3125695000053,2710.3355147700117,2710.3397601000033,2710.3799787699886,2710.3850732999854,2711.673447070009,s,0,1.2771728999796323,1277.1728999796323,2710.3850732999854,2711.673447070009,2711.6867205000017,2712.887545669981,EMOCONPILOT017,2021_Feb_23_1508,EmoCon_Pilot_120Hz,2020.2.4,119.86570242119392,
,,,,0,0,0,0,12,0,12,0,,,,,,,,,,,,,,,,,,,,,,,,,,,,,,,,,,,,,,,,,,,,,,12,12.0,f,040_y_f_n_a.jpg,neutral,s,3,1,2712.8929333999986,2713.1876195700083,2713.421345599985,2713.447302669991,2713.447784900025,2713.4836033699744,2713.4851289999788,2715.0603344700125,None,0,,,2713.4851289999788,2715.0603344700125,2715.065332200029,2716.8876234699915,EMOCONPILOT017,2021_Feb_23_1508,EmoCon_Pilot_120Hz,2020.2.4,119.86570242119392,
,,,,0,0,0,0,13,0,13,0,,,,,,,,,,,,,,,,,,,,,,,,,,,,,,,,,,,,,,,,,,,,,,13,12.0,f,040_y_f_h_a.jpg,happy,d,17,1,2716.8932861000067,2717.187683969975,2717.217213900003,2717.3482273700124,2717.352919100027,2717.3940075699998,2717.398986699991,2717.89463707002,d,1,0.4873916999786161,487.3916999786161,2717.398986699991,2717.89463707002,2717.9014758000267,2719.1126922700264,EMOCONPILOT017,2021_Feb_23_1508,EmoCon_Pilot_120Hz,2020.2.4,119.86570242119392,
,,,,0,0,0,0,14,0,14,0,,,,,,,,,,,,,,,,,,,,,,,,,,,,,,,,,,,,,,,,,,,,,,14,7.0,f,012_o_f_h_a.jpg,happy,d,17,1,2719.117775999999,2719.412707170012,2719.4376502999803,2719.5726710700023,2719.5763466000208,2719.6140032699973,2719.6169728999957,2719.996702670009,d,1,0.36540880001848564,365.40880001848564,2719.6169728999957,2719.996702670009,2720.0059839999885,2721.2294408700022,EMOCONPILOT017,2021_Feb_23_1508,EmoCon_Pilot_120Hz,2020.2.4,119.86570242119392,
,,,,0,0,0,0,15,0,15,0,,,,,,,,,,,,,,,,,,,,,,,,,,,,,,,,,,,,,,,,,,,,,,15,9.0,f,021_o_f_n_a.jpg,neutral,s,3,1,2721.2346619999735,2721.529349969997,2722.0370197999873,2722.062614270026,2722.0671031000093,2722.10809717002,2722.113344500016,2722.8377787700215,s,1,0.7169424000312574,716.9424000312574,2722.113344500016,2722.8377787700215,2722.8493464000057,2724.7878668700055,EMOCONPILOT017,2021_Feb_23_1508,EmoCon_Pilot_120Hz,2020.2.4,119.86570242119392,
,,,,0,0,0,0,16,0,16,0,,,,,,,,,,,,,,,,,,,,,,,,,,,,,,,,,,,,,,,,,,,,,,16,10.0,f,028_y_f_s_a.jpg,sad,a,17,1,2724.793524799985,2725.08787266998,2725.1110711999936,2725.2476251699904,2725.250613900018,2725.288934269984,2725.2919010000187,2725.7706028699818,a,1,0.46643739996943623,466.4373999694362,2725.2919010000187,2725.7706028699818,2725.7796128999908,2727.154533569998,EMOCONPILOT017,2021_Feb_23_1508,EmoCon_Pilot_120Hz,2020.2.4,119.86570242119392,
,,,,0,0,0,0,17,0,17,0,,,,,,,,,,,,,,,,,,,,,,,,,,,,,,,,,,,,,,,,,,,,,,17,10.0,f,028_y_f_h_a.jpg,happy,d,17,1,2727.159903599997,2727.4545040699945,2727.478541199991,2727.614430669992,2727.618100200023,2727.655600369972,2727.658998400031,2728.0595431699826,d,1,0.38736169994808733,387.36169994808733,2727.658998400031,2728.0595431699826,2728.0676451000036,2729.4296353699815,EMOCONPILOT017,2021_Feb_23_1508,EmoCon_Pilot_120Hz,2020.2.4,119.86570242119392,
,,,,0,0,0,0,18,0,18,0,,,,,,,,,,,,,,,,,,,,,,,,,,,,,,,,,,,,,,,,,,,,,,18,9.0,f,021_o_f_h_a.jpg,happy,d,3,1,2729.4363291999907,2729.7296234699957,2730.1915135000017,2730.21800836997,2730.2185715999804,2730.255740570027,2730.2572320000036,2730.7240674700065,d,1,0.45309839997207746,453.09839997207746,2730.2572320000036,2730.7240674700065,2730.7317130999872,2732.2462130700064,EMOCONPILOT017,2021_Feb_23_1508,EmoCon_Pilot_120Hz,2020.2.4,119.86570242119392,
,,,,0,0,0,0,19,0,19,0,,,,,,,,,,,,,,,,,,,,,,,,,,,,,,,,,,,,,,,,,,,,,,19,6.0,m,033_o_m_h_a.jpg,happy,d,3,1,2732.2520266000065,2732.5461878699775,2732.5896210999927,2732.612810169993,2732.6144736999995,2732.6512667699776,2732.652874200023,2733.0851036700246,d,1,0.42539640003815293,425.39640003815293,2732.652874200023,2733.0851036700246,2733.090693700011,2734.2546455700126,EMOCONPILOT017,2021_Feb_23_1508,EmoCon_Pilot_120Hz,2020.2.4,119.86570242119392,
,,,,0,0,0,0,20,0,20,0,,,,,,,,,,,,,,,,,,,,,,,,,,,,,,,,,,,,,,,,,,,,,,20,1.0,m,004_o_m_h_a.jpg,happy,d,3,1,2734.258836299996,2734.554602470022,2734.780103500001,2734.8061709699746,2734.806360699993,2734.84286446998,2734.8441521999775,2735.2954717699963,d,1,0.44245620002038777,442.45620002038777,2734.8441521999775,2735.2954717699963,2735.3079982000054,2736.7047489699967,EMOCONPILOT017,2021_Feb_23_1508,EmoCon_Pilot_120Hz,2020.2.4,119.86570242119392,
,,,,0,0,0,0,21,0,21,0,,,,,,,,,,,,,,,,,,,,,,,,,,,,,,,,,,,,,,,,,,,,,,21,2.0,m,008_y_m_s_a.jpg,sad,a,17,1,2736.7102816000115,2737.0047420699907,2737.2467133000027,2737.4133127700247,2737.418315900024,2737.459269170015,2737.4636170000304,2737.94005306997,a,1,0.4626589000108652,462.6589000108652,2737.4636170000304,2737.94005306997,2737.952305599989,2739.588136170007,EMOCONPILOT017,2021_Feb_23_1508,EmoCon_Pilot_120Hz,2020.2.4,119.86570242119392,
,,,,0,0,0,0,22,0,22,0,,,,,,,,,,,,,,,,,,,,,,,,,,,,,,,,,,,,,,,,,,,,,,22,4.0,m,016_y_m_s_a.jpg,sad,a,3,1,2739.592315600021,2739.888040770026,2739.91680310003,2739.939890270011,2739.9407805000083,2739.976943270018,2739.978206,2741.248821970023,s,0,1.260112099989783,1260.112099989783,2739.978206,2741.248821970023,2741.2574534000014,2742.8464409699723,EMOCONPILOT017,2021_Feb_23_1508,EmoCon_Pilot_120Hz,2020.2.4,119.86570242119392,
,,,,0,0,0,0,23,0,23,0,,,,,,,,,,,,,,,,,,,,,,,,,,,,,,,,,,,,,,,,,,,,,,23,8.0,f,019_m_f_h_a.jpg,happy,d,17,1,2742.850597599987,2743.1464393700066,2743.1736690999824,2743.306464369997,2743.311193600006,2743.3518552699884,2743.357047999976,2743.701253969985,d,1,0.33735769998747855,337.35769998747855,2743.357047999976,2743.701253969985,2743.712791000027,2745.2466013699946,EMOCONPILOT017,2021_Feb_23_1508,EmoCon_Pilot_120Hz,2020.2.4,119.86570242119392,
,,,,0,0,0,0,24,0,24,0,,,,,,,,,,,,,,,,,,,,,,,,,,,,,,,,,,,,,,,,,,,,,,24,8.0,f,019_m_f_h_a.jpg,happy,d,3,1,2745.250886199996,2745.5465729699995,2745.5721204000292,2745.594398670021,2745.5946447000024,2745.630870270025,2745.6311828999897,2746.058175969991,d,1,0.41506110003683716,415.06110003683716,2745.6311828999897,2746.058175969991,2746.0676228000084,2747.7132297700214,EMOCONPILOT017,2021_Feb_23_1508,EmoCon_Pilot_120Hz,2020.2.4,119.86570242119392,
,,,,0,0,0,0,25,0,25,0,,,,,,,,,,,,,,,,,,,,,,,,,,,,,,,,,,,,,,,,,,,,,,25,4.0,m,016_y_m_n_a.jpg,neutral,s,17,1,2747.718791100022,2748.013275270007,2748.271337800019,2748.4278713699955,2748.4326688,2748.4737565700257,2748.4785952999955,2748.948878069996,s,1,0.4556116999592632,455.6116999592632,2748.4785952999955,2748.948878069996,2748.9561035999795,2749.988273369969,EMOCONPILOT017,2021_Feb_23_1508,EmoCon_Pilot_120Hz,2020.2.4,119.86570242119392,
,,,,0,0,0,0,26,0,26,0,,,,,,,,,,,,,,,,,,,,,,,,,,,,,,,,,,,,,,,,,,,,,,26,4.0,m,016_y_m_h_a.jpg,happy,d,17,1,2749.993651799974,2750.2883521699755,2750.3177200999926,2750.448258469993,2750.451594299986,2750.491337270016,2750.4966332999757,2750.96183436999,d,1,0.45373700000345707,453.73700000345707,2750.4966332999757,2750.96183436999,2750.9718231000006,2752.613316170004,EMOCONPILOT017,2021_Feb_23_1508,EmoCon_Pilot_120Hz,2020.2.4,119.86570242119392,
,,,,0,0,0,0,27,0,27,0,,,,,,,,,,,,,,,,,,,,,,,,,,,,,,,,,,,,,,,,,,,,,,27,8.0,f,019_m_f_h_a.jpg,happy,d,17,1,2752.618658500025,2752.913311370014,2752.9376916000037,2753.073331070022,2753.0783582000295,2753.1187289700088,2753.123911999981,2753.387970970018,d,1,0.2505991000216454,250.59910002164543,2753.123911999981,2753.387970970018,2753.3987952999887,2755.1217452699843,EMOCONPILOT017,2021_Feb_23_1508,EmoCon_Pilot_120Hz,2020.2.4,119.86570242119392,
,,,,0,0,0,0,28,0,28,0,,,,,,,,,,,,,,,,,,,,,,,,,,,,,,,,,,,,,,,,,,,,,,28,8.0,f,019_m_f_s_a.jpg,sad,a,17,1,2755.126228499983,2755.4217665700185,2755.6737722000107,2755.8436510699744,2755.8483565999777,2755.889402669977,2755.8943915999844,2756.309233770013,a,1,0.4080471000052057,408.0471000052057,2755.8943915999844,2756.309233770013,2756.3208587000263,2757.8133435699915,EMOCONPILOT017,2021_Feb_23_1508,EmoCon_Pilot_120Hz,2020.2.4,119.86570242119392,
,,,,0,0,0,0,29,0,29,0,,,,,,,,,,,,,,,,,,,,,,,,,,,,,,,,,,,,,,,,,,,,,,29,10.0,f,028_y_f_n_a.jpg,neutral,s,3,1,2757.817793700029,2758.113446670008,2758.3210484000156,2758.346185870009,2758.347703300009,2758.385281070025,2758.3906510000234,2758.977057770017,s,1,0.5757600000360981,575.7600000360981,2758.3906510000234,2758.977057770017,2758.987458400021,2760.663455170003,EMOCONPILOT017,2021_Feb_23_1508,EmoCon_Pilot_120Hz,2020.2.4,119.86570242119392,
,,,,0,0,0,0,30,0,30,0,,,,,,,,,,,,,,,,,,,,,,,,,,,,,,,,,,,,,,,,,,,,,,30,12.0,f,040_y_f_n_a.jpg,neutral,s,17,1,2760.6666951000225,2760.9635446699745,2761.1837194000254,2761.351678069978,2761.3563355000224,2761.397776670003,2761.4028333000024,2761.8176256700012,a,0,0.40345899999374524,403.45899999374524,2761.4028333000024,2761.8176256700012,2761.829204300011,2763.2386376700074,EMOCONPILOT017,2021_Feb_23_1508,EmoCon_Pilot_120Hz,2020.2.4,119.86570242119392,
,,,,0,0,0,0,31,0,31,0,,,,,,,,,,,,,,,,,,,,,,,,,,,,,,,,,,,,,,,,,,,,,,31,5.0,m,027_o_m_n_a.jpg,neutral,s,3,1,2763.244263599976,2763.5383895699692,2763.7398536999826,2763.766608470009,2763.7672449999955,2763.8024440700015,2763.8026187000214,2764.5572042699846,d,0,0.7396709999884479,739.6709999884479,2763.8026187000214,2764.5572042699846,2764.5665127999964,2766.305263569992,EMOCONPILOT017,2021_Feb_23_1508,EmoCon_Pilot_120Hz,2020.2.4,119.86570242119392,
,,,,0,0,0,0,32,0,32,0,,,,,,,,,,,,,,,,,,,,,,,,,,,,,,,,,,,,,,,,,,,,,,32,8.0,f,019_m_f_n_a.jpg,neutral,s,17,1,2766.3107249999885,2766.60516677,2766.8481615000055,2767.009375870001,2767.0140046000015,2767.0545301699954,2767.059719800018,2767.429277869995,s,1,0.36249700002372265,362.49700002372265,2767.059719800018,2767.429277869995,2767.436450499983,2769.221999469976,EMOCONPILOT017,2021_Feb_23_1508,EmoCon_Pilot_120Hz,2020.2.4,119.86570242119392,
,,,,0,0,0,0,33,0,33,0,,,,,,,,,,,,,,,,,,,,,,,,,,,,,,,,,,,,,,,,,,,,,,33,4.0,m,016_y_m_n_a.jpg,neutral,s,17,1,2769.2274970000144,2769.521978769981,2769.764050900005,2769.922048970015,2769.9268705000286,2769.9669897700137,2769.9721091000247,2770.4181720700058,s,1,0.4340925000142306,434.0925000142306,2769.9721091000247,2770.4181720700058,2770.4295081999735,2771.6803512700194,EMOCONPILOT017,2021_Feb_23_1508,EmoCon_Pilot_120Hz,2020.2.4,119.86570242119392,
,,,,0,0,0,0,34,0,34,0,,,,,,,,,,,,,,,,,,,,,,,,,,,,,,,,,,,,,,,,,,,,,,34,11.0,f,030_o_f_n_a.jpg,neutral,s,17,1,2771.6857444000198,2771.980404170003,2772.189828499977,2772.3509305699904,2772.3549464999815,2772.3928814699816,2772.3971773000085,2772.751581270021,s,1,0.34490319999167696,344.90319999167696,2772.3971773000085,2772.751581270021,2772.756459199998,2773.9304058699695,EMOCONPILOT017,2021_Feb_23_1508,EmoCon_Pilot_120Hz,2020.2.4,119.86570242119392,
,,,,0,0,0,0,35,0,35,0,,,,,,,,,,,,,,,,,,,,,,,,,,,,,,,,,,,,,,,,,,,,,,35,9.0,f,021_o_f_h_a.jpg,happy,d,3,1,2773.934481700009,2774.2304776699807,2774.4478352000006,2774.473357670015,2774.4776246999972,2774.517529469979,2774.522778499988,2775.0400303700067,d,1,0.49963999999454245,499.63999999454245,2774.522778499988,2775.0400303700067,2775.0522089999868,2776.230387569993,EMOCONPILOT017,2021_Feb_23_1508,EmoCon_Pilot_120Hz,2020.2.4,119.86570242119392,
,,,,0,0,0,0,36,0,36,0,,,,,,,,,,,,,,,,,,,,,,,,,,,,,,,,,,,,,,,,,,,,,,36,11.0,f,030_o_f_s_a.jpg,sad,a,3,1,2776.2343678000034,2776.5303970699956,2776.7334440000122,2776.760487070022,2776.760718500009,2776.7983274699714,2776.79970209999,2777.8148535700225,a,1,1.007167899981141,1007.1678999811411,2776.79970209999,2777.8148535700225,2777.822030999989,2779.338816370006,EMOCONPILOT017,2021_Feb_23_1508,EmoCon_Pilot_120Hz,2020.2.4,119.86570242119392,
,,,,0,0,0,0,37,0,37,0,,,,,,,,,,,,,,,,,,,,,,,,,,,,,,,,,,,,,,,,,,,,,,37,12.0,f,040_y_f_n_a.jpg,neutral,s,17,1,2779.3416983999778,2779.638821569976,2779.8500772999832,2780.007014170004,2780.0118041000096,2780.0524988700113,2780.05772360001,2780.6645732700185,s,1,0.5966190000181086,596.6190000181086,2780.05772360001,2780.6645732700185,2780.6724023999996,2781.730497070012,EMOCONPILOT017,2021_Feb_23_1508,EmoCon_Pilot_120Hz,2020.2.4,119.86570242119392,
,,,,0,0,0,0,38,0,38,0,,,,,,,,,,,,,,,,,,,,,,,,,,,,,,,,,,,,,,,,,,,,,,38,9.0,f,021_o_f_s_a.jpg,sad,a,3,1,2781.734597600007,2782.030559870013,2782.05828430003,2782.0814807699703,2782.081953099987,2782.118500970019,2782.118900200003,2782.903378469992,d,0,0.7753387999837287,775.3387999837287,2782.118900200003,2782.903378469992,2782.910660399997,2784.8306550699695,EMOCONPILOT017,2021_Feb_23_1508,EmoCon_Pilot_120Hz,2020.2.4,119.86570242119392,
,,,,0,0,0,0,39,0,39,0,,,,,,,,,,,,,,,,,,,,,,,,,,,,,,,,,,,,,,,,,,,,,,39,4.0,m,016_y_m_n_a.jpg,neutral,s,17,1,2784.8347667999915,2785.1305570700265,2785.3584908000194,2785.5155592699944,2785.5202855999814,2785.5611311700254,2785.5661387,2785.9572902700224,s,1,0.3840277999988757,384.0277999988757,2785.5661387,2785.9572902700224,2785.964899500017,2787.447307370027,EMOCONPILOT017,2021_Feb_23_1508,EmoCon_Pilot_120Hz,2020.2.4,119.86570242119392,
,,,,0,0,0,0,40,0,40,0,,,,,,,,,,,,,,,,,,,,,,,,,,,,,,,,,,,,,,,,,,,,,,40,9.0,f,021_o_f_s_a.jpg,sad,a,3,1,2787.4524770000135,2787.7472217700038,2787.773253499996,2787.796014469996,2787.7965644000215,2787.832517070003,2787.8327608000254,2788.904165069986,d,0,1.0613233000040054,1061.3233000040054,2787.8327608000254,2788.904165069986,2788.9113822000218,2790.76404246997,EMOCONPILOT017,2021_Feb_23_1508,EmoCon_Pilot_120Hz,2020.2.4,119.86570242119392,
,,,,0,0,0,0,41,0,41,0,,,,,,,,,,,,,,,,,,,,,,,,,,,,,,,,,,,,,,,,,,,,,,41,11.0,f,030_o_f_h_a.jpg,happy,d,3,1,2790.770391100028,2791.06405057002,2791.2738887000014,2791.300784669997,2791.3009289000183,2791.337077269977,2791.338679699984,2792.118620169995,d,1,0.7715744999586605,771.5744999586605,2791.338679699984,2792.118620169995,2792.1279952999903,2794.05578707002,EMOCONPILOT017,2021_Feb_23_1508,EmoCon_Pilot_120Hz,2020.2.4,119.86570242119392,
,,,,0,0,0,0,42,0,42,0,,,,,,,,,,,,,,,,,,,,,,,,,,,,,,,,,,,,,,,,,,,,,,42,4.0,m,016_y_m_h_a.jpg,happy,d,3,1,2794.0609662000206,2794.3558201699693,2794.382471000019,2794.4057878700028,2794.4066813000245,2794.442285469972,2794.4427211,2794.989119870012,d,1,0.5315943000023253,531.5943000023253,2794.4427211,2794.989119870012,2794.9984887000173,2796.8057569700236,EMOCONPILOT017,2021_Feb_23_1508,EmoCon_Pilot_120Hz,2020.2.4,119.86570242119392,
,,,,0,0,0,0,43,0,43,0,,,,,,,,,,,,,,,,,,,,,,,,,,,,,,,,,,,,,,,,,,,,,,43,1.0,m,004_o_m_s_a.jpg,sad,a,17,1,2796.806496999983,2797.105943369976,2797.1302309000166,2797.2661464699836,2797.269712499983,2797.3105031700165,2797.3104307000176,2798.2068177699753,a,1,0.887649699987378,887.649699987378,2797.3104307000176,2798.2068177699753,2798.2113962000003,2799.2642742699886,EMOCONPILOT017,2021_Feb_23_1508,EmoCon_Pilot_120Hz,2020.2.4,119.86570242119392,
,,,,0,0,0,0,44,0,44,0,,,,,,,,,,,,,,,,,,,,,,,,,,,,,,,,,,,,,,,,,,,,,,44,4.0,m,016_y_m_h_a.jpg,happy,d,3,1,2799.2686626000213,2799.564296169969,2799.588782000006,2799.6112455700118,2799.6121952999965,2799.648784269992,2799.6487586000003,2800.2688450699848,d,1,0.605381999979727,605.381999979727,2799.6487586000003,2800.2688450699848,2800.278243399982,2801.7558244700253,EMOCONPILOT017,2021_Feb_23_1508,EmoCon_Pilot_120Hz,2020.2.4,119.86570242119392,
,,,,0,0,0,0,45,0,45,0,,,,,,,,,,,,,,,,,,,,,,,,,,,,,,,,,,,,,,,,,,,,,,45,7.0,f,012_o_f_s_a.jpg,sad,a,17,1,2801.758509700012,2802.0558377699986,2802.0788237000233,2802.2160513699696,2802.2207377000013,2802.2610330699886,2802.2608799000154,2802.949984769983,a,1,0.6812292999820784,681.2292999820784,2802.2608799000154,2802.949984769983,2802.9580297999782,2804.656105169974,EMOCONPILOT017,2021_Feb_23_1508,EmoCon_Pilot_120Hz,2020.2.4,119.86570242119392,
,,,,0,0,0,0,46,0,46,0,,,,,,,,,,,,,,,,,,,,,,,,,,,,,,,,,,,,,,,,,,,,,,46,8.0,f,019_m_f_n_a.jpg,neutral,s,17,1,2804.6614235999878,2804.9559639699933,2805.2166835999815,2805.3781497699733,2805.383149100002,2805.4237167700253,2805.428937199991,2805.878147970018,s,1,0.4412999000051059,441.2999000051059,2805.428937199991,2805.878147970018,2805.885625099996,2807.8310603699706,EMOCONPILOT017,2021_Feb_23_1508,EmoCon_Pilot_120Hz,2020.2.4,119.86570242119392,
,,,,0,0,0,0,47,0,47,0,,,,,,,,,,,,,,,,,,,,,,,,,,,,,,,,,,,,,,,,,,,,,,47,2.0,m,008_y_m_h_a.jpg,happy,d,3,1,2807.8372182999738,2808.131153969973,2808.158264699974,2808.180905069987,2808.1815188999753,2808.2186117700244,2808.22059490002,2808.995326670009,d,1,0.7615053000045009,761.5053000045009,2808.22059490002,2808.995326670009,2809.0037479000166,2810.856031370006,EMOCONPILOT017,2021_Feb_23_1508,EmoCon_Pilot_120Hz,2020.2.4,119.86570242119392,
,,,,0,0,0,0,48,0,48,0,,,,,,,,,,,,,,,,,,,,,,,,,,,,,,,,,,,,,,,,,,,,,,48,12.0,f,040_y_f_n_a.jpg,neutral,s,17,1,2810.856579000014,2811.1560842699896,2811.369454999978,2811.5279807699903,2811.5330202999758,2811.573812670022,2811.578950700001,2811.9826752700087,s,1,0.3875580999883823,387.5580999883823,2811.578950700001,2811.9826752700087,2811.993184300023,2813.8394615699713,EMOCONPILOT017,2021_Feb_23_1508,EmoCon_Pilot_120Hz,2020.2.4,119.86570242119392,
,,,,0,0,0,0,49,0,49,0,,,,,,,,,,,,,,,,,,,,,,,,,,,,,,,,,,,,,,,,,,,,,,49,11.0,f,030_o_f_n_a.jpg,neutral,s,17,1,2813.844879099983,2814.139457269985,2814.344431000005,2814.5027315699904,2814.507511099975,2814.54868547002,2814.553783099982,2815.1591128700006,s,1,0.5963116000057198,596.3116000057198,2814.553783099982,2815.1591128700006,2815.1640732000233,2817.00615117001,EMOCONPILOT017,2021_Feb_23_1508,EmoCon_Pilot_120Hz,2020.2.4,119.86570242119392,
,,,,0,0,0,0,50,0,50,0,,,,,,,,,,,,,,,,,,,,,,,,,,,,,,,,,,,,,,,,,,,,,,50,8.0,f,019_m_f_h_a.jpg,happy,d,3,1,2817.009873699979,2817.306235069997,2817.3280880000093,2817.350102969975,2817.3507706000237,2817.3908057700087,2817.391733299999,2818.2676816699736,d,1,0.8624518999713473,862.4518999713473,2817.391733299999,2818.2676816699736,2818.2771265999763,2819.5229219700036,EMOCONPILOT017,2021_Feb_23_1508,EmoCon_Pilot_120Hz,2020.2.4,119.86570242119392,
,,,,0,0,0,0,51,0,51,0,,,,,,,,,,,,,,,,,,,,,,,,,,,,,,,,,,,,,,,,,,,,,,51,8.0,f,019_m_f_n_a.jpg,neutral,s,3,1,2819.5249857999734,2819.8228890699743,2820.060429300007,2820.087412869971,2820.0877433000132,2820.124185369996,2820.1241145000095,2821.655197969993,s,1,1.5220852000056766,1522.0852000056766,2820.1241145000095,2821.655197969993,2821.664573899994,2823.3063694699727,EMOCONPILOT017,2021_Feb_23_1508,EmoCon_Pilot_120Hz,2020.2.4,119.86570242119392,
,,,,0,0,0,0,52,0,52,0,,,,,,,,,,,,,,,,,,,,,,,,,,,,,,,,,,,,,,,,,,,,,,52,12.0,f,040_y_f_n_a.jpg,neutral,s,3,1,2823.3118390999734,2823.606366669998,2823.8157576000085,2823.842465769971,2823.847522899974,2823.8883463700245,2823.893184899993,2824.5999171700155,s,1,0.6968377999728546,696.8377999728546,2823.893184899993,2824.5999171700155,2824.6034244999755,2826.323179269972,EMOCONPILOT017,2021_Feb_23_1508,EmoCon_Pilot_120Hz,2020.2.4,119.86570242119392,
,,,,0,0,0,0,53,0,53,0,,,,,,,,,,,,,,,,,,,,,,,,,,,,,,,,,,,,,,,,,,,,,,53,9.0,f,021_o_f_h_a.jpg,happy,d,17,1,2826.328565099975,2826.623097069975,2826.8376866999897,2826.9992715700123,2827.0039838000084,2827.0449536700094,2827.050010100007,2827.5750907699753,d,1,0.5161130000487901,516.1130000487901,2827.050010100007,2827.5750907699753,2827.583384700003,2829.5647950699845,EMOCONPILOT017,2021_Feb_23_1508,EmoCon_Pilot_120Hz,2020.2.4,119.86570242119392,
,,,,0,0,0,0,54,0,54,0,,,,,,,,,,,,,,,,,,,,,,,,,,,,,,,,,,,,,,,,,,,,,,54,2.0,m,008_y_m_n_a.jpg,neutral,s,3,1,2829.5688222000026,2829.864771070023,2830.1071375000174,2830.1346098699782,2830.139127000002,2830.1800166699745,2830.184881000023,2830.9105429700053,s,1,0.7171249000239186,717.1249000239186,2830.184881000023,2830.9105429700053,2830.914137999993,2832.156630870019,EMOCONPILOT017,2021_Feb_23_1508,EmoCon_Pilot_120Hz,2020.2.4,119.86570242119392,
,,,,0,0,0,0,55,0,55,0,,,,,,,,,,,,,,,,,,,,,,,,,,,,,,,,,,,,,,,,,,,,,,55,10.0,f,028_y_f_n_a.jpg,neutral,s,3,1,2832.1623243999784,2832.456539870013,2832.653770099976,2832.678983170021,2832.6792196999886,2832.716143269971,2832.7169109000242,2833.4113055699913,s,1,0.6812312999973074,681.2312999973074,2832.7169109000242,2833.4113055699913,2833.418461400026,2834.4316887700174,EMOCONPILOT017,2021_Feb_23_1508,EmoCon_Pilot_120Hz,2020.2.4,119.86570242119392,
,,,,0,0,0,0,56,0,56,0,,,,,,,,,,,,,,,,,,,,,,,,,,,,,,,,,,,,,,,,,,,,,,56,12.0,f,040_y_f_h_a.jpg,happy,d,17,1,2834.4373581000254,2834.7315885699995,2834.7553589000017,2834.891432670009,2834.8944073999883,2834.9327757699707,2834.935773800011,2835.316972969979,d,1,0.37420770002063364,374.20770002063364,2834.935773800011,2835.316972969979,2835.3201336999773,2836.5065881700198,EMOCONPILOT017,2021_Feb_23_1508,EmoCon_Pilot_120Hz,2020.2.4,119.86570242119392,
,,,,0,0,0,0,57,0,57,0,,,,,,,,,,,,,,,,,,,,,,,,,,,,,,,,,,,,,,,,,,,,,,57,2.0,m,008_y_m_n_a.jpg,neutral,s,3,1,2836.509364400001,2836.8066816700216,2837.05211530003,2837.0778498699715,2837.0786072000046,2837.1161148700107,2837.116422399995,2837.7034081699735,s,1,0.5701757000060752,570.1757000060752,2837.116422399995,2837.7034081699735,2837.7133345999755,2839.681775469979,EMOCONPILOT017,2021_Feb_23_1508,EmoCon_Pilot_120Hz,2020.2.4,119.86570242119392,
,,,,0,0,0,0,58,0,58,0,,,,,,,,,,,,,,,,,,,,,,,,,,,,,,,,,,,,,,,,,,,,,,58,9.0,f,021_o_f_n_a.jpg,neutral,s,17,1,2839.6871956000105,2839.9816846699746,2840.2012838000082,2840.3707288699866,2840.3756707999855,2840.416608869977,2840.4216811999795,2841.12965026999,s,1,0.696716699982062,696.716699982062,2840.4216811999795,2841.12965026999,2841.1366544999764,2842.3483304699826,EMOCONPILOT017,2021_Feb_23_1508,EmoCon_Pilot_120Hz,2020.2.4,119.86570242119392,
,,,,0,0,0,0,59,0,59,0,,,,,,,,,,,,,,,,,,,,,,,,,,,,,,,,,,,,,,,,,,,,,,59,4.0,m,016_y_m_n_a.jpg,neutral,s,17,1,2842.3523001000285,2842.648320070008,2842.8855608000304,2843.0421260700155,2843.0467830999987,2843.08748416999,2843.0929176000063,2843.4290771699802,s,1,0.32126530003733933,321.26530003733933,2843.0929176000063,2843.4290771699802,2843.4393985000206,2844.7318666700216,EMOCONPILOT017,2021_Feb_23_1508,EmoCon_Pilot_120Hz,2020.2.4,119.86570242119392,
,,,,0,0,0,0,60,0,60,0,,,,,,,,,,,,,,,,,,,,,,,,,,,,,,,,,,,,,,,,,,,,,,60,6.0,m,033_o_m_s_a.jpg,sad,a,17,1,2844.738552200026,2845.031857169996,2845.0577515999903,2845.191807970003,2845.195391200017,2845.232948669995,2845.2364458999946,2845.550769369997,s,0,0.3059392999857664,305.9392999857664,2845.2364458999946,2845.550769369997,2845.5612202999764,2846.756896469981,EMOCONPILOT017,2021_Feb_23_1508,EmoCon_Pilot_120Hz,2020.2.4,119.86570242119392,
,,,,0,0,0,0,61,0,61,0,,,,,,,,,,,,,,,,,,,,,,,,,,,,,,,,,,,,,,,,,,,,,,61,7.0,f,012_o_f_n_a.jpg,neutral,s,17,1,2846.7625464000157,2847.056915169995,2847.283794099989,2847.445908070024,2847.4497260000207,2847.4877076700272,2847.490529600007,2848.0362239700103,s,1,0.531608400051482,531.608400051482,2847.490529600007,2848.0362239700103,2848.0452073999913,2849.7735200700176,EMOCONPILOT017,2021_Feb_23_1508,EmoCon_Pilot_120Hz,2020.2.4,119.86570242119392,
,,,,0,0,0,0,62,0,62,0,,,,,,,,,,,,,,,,,,,,,,,,,,,,,,,,,,,,,,,,,,,,,,62,2.0,m,008_y_m_h_a.jpg,happy,d,17,1,2849.7786817000015,2850.0736002699764,2850.0876971000107,2850.225205069996,2850.228642400005,2850.266334470018,2850.2663554999745,2850.7493969699776,d,1,0.47585259994957596,475.85259994957596,2850.2663554999745,2850.7493969699776,2850.7589133,2852.0986608699955,EMOCONPILOT017,2021_Feb_23_1508,EmoCon_Pilot_120Hz,2020.2.4,119.86570242119392,
,,,,0,0,0,0,63,0,63,0,,,,,,,,,,,,,,,,,,,,,,,,,,,,,,,,,,,,,,,,,,,,,,63,10.0,f,028_y_f_h_a.jpg,happy,d,3,1,2852.104227899981,2852.3986432700244,2852.4190541999997,2852.44232737,2852.4433256000048,2852.4794996699843,2852.4811369000236,2853.2293674700254,d,1,0.7330921000102535,733.0921000102535,2852.4811369000236,2853.2293674700254,2853.241117800004,2854.323641069996,EMOCONPILOT017,2021_Feb_23_1508,EmoCon_Pilot_120Hz,2020.2.4,119.86570242119392,
,,,,0,0,0,0,64,0,64,0,,,,,,,,,,,,,,,,,,,,,,,,,,,,,,,,,,,,,,,,,,,,,,64,4.0,m,016_y_m_h_a.jpg,happy,d,17,1,2854.327684400021,2854.623569970025,2854.6368742000195,2854.775303269975,2854.7784342999803,2854.8166490700155,2854.8198516999837,2855.135571869969,d,1,0.2985150000313297,298.5150000313297,2854.8198516999837,2855.135571869969,2855.1475783999776,2856.531983070023,EMOCONPILOT017,2021_Feb_23_1508,EmoCon_Pilot_120Hz,2020.2.4,119.86570242119392,
,,,,0,0,0,0,65,0,65,0,,,,,,,,,,,,,,,,,,,,,,,,,,,,,,,,,,,,,,,,,,,,,,65,9.0,f,021_o_f_s_a.jpg,sad,a,17,1,2856.537876699993,2856.8319904700097,2856.853206,2856.9837226700097,2856.988913599984,2857.0304427699944,2857.035450000025,2858.7410837700068,None,0,,,2857.035450000025,2858.7410837700068,2858.7460901000304,2860.1236711699808,EMOCONPILOT017,2021_Feb_23_1508,EmoCon_Pilot_120Hz,2020.2.4,119.86570242119392,
,,,,0,0,0,0,66,0,66,0,,,,,,,,,,,,,,,,,,,,,,,,,,,,,,,,,,,,,,,,,,,,,,66,7.0,f,012_o_f_h_a.jpg,happy,d,3,1,2860.1235167999985,2860.4238417699876,2860.4482257000054,2860.470613470016,2860.471454499988,2860.5082909700054,2860.5097441999824,2862.037771669979,s,0,1.5124513999908231,1512.4513999908231,2860.5097441999824,2862.037771669979,2862.0465907999896,2863.890575169999,EMOCONPILOT017,2021_Feb_23_1508,EmoCon_Pilot_120Hz,2020.2.4,119.86570242119392,
,,,,0,0,0,0,67,0,67,0,,,,,,,,,,,,,,,,,,,,,,,,,,,,,,,,,,,,,,,,,,,,,,67,9.0,f,021_o_f_h_a.jpg,happy,d,17,1,2863.895858199976,2864.1905410700188,2864.414199699997,2864.58287196997,2864.5876600000192,2864.6285671700084,2864.6338882999844,2865.0609681700066,d,1,0.41249959997367114,412.49959997367114,2864.6338882999844,2865.0609681700066,2865.0721537999925,2867.0573004700186,EMOCONPILOT017,2021_Feb_23_1508,EmoCon_Pilot_120Hz,2020.2.4,119.86570242119392,
,,,,0,0,0,0,68,0,68,0,,,,,,,,,,,,,,,,,,,,,,,,,,,,,,,,,,,,,,,,,,,,,,68,8.0,f,019_m_f_h_a.jpg,happy,d,3,1,2867.0630606000195,2867.3571518699814,2867.367001299979,2867.390286770015,2867.391034799977,2867.426385669975,2867.4263004999957,2868.2362070700096,d,1,0.7958723999909125,795.8723999909125,2867.4263004999957,2868.2362070700096,2868.2435678999755,2869.248996470013,EMOCONPILOT017,2021_Feb_23_1508,EmoCon_Pilot_120Hz,2020.2.4,119.86570242119392,
,,,,0,0,0,0,69,0,69,0,,,,,,,,,,,,,,,,,,,,,,,,,,,,,,,,,,,,,,,,,,,,,,69,9.0,f,021_o_f_s_a.jpg,sad,a,17,1,2869.2549487000215,2869.5488003700216,2869.5699963999796,2869.7005346699793,2869.703571900027,2869.741773870023,2869.7452492000302,2870.310582969984,a,1,0.5489753999863751,548.9753999863751,2869.7452492000302,2870.310582969984,2870.3208106000093,2872.2572427699984,EMOCONPILOT017,2021_Feb_23_1508,EmoCon_Pilot_120Hz,2020.2.4,119.86570242119392,
,,,,0,0,0,0,70,0,70,0,,,,,,,,,,,,,,,,,,,,,,,,,,,,,,,,,,,,,,,,,,,,,,70,2.0,m,008_y_m_h_a.jpg,happy,d,3,1,2872.2613400000264,2872.5572597699997,2872.580589600024,2872.602461070003,2872.603203299979,2872.641755970026,2872.643334400025,2874.2424894700002,None,0,,,2872.643334400025,2874.2424894700002,2874.2473765999894,2875.990856470022,EMOCONPILOT017,2021_Feb_23_1508,EmoCon_Pilot_120Hz,2020.2.4,119.86570242119392,
,,,,0,0,0,0,71,0,71,0,,,,,,,,,,,,,,,,,,,,,,,,,,,,,,,,,,,,,,,,,,,,,,71,1.0,m,004_o_m_h_a.jpg,happy,d,3,1,2875.99643270002,2876.29071747,2876.4972038000124,2876.5236129700265,2876.5244801000226,2876.5611633699796,2876.5628472000244,2877.0724505700114,d,1,0.4991823000018485,499.1823000018485,2876.5628472000244,2877.0724505700114,2877.0800271999906,2878.957491369982,EMOCONPILOT017,2021_Feb_23_1508,EmoCon_Pilot_120Hz,2020.2.4,119.86570242119392,
,,,,0,0,0,0,72,0,72,0,,,,,,,,,,,,,,,,,,,,,,,,,,,,,,,,,,,,,,,,,,,,,,72,11.0,f,030_o_f_h_a.jpg,happy,d,3,1,2878.9633093000157,2879.2574021699897,2879.4569548,2879.483193269995,2879.4833750000107,2879.5174674699724,2879.5186355999904,2880.0488164699696,d,1,0.5194496000185609,519.4496000185609,2879.5186355999904,2880.0488164699696,2880.0583356000134,2881.107434269978,EMOCONPILOT017,2021_Feb_23_1508,EmoCon_Pilot_120Hz,2020.2.4,119.86570242119392,
,,,,0,0,0,0,73,0,73,0,,,,,,,,,,,,,,,,,,,,,,,,,,,,,,,,,,,,,,,,,,,,,,73,8.0,f,019_m_f_s_a.jpg,sad,a,3,1,2881.1115475000115,2881.4075026700216,2881.6382876000134,2881.6646224699857,2881.6649694999796,2881.7012067699748,2881.7025718999794,2882.5121740700038,a,1,0.79944680002518,799.44680002518,2881.7025718999794,2882.5121740700038,2882.519140999997,2884.5076152699826,EMOCONPILOT017,2021_Feb_23_1508,EmoCon_Pilot_120Hz,2020.2.4,119.86570242119392,
,,,,0,0,0,0,74,0,74,0,,,,,,,,,,,,,,,,,,,,,,,,,,,,,,,,,,,,,,,,,,,,,,74,5.0,m,027_o_m_h_a.jpg,happy,d,17,1,2884.5137687000097,2884.807520870009,2885.0092123000068,2885.1685936700146,2885.1696418999927,2885.2059625699826,2885.2074326000293,2885.5838883700258,d,1,0.36647370003629476,366.47370003629476,2885.2074326000293,2885.5838883700258,2885.5869125999743,2887.165922169987,EMOCONPILOT017,2021_Feb_23_1508,EmoCon_Pilot_120Hz,2020.2.4,119.86570242119392,
,,,,0,0,0,0,75,0,75,0,,,,,,,,,,,,,,,,,,,,,,,,,,,,,,,,,,,,,,,,,,,,,,75,8.0,f,019_m_f_s_a.jpg,sad,a,3,1,2887.170242000022,2887.4659010699893,2887.7118138999795,2887.7377576700005,2887.738148799981,2887.7754465700186,2887.7774135000072,2888.520531870023,a,1,0.7325922999880277,732.5922999880277,2887.7774135000072,2888.520531870023,2888.527974000026,2890.0826852700034,EMOCONPILOT017,2021_Feb_23_1508,EmoCon_Pilot_120Hz,2020.2.4,119.86570242119392,
,,,,0,0,0,0,76,0,76,0,,,,,,,,,,,,,,,,,,,,,,,,,,,,,,,,,,,,,,,,,,,,,,76,7.0,f,012_o_f_n_a.jpg,neutral,s,17,1,2890.088296199974,2890.382730769989,2890.5967386999982,2890.7600740700204,2890.764402800007,2890.804954370024,2890.810154000006,2891.304929070006,s,1,0.4841596999904141,484.1596999904141,2890.810154000006,2891.304929070006,2891.3155108999927,2893.282772669982,EMOCONPILOT017,2021_Feb_23_1508,EmoCon_Pilot_120Hz,2020.2.4,119.86570242119392,
,,,,0,0,0,0,77,0,77,0,,,,,,,,,,,,,,,,,,,,,,,,,,,,,,,,,,,,,,,,,,,,,,77,6.0,m,033_o_m_s_a.jpg,sad,a,17,1,2893.288824999996,2893.5827316700074,2893.605537399999,2893.7428247699922,2893.7447763999808,2893.7840796699807,2893.7860108999885,2894.191485469992,s,0,0.396010699972976,396.010699972976,2893.7860108999885,2894.191485469992,2894.1979852999793,2895.75784187002,EMOCONPILOT017,2021_Feb_23_1508,EmoCon_Pilot_120Hz,2020.2.4,119.86570242119392,
,,,,0,0,0,0,78,0,78,0,,,,,,,,,,,,,,,,,,,,,,,,,,,,,,,,,,,,,,,,,,,,,,78,1.0,m,004_o_m_h_a.jpg,happy,d,3,1,2895.763660700002,2896.0577821700194,2896.268512599985,2896.2949395700184,2896.2952427000273,2896.331474269979,2896.333211000019,2896.8221313700255,d,1,0.48110400000587106,481.10400000587106,2896.333211000019,2896.8221313700255,2896.8316316999844,2898.732869969978,EMOCONPILOT017,2021_Feb_23_1508,EmoCon_Pilot_120Hz,2020.2.4,119.86570242119392,
,,,,0,0,0,0,79,0,79,0,,,,,,,,,,,,,,,,,,,,,,,,,,,,,,,,,,,,,,,,,,,,,,79,5.0,m,027_o_m_s_a.jpg,sad,a,17,1,2898.738430699974,2899.032843169995,2899.0594052000088,2899.1930896699837,2899.19770650001,2899.2383702700085,2899.2437287999783,2899.8632347700245,a,1,0.6025063999695703,602.5063999695703,2899.2437287999783,2899.8632347700245,2899.87443169998,2901.832964669977,EMOCONPILOT017,2021_Feb_23_1508,EmoCon_Pilot_120Hz,2020.2.4,119.86570242119392,
,,,,0,0,0,0,80,0,80,0,,,,,,,,,,,,,,,,,,,,,,,,,,,,,,,,,,,,,,,,,,,,,,80,9.0,f,021_o_f_s_a.jpg,sad,a,3,1,2901.8396929000155,2902.1328183700157,2902.156292300031,2902.1791545699875,2902.179702399997,2902.217347370001,2902.217419499997,2903.525909269991,d,0,1.3006544000236318,1300.6544000236318,2902.217419499997,2903.525909269991,2903.5332901999936,2905.091274169978,EMOCONPILOT017,2021_Feb_23_1508,EmoCon_Pilot_120Hz,2020.2.4,119.86570242119392,
,,,,0,0,0,0,81,0,81,0,,,,,,,,,,,,,,,,,,,,,,,,,,,,,,,,,,,,,,,,,,,,,,81,5.0,m,027_o_m_s_a.jpg,sad,a,3,1,2905.0968967999797,2905.391366869974,2905.4148275000043,2905.43735857,2905.4380025999853,2905.475767769973,2905.475909699977,2906.337569970003,s,0,0.8500680000288412,850.0680000288412,2905.475909699977,2906.337569970003,2906.3450070000254,2907.5913324700145,EMOCONPILOT017,2021_Feb_23_1508,EmoCon_Pilot_120Hz,2020.2.4,119.86570242119392,
,,,,0,0,0,0,82,0,82,0,,,,,,,,,,,,,,,,,,,,,,,,,,,,,,,,,,,,,,,,,,,,,,82,7.0,f,012_o_f_h_a.jpg,happy,d,17,1,2907.596763300011,2907.891412769974,2907.916254199983,2908.051295669988,2908.0527576000313,2908.092684370006,2908.09409269999,2908.5504718700017,d,1,0.4401740999892354,440.1740999892354,2908.09409269999,2908.5504718700017,2908.560980600014,2910.4914356700087,EMOCONPILOT017,2021_Feb_23_1508,EmoCon_Pilot_120Hz,2020.2.4,119.86570242119392,
,,,,0,0,0,0,83,0,83,0,,,,,,,,,,,,,,,,,,,,,,,,,,,,,,,,,,,,,,,,,,,,,,83,3.0,m,013_y_m_s_a.jpg,sad,a,3,1,2910.497045999975,2910.7914902700054,2910.816997600021,2910.8403331699724,2910.842216900026,2910.8789476699953,2910.8806456999737,2911.482954469981,s,0,0.5892919999896549,589.2919999896549,2910.8806456999737,2911.482954469981,2911.489480899996,2912.624767770007,EMOCONPILOT017,2021_Feb_23_1508,EmoCon_Pilot_120Hz,2020.2.4,119.86570242119392,
,,,,0,0,0,0,84,0,84,0,,,,,,,,,,,,,,,,,,,,,,,,,,,,,,,,,,,,,,,,,,,,,,84,5.0,m,027_o_m_s_a.jpg,sad,a,3,1,2912.6309583000257,2912.9247523699946,2912.9459891000297,2912.9693046700036,2912.9698124999995,2913.005551769986,2913.0051509999903,2914.198651470017,s,0,1.1770250999834388,1177.0250999834388,2913.0051509999903,2914.198651470017,2914.2068281000247,2915.583237170015,EMOCONPILOT017,2021_Feb_23_1508,EmoCon_Pilot_120Hz,2020.2.4,119.86570242119392,
,,,,0,0,0,0,85,0,85,0,,,,,,,,,,,,,,,,,,,,,,,,,,,,,,,,,,,,,,,,,,,,,,85,4.0,m,016_y_m_s_a.jpg,sad,a,17,1,2915.5883914000005,2915.883123770013,2915.9094103000243,2916.0430995699776,2916.0471533000236,2916.0878173700244,2916.0910860000295,2916.597321469983,a,1,0.49901920004049316,499.01920004049316,2916.0910860000295,2916.597321469983,2916.608010100026,2917.8414376700007,EMOCONPILOT017,2021_Feb_23_1508,EmoCon_Pilot_120Hz,2020.2.4,119.86570242119392,
,,,,0,0,0,0,86,0,86,0,,,,,,,,,,,,,,,,,,,,,,,,,,,,,,,,,,,,,,,,,,,,,,86,5.0,m,027_o_m_n_a.jpg,neutral,s,17,1,2917.842271100031,2918.141581469978,2918.3682160999742,2918.529710470006,2918.5332931000157,2918.574063070008,2918.5792749000248,2919.6979689700006,s,1,1.1067170000169426,1106.7170000169426,2918.5792749000248,2919.6979689700006,2919.706567300018,2920.7582602700045,EMOCONPILOT017,2021_Feb_23_1508,EmoCon_Pilot_120Hz,2020.2.4,119.86570242119392,
,,,,0,0,0,0,87,0,87,0,,,,,,,,,,,,,,,,,,,,,,,,,,,,,,,,,,,,,,,,,,,,,,87,3.0,m,013_y_m_h_a.jpg,happy,d,17,1,2920.7636899999925,2921.058356370026,2921.3222952000215,2921.48635867,2921.491199399985,2921.532136769971,2921.5370336999767,2921.9983692700102,d,1,0.4530061000259593,453.0061000259593,2921.5370336999767,2921.9983692700102,2922.0071855999995,2923.3166457699904,EMOCONPILOT017,2021_Feb_23_1508,EmoCon_Pilot_120Hz,2020.2.4,119.86570242119392,
,,,,0,0,0,0,88,0,88,0,,,,,,,,,,,,,,,,,,,,,,,,,,,,,,,,,,,,,,,,,,,,,,88,5.0,m,027_o_m_s_a.jpg,sad,a,17,1,2923.3221288999775,2923.616281269997,2923.6278672000044,2923.7599972700177,2923.7636839000043,2923.8034910699994,2923.807787100028,2924.425986070017,a,1,0.6063525000354275,606.3525000354275,2923.807787100028,2924.425986070017,2924.4376682,2926.3750389699767,EMOCONPILOT017,2021_Feb_23_1508,EmoCon_Pilot_120Hz,2020.2.4,119.86570242119392,
,,,,0,0,0,0,89,0,89,0,,,,,,,,,,,,,,,,,,,,,,,,,,,,,,,,,,,,,,,,,,,,,,89,5.0,m,027_o_m_s_a.jpg,sad,a,17,1,2926.3795474999934,2926.6749604700076,2926.6983602999826,2926.835057470022,2926.84021330002,2926.8809453700146,2926.8862800999777,2927.400431870023,a,1,0.5039638000307605,503.96380003076047,2926.8862800999777,2927.400431870023,2927.4109937999747,2928.7999500699866,EMOCONPILOT017,2021_Feb_23_1508,EmoCon_Pilot_120Hz,2020.2.4,119.86570242119392,
,,,,0,0,0,0,90,0,90,0,,,,,,,,,,,,,,,,,,,,,,,,,,,,,,,,,,,,,,,,,,,,,,90,12.0,f,040_y_f_s_a.jpg,sad,a,3,1,2928.8028814999852,2929.1001744699956,2929.1251395000145,2929.1479762700096,2929.148737600015,2929.1849153700227,2929.1864844000083,2930.1449298699795,a,1,0.9475441999966279,947.5441999966279,2929.1864844000083,2930.1449298699795,2930.148535799992,2931.5501491699893,EMOCONPILOT017,2021_Feb_23_1508,EmoCon_Pilot_120Hz,2020.2.4,119.86570242119392,
,,,,0,0,0,0,91,0,91,0,,,,,,,,,,,,,,,,,,,,,,,,,,,,,,,,,,,,,,,,,,,,,,91,3.0,m,013_y_m_n_a.jpg,neutral,s,17,1,2931.555630000017,2931.8502300700115,2932.1300259000272,2932.295968769997,2932.3000716000097,2932.3404445700057,2932.3453835999826,2932.7911773700093,s,1,0.42864559998270124,428.64559998270124,2932.3453835999826,2932.7911773700093,2932.802503700019,2933.966878069978,EMOCONPILOT017,2021_Feb_23_1508,EmoCon_Pilot_120Hz,2020.2.4,119.86570242119392,
,,,,0,0,0,0,92,0,92,0,,,,,,,,,,,,,,,,,,,,,,,,,,,,,,,,,,,,,,,,,,,,,,92,12.0,f,040_y_f_s_a.jpg,sad,a,3,1,2933.9723553999793,2934.2668428699894,2934.2894488999736,2934.3119508699806,2934.3127016000217,2934.351399870013,2934.3532507999917,2935.150089069974,a,1,0.7807890999829397,780.7890999829397,2934.3532507999917,2935.150089069974,2935.158113099984,2936.733642869984,EMOCONPILOT017,2021_Feb_23_1508,EmoCon_Pilot_120Hz,2020.2.4,119.86570242119392,
,,,,0,0,0,0,93,0,93,0,,,,,,,,,,,,,,,,,,,,,,,,,,,,,,,,,,,,,,,,,,,,,,93,6.0,m,033_o_m_s_a.jpg,sad,a,17,1,2936.739299000008,2937.0336114700244,2937.0487312999903,2937.185152370023,2937.1869924999774,2937.226406670007,2937.228475700016,2938.0613176699903,s,0,0.8256582000176422,825.6582000176422,2937.228475700016,2938.0613176699903,2938.0679102999857,2940.017011769995,EMOCONPILOT017,2021_Feb_23_1508,EmoCon_Pilot_120Hz,2020.2.4,119.86570242119392,
,,,,0,0,0,0,94,0,94,0,,,,,,,,,,,,,,,,,,,,,,,,,,,,,,,,,,,,,,,,,,,,,,94,2.0,m,008_y_m_s_a.jpg,sad,a,3,1,2940.021278899978,2940.3170341699793,2940.837981700024,2940.8642861699977,2940.865158599976,2940.90150667,2940.9032635000185,2941.3423321700016,s,0,0.43077490001451224,430.77490001451224,2940.9032635000185,2941.3423321700016,2941.350794100028,2942.6420661700017,EMOCONPILOT017,2021_Feb_23_1508,EmoCon_Pilot_120Hz,2020.2.4,119.86570242119392,
,,,,0,0,0,0,95,0,95,0,,,,,,,,,,,,,,,,,,,,,,,,,,,,,,,,,,,,,,,,,,,,,,95,8.0,f,019_m_f_s_a.jpg,sad,a,17,1,2942.647832399991,2942.941999470006,2943.1895953000057,2943.3517469699786,2943.3562904000282,2943.3970586700075,2943.4024676000117,2943.8386582700246,a,1,0.41977540001971647,419.77540001971647,2943.4024676000117,2943.8386582700246,2943.845023000031,2945.4504016700143,EMOCONPILOT017,2021_Feb_23_1508,EmoCon_Pilot_120Hz,2020.2.4,119.86570242119392,
,,,,0,0,0,0,96,0,96,0,,,,,,,,,,,,,,,,,,,,,,,,,,,,,,,,,,,,,,,,,,,,,,96,9.0,f,021_o_f_n_a.jpg,neutral,s,3,1,2945.4564924000297,2945.750282869971,2945.9533851000015,2945.981740569993,2945.986205300025,2946.027317770006,2946.0325403999886,2947.0302939700255,a,0,0.9893803999875672,989.3803999875672,2946.0325403999886,2947.0302939700255,2947.0340461999876,2948.3420528699703,EMOCONPILOT017,2021_Feb_23_1508,EmoCon_Pilot_120Hz,2020.2.4,119.86570242119392,
,,,,0,0,0,0,97,0,97,0,,,,,,,,,,,,,,,,,,,,,,,,,,,,,,,,,,,,,,,,,,,,,,97,11.0,f,030_o_f_h_a.jpg,happy,d,17,1,2948.345768600004,2948.6420504699986,2948.8360967999906,2948.9963374700224,2948.999204199994,2949.0364320700232,2949.0394666999928,2949.4008693699784,d,1,0.35054229997331277,350.54229997331277,2949.0394666999928,2949.4008693699784,2949.4100958000054,2951.1255289699825,EMOCONPILOT017,2021_Feb_23_1508,EmoCon_Pilot_120Hz,2020.2.4,119.86570242119392,
,,,,0,0,0,0,98,0,98,0,,,,,,,,,,,,,,,,,,,,,,,,,,,,,,,,,,,,,,,,,,,,,,98,12.0,f,040_y_f_n_a.jpg,neutral,s,3,1,2951.1304221000173,2951.4255249699986,2951.658844700025,2951.6838643699944,2951.6839261000277,2951.724499169976,2951.729492500017,2952.550332069985,s,1,0.804441400046926,804.441400046926,2951.729492500017,2952.550332069985,2952.558378499991,2953.658831370011,EMOCONPILOT017,2021_Feb_23_1508,EmoCon_Pilot_120Hz,2020.2.4,119.86570242119392,
,,,,0,0,0,0,99,0,99,0,,,,,,,,,,,,,,,,,,,,,,,,,,,,,,,,,,,,,,,,,,,,,,99,12.0,f,040_y_f_s_a.jpg,sad,a,3,1,2953.6628044000245,2953.958912669978,2953.9858472999767,2954.0085391699745,2954.009179899993,2954.045627870021,2954.0461879000068,2955.8464636699705,None,0,,,2954.0461879000068,2955.8464636699705,2955.8534432000015,2957.517268669972,EMOCONPILOT017,2021_Feb_23_1508,EmoCon_Pilot_120Hz,2020.2.4,119.86570242119392,
,,,,0,0,0,0,100,0,100,0,,,,,,,,,,,,,,,,,,,,,,,,,,,,,,,,,,,,,,,,,,,,,,100,4.0,m,016_y_m_n_a.jpg,neutral,s,17,1,2957.5213503999985,2957.8172814699997,2958.062183000031,2958.222096370015,2958.2268101000227,2958.2674969700224,2958.2723561999737,2959.1027828700085,s,1,0.8217778999824077,821.7778999824077,2958.2723561999737,2959.1027828700085,2959.1133036999963,2960.300706669985,EMOCONPILOT017,2021_Feb_23_1508,EmoCon_Pilot_120Hz,2020.2.4,119.86570242119392,
,,,,0,0,0,0,101,0,101,0,,,,,,,,,,,,,,,,,,,,,,,,,,,,,,,,,,,,,,,,,,,,,,101,11.0,f,030_o_f_s_a.jpg,sad,a,17,1,2960.305952200026,2960.600686669996,2960.800385200011,2960.961963669985,2960.966574900027,2961.007489070011,2961.011809799995,2961.4671588700207,a,1,0.44222219998482615,442.22219998482615,2961.011809799995,2961.4671588700207,2961.4736916000256,2963.4591023700254,EMOCONPILOT017,2021_Feb_23_1508,EmoCon_Pilot_120Hz,2020.2.4,119.86570242119392,
,,,,0,0,0,0,102,0,102,0,,,,,,,,,,,,,,,,,,,,,,,,,,,,,,,,,,,,,,,,,,,,,,102,3.0,m,013_y_m_h_a.jpg,happy,d,3,1,2963.464938400022,2963.7591028700176,2963.9849756999756,2964.0111531699717,2964.0161125999875,2964.056945569994,2964.061982300016,2964.742020369979,d,1,0.6642212000442669,664.2212000442669,2964.061982300016,2964.742020369979,2964.7544027999975,2966.609199469973,EMOCONPILOT017,2021_Feb_23_1508,EmoCon_Pilot_120Hz,2020.2.4,119.86570242119392,
,,,,0,0,0,0,103,0,103,0,,,,,,,,,,,,,,,,,,,,,,,,,,,,,,,,,,,,,,,,,,,,,,103,2.0,m,008_y_m_s_a.jpg,sad,a,3,1,2966.614565900003,2966.909123170021,2967.1424352999893,2967.1675529700065,2967.1677781000035,2967.204176870006,2967.2046778000076,2967.829761669977,a,1,0.6093182999757119,609.3182999757119,2967.2046778000076,2967.829761669977,2967.8362961999956,2968.98426547001,EMOCONPILOT017,2021_Feb_23_1508,EmoCon_Pilot_120Hz,2020.2.4,119.86570242119392,
,,,,0,0,0,0,104,0,104,0,,,,,,,,,,,,,,,,,,,,,,,,,,,,,,,,,,,,,,,,,,,,,,104,11.0,f,030_o_f_s_a.jpg,sad,a,3,1,2968.9896840000292,2969.2841515700043,2969.48728619999,2969.513201070024,2969.513475499989,2969.5498283699912,2969.550174199976,2970.238618269976,s,0,0.680087199958507,680.087199958507,2969.550174199976,2970.238618269976,2970.250455399975,2971.359143270011,EMOCONPILOT017,2021_Feb_23_1508,EmoCon_Pilot_120Hz,2020.2.4,119.86570242119392,
,,,,0,0,0,0,105,0,105,0,,,,,,,,,,,,,,,,,,,,,,,,,,,,,,,,,,,,,,,,,,,,,,105,4.0,m,016_y_m_h_a.jpg,happy,d,17,1,2971.359342199983,2971.6593048700074,2971.686689599999,2971.819240270014,2971.823436299979,2971.864259170025,2971.8694057000102,2972.2543541700056,d,1,0.37657670001499355,376.57670001499355,2971.8694057000102,2972.2543541700056,2972.267617699981,2974.05102706998,EMOCONPILOT017,2021_Feb_23_1508,EmoCon_Pilot_120Hz,2020.2.4,119.86570242119392,
,,,,0,0,0,0,106,0,106,0,,,,,,,,,,,,,,,,,,,,,,,,,,,,,,,,,,,,,,,,,,,,,,106,7.0,f,012_o_f_n_a.jpg,neutral,s,17,1,2974.0571400999906,2974.35096106999,2974.5754528000252,2974.7404261700053,2974.745148100017,2974.7857074699773,2974.7908909000107,2975.0647739699984,a,0,0.2633092000032775,263.3092000032775,2974.7908909000107,2975.0647739699984,2975.077578400029,2976.3426802699746,EMOCONPILOT017,2021_Feb_23_1508,EmoCon_Pilot_120Hz,2020.2.4,119.86570242119392,
,,,,0,0,0,0,107,0,107,0,,,,,,,,,,,,,,,,,,,,,,,,,,,,,,,,,,,,,,,,,,,,,,107,11.0,f,030_o_f_h_a.jpg,happy,d,3,1,2976.348749900004,2976.6427737699764,2976.8385791999754,2976.865182970016,2976.865129099984,2976.9023613699887,2976.9038355000084,2977.4651457700006,d,1,0.5501708999508992,550.1708999508992,2976.9038355000084,2977.4651457700006,2977.4776324999984,2978.926031670015,EMOCONPILOT017,2021_Feb_23_1508,EmoCon_Pilot_120Hz,2020.2.4,119.86570242119392,
,,,,0,0,0,0,108,0,108,0,,,,,,,,,,,,,,,,,,,,,,,,,,,,,,,,,,,,,,,,,,,,,,108,1.0,m,004_o_m_s_a.jpg,sad,a,17,1,2978.9314626000123,2979.226037269988,2979.242380200012,2979.377676069975,2979.3807937999954,2979.4190163699736,2979.422282500018,2979.8395037700016,a,1,0.39977019996149465,399.77019996149465,2979.422282500018,2979.8395037700016,2979.8510073000216,2981.734544769983,EMOCONPILOT017,2021_Feb_23_1508,EmoCon_Pilot_120Hz,2020.2.4,119.86570242119392,
,,,,0,0,0,0,109,0,109,0,,,,,,,,,,,,,,,,,,,,,,,,,,,,,,,,,,,,,,,,,,,,,,109,3.0,m,013_y_m_n_a.jpg,neutral,s,17,1,2981.7401569000212,2982.0345191700094,2982.2742392999935,2982.4317853699963,2982.4367034999887,2982.477412969986,2982.4825719000073,2982.8786118699995,s,1,0.3795856000506319,379.5856000506319,2982.4825719000073,2982.8786118699995,2982.8899941000273,2984.2094786699804,EMOCONPILOT017,2021_Feb_23_1508,EmoCon_Pilot_120Hz,2020.2.4,119.86570242119392,
,,,,0,0,0,0,110,0,110,0,,,,,,,,,,,,,,,,,,,,,,,,,,,,,,,,,,,,,,,,,,,,,,110,10.0,f,028_y_f_s_a.jpg,sad,a,17,1,2984.214632600022,2984.509478270024,2984.5234748999937,2984.6610999699974,2984.6639449999784,2984.7023943699955,2984.705897899985,2984.974287669995,s,0,0.2600800000363961,260.0800000363961,2984.705897899985,2984.974287669995,2984.982872200024,2986.4428925699963,EMOCONPILOT017,2021_Feb_23_1508,EmoCon_Pilot_120Hz,2020.2.4,119.86570242119392,
,,,,0,0,0,0,111,0,111,0,,,,,,,,,,,,,,,,,,,,,,,,,,,,,,,,,,,,,,,,,,,,,,111,11.0,f,030_o_f_h_a.jpg,happy,d,3,1,2986.448111000005,2986.742892369983,2986.9506963000167,2986.976513170003,2986.977092700021,2987.011280870013,2987.012008299993,2987.609066570009,d,1,0.5859595999936573,585.9595999936573,2987.012008299993,2987.609066570009,2987.615543699998,2988.7763290699863,EMOCONPILOT017,2021_Feb_23_1508,EmoCon_Pilot_120Hz,2020.2.4,119.86570242119392,
,,,,0,0,0,0,112,0,112,0,,,,,,,,,,,,,,,,,,,,,,,,,,,,,,,,,,,,,,,,,,,,,,112,7.0,f,012_o_f_n_a.jpg,neutral,s,17,1,2988.7818436999805,2989.076259470027,2989.29566850001,2989.467022669973,2989.471563500003,2989.5117384700047,2989.5170788000105,2990.0595696700098,s,1,0.5288461999734864,528.8461999734864,2989.5170788000105,2990.0595696700098,2990.06905250001,2991.5679753699865,EMOCONPILOT017,2021_Feb_23_1508,EmoCon_Pilot_120Hz,2020.2.4,119.86570242119392,
,,,,0,0,0,0,113,0,113,0,,,,,,,,,,,,,,,,,,,,,,,,,,,,,,,,,,,,,,,,,,,,,,113,2.0,m,008_y_m_s_a.jpg,sad,a,3,1,2991.573474099976,2991.8678581700137,2992.1044029999757,2992.1296290700034,2992.129995999974,2992.1648647700263,2992.1648271000013,2992.8979005700153,a,1,0.7211650999961421,721.1650999961421,2992.1648271000013,2992.8979005700153,2992.905110499996,2994.251445069973,EMOCONPILOT017,2021_Feb_23_1508,EmoCon_Pilot_120Hz,2020.2.4,119.86570242119392,
,,,,0,0,0,0,114,0,114,0,,,,,,,,,,,,,,,,,,,,,,,,,,,,,,,,,,,,,,,,,,,,,,114,11.0,f,030_o_f_h_a.jpg,happy,d,17,1,2994.2571347000194,2994.551386069978,2994.745146000001,2994.901484670007,2994.9046896999935,2994.9419217699965,2994.9450651999796,2995.3804827699846,d,1,0.4209821000113152,420.9821000113152,2994.9450651999796,2995.3804827699846,2995.389891400002,2996.9014695700084,EMOCONPILOT017,2021_Feb_23_1508,EmoCon_Pilot_120Hz,2020.2.4,119.86570242119392,
,,,,0,0,0,0,115,0,115,0,,,,,,,,,,,,,,,,,,,,,,,,,,,,,,,,,,,,,,,,,,,,,,115,3.0,m,013_y_m_h_a.jpg,happy,d,17,1,2996.907088499982,2997.2014092700033,2997.439114000008,2997.6022008700006,2997.60576820001,2997.6469213700097,2997.6523164000246,2998.0471825699847,d,1,0.37796870002057403,377.96870002057403,2997.6523164000246,2998.0471825699847,2998.058473800018,2999.7346777700063,EMOCONPILOT017,2021_Feb_23_1508,EmoCon_Pilot_120Hz,2020.2.4,119.86570242119392,
,,,,0,0,0,0,116,0,116,0,,,,,,,,,,,,,,,,,,,,,,,,,,,,,,,,,,,,,,,,,,,,,,116,2.0,m,008_y_m_s_a.jpg,sad,a,3,1,2999.7382201,3000.034804170026,3000.2634822999826,3000.290465069999,3000.290524400014,3000.327704270027,3000.3286789000267,3001.7855570699962,a,1,1.4451667999965139,1445.1667999965139,3000.3286789000267,3001.7855570699962,3001.792041299981,3003.568203969981,EMOCONPILOT017,2021_Feb_23_1508,EmoCon_Pilot_120Hz,2020.2.4,119.86570242119392,
,,,,0,0,0,0,117,0,117,0,,,,,,,,,,,,,,,,,,,,,,,,,,,,,,,,,,,,,,,,,,,,,,117,3.0,m,013_y_m_n_a.jpg,neutral,s,3,1,3003.5735894999816,3003.8682316700056,3004.1097004999756,3004.13565367001,3004.136328599998,3004.1719025700063,3004.173852899985,3004.8133816699906,s,1,0.6242614999646321,624.2614999646321,3004.173852899985,3004.8133816699906,3004.82267329999,3006.1765665700136,EMOCONPILOT017,2021_Feb_23_1508,EmoCon_Pilot_120Hz,2020.2.4,119.86570242119392,
,,,,0,0,0,0,118,0,118,0,,,,,,,,,,,,,,,,,,,,,,,,,,,,,,,,,,,,,,,,,,,,,,118,6.0,m,033_o_m_n_a.jpg,neutral,s,3,1,3006.1815122999833,3006.4765464700235,3006.6694944999763,3006.6963438700245,3006.697057400015,3006.7320051699703,3006.733243499999,3007.8627199700045,s,1,1.1206406999845058,1120.6406999845058,3006.733243499999,3007.8627199700045,3007.8702117999783,3009.518218669988,EMOCONPILOT017,2021_Feb_23_1508,EmoCon_Pilot_120Hz,2020.2.4,119.86570242119392,
,,,,0,0,0,0,119,0,119,0,,,,,,,,,,,,,,,,,,,,,,,,,,,,,,,,,,,,,,,,,,,,,,119,6.0,m,033_o_m_n_a.jpg,neutral,s,3,1,3009.5189543000306,3009.8183040699864,3010.023545300006,3010.0492256700004,3010.0494739999995,3010.0860436700227,3010.0861749000032,3010.7390416699986,s,1,0.6399257999728434,639.9257999728434,3010.0861749000032,3010.7390416699986,3010.7461243,3012.5516979700246,EMOCONPILOT017,2021_Feb_23_1508,EmoCon_Pilot_120Hz,2020.2.4,119.86570242119392,
,,,,1,0,1,0,0,0,0,0,,,,,,,,,,,,,,,,,,,,,,,,,,,,,,,,,,,,,,,3012.629809200007,3016.3956843700203,s,3.7521151999826543,3752.1151999826543,3012.629809200007,3016.3956843700203,0,1.0,m,004_o_m_s_a.jpg,sad,a,2,2,3016.400422899984,3016.6934242699704,3016.706643100013,3016.721668670018,3016.7224831000203,3016.7613327700005,3016.7624636000255,3018.0193860699715,s,0,1.2434537000372075,1243.4537000372075,3016.7624636000255,3018.0193860699715,3018.028652100009,3019.1600770700084,EMOCONPILOT017,2021_Feb_23_1508,EmoCon_Pilot_120Hz,2020.2.4,119.86570242119392,
,,,,1,0,1,0,1,0,1,0,,,,,,,,,,,,,,,,,,,,,,,,,,,,,,,,,,,,,,,,,,,,,,1,9.0,f,021_o_f_n_a.jpg,neutral,s,2,2,3019.1609726999886,3019.460033870017,3019.7653114999994,3019.782540970022,3019.7869415000314,3019.8276405700076,3019.832793299982,3020.4010214699724,s,1,0.5572257000021636,557.2257000021636,3019.832793299982,3020.4010214699724,3020.4136221000226,3022.226874970022,EMOCONPILOT017,2021_Feb_23_1508,EmoCon_Pilot_120Hz,2020.2.4,119.86570242119392,
,,,,1,0,1,0,2,0,2,0,,,,,,,,,,,,,,,,,,,,,,,,,,,,,,,,,,,,,,,,,,,,,,2,11.0,f,030_o_f_s_a.jpg,sad,a,17,2,3022.2323463999783,3022.5269303700247,3022.7297584000044,3022.8898293700245,3022.894379000005,3022.9354130699708,3022.9403631000314,3023.5006637700194,a,1,0.5455883999820799,545.5883999820799,3022.9403631000314,3023.5006637700194,3023.5071039000177,3025.0353377700144,EMOCONPILOT017,2021_Feb_23_1508,EmoCon_Pilot_120Hz,2020.2.4,119.86570242119392,
,,,,1,0,1,0,3,0,3,0,,,,,,,,,,,,,,,,,,,,,,,,,,,,,,,,,,,,,,,,,,,,,,3,10.0,f,028_y_f_s_a.jpg,sad,a,2,2,3025.040624300018,3025.335299870005,3025.356167900027,3025.371877670003,3025.372141400003,3025.408177669981,3025.4078804000164,3026.251927969983,s,0,0.8300267999875359,830.0267999875359,3025.4078804000164,3026.251927969983,3026.261265999987,3027.5686338699948,EMOCONPILOT017,2021_Feb_23_1508,EmoCon_Pilot_120Hz,2020.2.4,119.86570242119392,
,,,,1,0,1,0,4,0,4,0,,,,,,,,,,,,,,,,,,,,,,,,,,,,,,,,,,,,,,,,,,,,,,4,6.0,m,033_o_m_n_a.jpg,neutral,s,17,2,3027.5746285999776,3027.8687535700215,3028.0759525999893,3028.2342709699938,3028.238842200022,3028.2782600700216,3028.2833793999744,3029.2465776699887,s,1,0.9544823999749497,954.4823999749497,3028.2833793999744,3029.2465776699887,3029.253875399998,3030.5020579699835,EMOCONPILOT017,2021_Feb_23_1508,EmoCon_Pilot_120Hz,2020.2.4,119.86570242119392,
,,,,1,0,1,0,5,0,5,0,,,,,,,,,,,,,,,,,,,,,,,,,,,,,,,,,,,,,,,,,,,,,,5,1.0,m,004_o_m_n_a.jpg,neutral,s,2,2,3030.5074931000127,3030.8020667699807,3031.0087820999906,3031.026003970014,3031.026376700029,3031.0618946700183,3031.0633971000207,3031.6461347700156,s,1,0.5665439000003971,566.5439000003971,3031.0633971000207,3031.6461347700156,3031.6526110999985,3033.3771138700017,EMOCONPILOT017,2021_Feb_23_1508,EmoCon_Pilot_120Hz,2020.2.4,119.86570242119392,
,,,,1,0,1,0,6,0,6,0,,,,,,,,,,,,,,,,,,,,,,,,,,,,,,,,,,,,,,,,,,,,,,6,12.0,f,040_y_f_s_a.jpg,sad,a,2,2,3033.3832987999776,3033.6771397700127,3033.702101200004,3033.7172439699702,3033.7191348000197,3033.753804770013,3033.7552640999784,3034.3994265699935,s,0,0.6346794000128284,634.6794000128284,3033.7552640999784,3034.3994265699935,3034.4079267000197,3035.9272321700178,EMOCONPILOT017,2021_Feb_23_1508,EmoCon_Pilot_120Hz,2020.2.4,119.86570242119392,
,,,,1,0,1,0,7,0,7,0,,,,,,,,,,,,,,,,,,,,,,,,,,,,,,,,,,,,,,,,,,,,,,7,9.0,f,021_o_f_n_a.jpg,neutral,s,2,2,3035.9327408000245,3036.2271773699963,3036.4340675999993,3036.451095169998,3036.451574000006,3036.4872636700225,3036.487764700025,3037.028119770001,s,1,0.5262651000521146,526.2651000521146,3036.487764700025,3037.028119770001,3037.036467500031,3038.7938484699757,EMOCONPILOT017,2021_Feb_23_1508,EmoCon_Pilot_120Hz,2020.2.4,119.86570242119392,
,,,,1,0,1,0,8,0,8,0,,,,,,,,,,,,,,,,,,,,,,,,,,,,,,,,,,,,,,,,,,,,,,8,9.0,f,021_o_f_s_a.jpg,sad,a,2,2,3038.798872900021,3039.093922370003,3039.1170947999926,3039.1322869699857,3039.1330642999965,3039.1700343699836,3039.17009780003,3039.711926669994,s,0,0.5318124999757856,531.8124999757856,3039.17009780003,3039.711926669994,3039.72352900001,3040.868886669987,EMOCONPILOT017,2021_Feb_23_1508,EmoCon_Pilot_120Hz,2020.2.4,119.86570242119392,
,,,,1,0,1,0,9,0,9,0,,,,,,,,,,,,,,,,,,,,,,,,,,,,,,,,,,,,,,,,,,,,,,9,4.0,m,016_y_m_s_a.jpg,sad,a,17,2,3040.872906000004,3041.168932069972,3041.1938372000004,3041.3290145699925,3041.3325174999773,3041.3714559699933,3041.37676319998,3041.893980070023,a,1,0.5094228999805637,509.42289998056367,3041.37676319998,3041.893980070023,3041.9054696999956,3043.035718370002,EMOCONPILOT017,2021_Feb_23_1508,EmoCon_Pilot_120Hz,2020.2.4,119.86570242119392,
,,,,1,0,1,0,10,0,10,0,,,,,,,,,,,,,,,,,,,,,,,,,,,,,,,,,,,,,,,,,,,,,,10,7.0,f,012_o_f_n_a.jpg,neutral,s,17,2,3043.0412941999966,3043.33564816998,3043.5603088000207,3043.724436670024,3043.729044799984,3043.7699788700033,3043.7750930999755,3044.848257470009,s,1,1.062864499981515,1062.864499981515,3043.7750930999755,3044.848257470009,3044.8571091999765,3046.1190901700234,EMOCONPILOT017,2021_Feb_23_1508,EmoCon_Pilot_120Hz,2020.2.4,119.86570242119392,
,,,,1,0,1,0,11,0,11,0,,,,,,,,,,,,,,,,,,,,,,,,,,,,,,,,,,,,,,,,,,,,,,11,2.0,m,008_y_m_n_a.jpg,neutral,s,17,2,3046.124395299994,3046.419019970001,3046.6544525999925,3046.8129572700186,3046.8175655999803,3046.8581549699943,3046.8633675000165,3047.3779077699933,s,1,0.5026176000246778,502.6176000246778,3046.8633675000165,3047.3779077699933,3047.3893574000103,3049.227461470006,EMOCONPILOT017,2021_Feb_23_1508,EmoCon_Pilot_120Hz,2020.2.4,119.86570242119392,
,,,,1,0,1,0,12,0,12,0,,,,,,,,,,,,,,,,,,,,,,,,,,,,,,,,,,,,,,,,,,,,,,12,1.0,m,004_o_m_s_a.jpg,sad,a,2,2,3049.2317951000296,3049.527299469983,3049.5367593999836,3049.551723469986,3049.5518580999924,3049.5873368699745,3049.5870082000038,3050.1889569700056,s,0,0.5948971000034362,594.8971000034362,3049.5870082000038,3050.1889569700056,3050.193699800002,3051.4857593699767,EMOCONPILOT017,2021_Feb_23_1508,EmoCon_Pilot_120Hz,2020.2.4,119.86570242119392,
,,,,1,0,1,0,13,0,13,0,,,,,,,,,,,,,,,,,,,,,,,,,,,,,,,,,,,,,,,,,,,,,,13,7.0,f,012_o_f_h_a.jpg,happy,d,17,2,3051.4899167999974,3051.7858351700183,3051.8018576999893,3051.9375635699894,3051.9421478000004,3051.982900569978,3051.9881742,3052.4629469700217,d,1,0.4577930999803357,457.7930999803357,3051.9881742,3052.4629469700217,3052.4751497000107,3053.5608907699993,EMOCONPILOT017,2021_Feb_23_1508,EmoCon_Pilot_120Hz,2020.2.4,119.86570242119392,
,,,,1,0,1,0,14,0,14,0,,,,,,,,,,,,,,,,,,,,,,,,,,,,,,,,,,,,,,,,,,,,,,14,3.0,m,013_y_m_h_a.jpg,happy,d,17,2,3053.5650665999856,3053.860858269973,3054.1053753999877,3054.2724614699896,3054.277337000007,3054.3183126699937,3054.3232713000034,3054.6776189699945,d,1,0.3468021999578923,346.8021999578923,3054.3232713000034,3054.6776189699945,3054.6894591000164,3056.560814670002,EMOCONPILOT017,2021_Feb_23_1508,EmoCon_Pilot_120Hz,2020.2.4,119.86570242119392,
,,,,1,0,1,0,15,0,15,0,,,,,,,,,,,,,,,,,,,,,,,,,,,,,,,,,,,,,,,,,,,,,,15,11.0,f,030_o_f_n_a.jpg,neutral,s,17,2,3056.5647592000314,3056.860848870018,3057.0577628000174,3057.2174837699918,3057.2217277999735,3057.2629267699726,3057.2679031000007,3057.9758099700034,s,1,0.6979921000311151,697.9921000311151,3057.2679031000007,3057.9758099700034,3057.9874003999867,3059.660926970019,EMOCONPILOT017,2021_Feb_23_1508,EmoCon_Pilot_120Hz,2020.2.4,119.86570242119392,
,,,,1,0,1,0,16,0,16,0,,,,,,,,,,,,,,,,,,,,,,,,,,,,,,,,,,,,,,,,,,,,,,16,3.0,m,013_y_m_n_a.jpg,neutral,s,17,2,3059.665104200016,3059.960935870017,3060.194720499974,3060.352295270021,3060.357280600001,3060.3976927700046,3060.401994200016,3060.706671170023,s,1,0.29242220002925023,292.42220002925023,3060.401994200016,3060.706671170023,3060.717941700015,3062.1360065700196,EMOCONPILOT017,2021_Feb_23_1508,EmoCon_Pilot_120Hz,2020.2.4,119.86570242119392,
,,,,1,0,1,0,17,0,17,0,,,,,,,,,,,,,,,,,,,,,,,,,,,,,,,,,,,,,,,,,,,,,,17,9.0,f,021_o_f_h_a.jpg,happy,d,17,2,3062.141695099999,3062.4361132700055,3062.6372607999947,3062.807007269998,3062.810769499978,3062.851613070007,3062.856886000023,3063.213924670016,d,1,0.3489225000375882,348.9225000375882,3062.856886000023,3063.213924670016,3063.2186581999995,3064.6276921699814,EMOCONPILOT017,2021_Feb_23_1508,EmoCon_Pilot_120Hz,2020.2.4,119.86570242119392,
,,,,1,0,1,0,18,0,18,0,,,,,,,,,,,,,,,,,,,,,,,,,,,,,,,,,,,,,,,,,,,,,,18,3.0,m,013_y_m_s_a.jpg,sad,a,2,2,3064.632818699989,3064.9276989700215,3064.9505022999947,3064.966001069994,3064.9690819000243,3065.0059727699904,3065.0092070000246,3066.025088370027,s,0,1.0046386000467464,1004.6386000467464,3065.0092070000246,3066.025088370027,3066.0336469999747,3067.33607387002,EMOCONPILOT017,2021_Feb_23_1508,EmoCon_Pilot_120Hz,2020.2.4,119.86570242119392,
,,,,1,0,1,0,19,0,19,0,,,,,,,,,,,,,,,,,,,,,,,,,,,,,,,,,,,,,,,,,,,,,,19,10.0,f,028_y_f_h_a.jpg,happy,d,2,2,3067.3420547000133,3067.6361731700076,3067.656439399987,3067.6717481699948,3067.6724847999867,3067.707682869985,3067.707508600026,3068.284288469999,s,0,0.5623738000285812,562.3738000285812,3067.707508600026,3068.284288469999,3068.2947200000053,3069.302817669994,EMOCONPILOT017,2021_Feb_23_1508,EmoCon_Pilot_120Hz,2020.2.4,119.86570242119392,
,,,,1,0,1,0,20,0,20,0,,,,,,,,,,,,,,,,,,,,,,,,,,,,,,,,,,,,,,,,,,,,,,20,4.0,m,016_y_m_h_a.jpg,happy,d,2,2,3069.308208099974,3069.6029151700263,3069.62737609999,3069.642313470022,3069.6425960999914,3069.6790090699856,3069.6801859000116,3070.373551770003,s,0,0.6856841999688186,685.6841999688186,3069.6801859000116,3070.373551770003,3070.38107459998,3071.4111968699785,EMOCONPILOT017,2021_Feb_23_1508,EmoCon_Pilot_120Hz,2020.2.4,119.86570242119392,
,,,,1,0,1,0,21,0,21,0,,,,,,,,,,,,,,,,,,,,,,,,,,,,,,,,,,,,,,,,,,,,,,21,6.0,m,033_o_m_h_a.jpg,happy,d,2,2,3071.41658249998,3071.711195270013,3071.735289399978,3071.7503838699836,3071.7521922999877,3071.78879377002,3071.7902739000274,3072.431643370021,s,0,0.631531500024721,631.531500024721,3071.7902739000274,3072.431643370021,3072.439234199992,3073.6278951700137,EMOCONPILOT017,2021_Feb_23_1508,EmoCon_Pilot_120Hz,2020.2.4,119.86570242119392,
,,,,1,0,1,0,22,0,22,0,,,,,,,,,,,,,,,,,,,,,,,,,,,,,,,,,,,,,,,,,,,,,,22,5.0,m,027_o_m_s_a.jpg,sad,a,17,2,3073.633317700005,3073.9279244699924,3073.951024800015,3074.0881099699823,3074.092954099993,3074.133124070015,3074.1381600000313,3074.5731500699826,a,1,0.42791819997364655,427.91819997364655,3074.1381600000313,3074.5731500699826,3074.5859461000073,3076.1195763700002,EMOCONPILOT017,2021_Feb_23_1508,EmoCon_Pilot_120Hz,2020.2.4,119.86570242119392,
,,,,1,0,1,0,23,0,23,0,,,,,,,,,,,,,,,,,,,,,,,,,,,,,,,,,,,,,,,,,,,,,,23,10.0,f,028_y_f_n_a.jpg,neutral,s,2,2,3076.1246937999967,3076.4196796700185,3076.6414657999994,3076.657840669976,3076.6606491000275,3076.7011046700122,3076.705695700017,3077.7786541699957,s,1,1.0606474000378512,1060.6474000378512,3076.705695700017,3077.7786541699957,3077.790662400017,3079.661307370005,EMOCONPILOT017,2021_Feb_23_1508,EmoCon_Pilot_120Hz,2020.2.4,119.86570242119392,
,,,,1,0,1,0,24,0,24,0,,,,,,,,,,,,,,,,,,,,,,,,,,,,,,,,,,,,,,,,,,,,,,24,9.0,f,021_o_f_n_a.jpg,neutral,s,17,2,3079.666481100023,3079.9614023700183,3080.1638057000237,3080.319039069995,3080.3225508999894,3080.3592076699774,3080.36195510003,3081.0161091699906,s,1,0.6438898000051267,643.8898000051267,3080.36195510003,3081.0161091699906,3081.0249280999997,3082.2946651700245,EMOCONPILOT017,2021_Feb_23_1508,EmoCon_Pilot_120Hz,2020.2.4,119.86570242119392,
,,,,1,0,1,0,25,0,25,0,,,,,,,,,,,,,,,,,,,,,,,,,,,,,,,,,,,,,,,,,,,,,,25,8.0,f,019_m_f_h_a.jpg,happy,d,17,2,3082.300813900016,3082.594809370005,3082.6195613999735,3082.7547334699834,3082.7598553000134,3082.8004938699946,3082.8058477999875,3083.2213235700096,d,1,0.40795119997346774,407.95119997346774,3082.8058477999875,3083.2213235700096,3083.2280162000097,3084.5864520699893,EMOCONPILOT017,2021_Feb_23_1508,EmoCon_Pilot_120Hz,2020.2.4,119.86570242119392,
,,,,1,0,1,0,26,0,26,0,,,,,,,,,,,,,,,,,,,,,,,,,,,,,,,,,,,,,,,,,,,,,,26,4.0,m,016_y_m_n_a.jpg,neutral,s,17,2,3084.592622700031,3084.886442870024,3085.117745399999,3085.27782917,3085.28243750002,3085.3234100699833,3085.328777900024,3085.92733556999,s,1,0.5893050000304356,589.3050000304356,3085.328777900024,3085.92733556999,3085.9385870000115,3087.1531971700083,EMOCONPILOT017,2021_Feb_23_1508,EmoCon_Pilot_120Hz,2020.2.4,119.86570242119392,
,,,,1,0,1,0,27,0,27,0,,,,,,,,,,,,,,,,,,,,,,,,,,,,,,,,,,,,,,,,,,,,,,27,1.0,m,004_o_m_h_a.jpg,happy,d,17,2,3087.157783499977,3087.453007670009,3087.6394270000164,3087.7993027700054,3087.80410150002,3087.8451291699953,3087.850014500029,3088.2848924699997,d,1,0.42794610001146793,427.94610001146793,3087.850014500029,3088.2848924699997,3088.2965798000223,3090.211614270002,EMOCONPILOT017,2021_Feb_23_1508,EmoCon_Pilot_120Hz,2020.2.4,119.86570242119392,
,,,,1,0,1,0,28,0,28,0,,,,,,,,,,,,,,,,,,,,,,,,,,,,,,,,,,,,,,,,,,,,,,28,10.0,f,028_y_f_s_a.jpg,sad,a,2,2,3090.216875299986,3090.511503770022,3090.5248689000146,3090.5402666700015,3090.540786300029,3090.5794751700073,3090.58111129998,3091.1197054699937,s,0,0.5287185999914072,528.7185999914072,3090.58111129998,3091.1197054699937,3091.128840600024,3092.678335769981,EMOCONPILOT017,2021_Feb_23_1508,EmoCon_Pilot_120Hz,2020.2.4,119.86570242119392,
,,,,1,0,1,0,29,0,29,0,,,,,,,,,,,,,,,,,,,,,,,,,,,,,,,,,,,,,,,,,,,,,,29,5.0,m,027_o_m_h_a.jpg,happy,d,2,2,3092.6836813000264,3092.978294970008,3093.4638643999933,3093.482182769984,3093.484510499984,3093.521894269978,3093.5245497000287,3094.2142232700194,d,1,0.6733421999961138,673.3421999961138,3093.5245497000287,3094.2142232700194,3094.2207674999954,3095.9450548699883,EMOCONPILOT017,2021_Feb_23_1508,EmoCon_Pilot_120Hz,2020.2.4,119.86570242119392,
,,,,1,0,1,0,30,0,30,0,,,,,,,,,,,,,,,,,,,,,,,,,,,,,,,,,,,,,,,,,,,,,,30,10.0,f,028_y_f_h_a.jpg,happy,d,17,2,3095.950105900003,3096.2449774699694,3096.260985800007,3096.3966205699894,3096.399863400031,3096.437958669971,3096.4421358000254,3096.765345469996,d,1,0.31568140001036227,315.68140001036227,3096.4421358000254,3096.765345469996,3096.7777793999994,3098.2367173699954,EMOCONPILOT017,2021_Feb_23_1508,EmoCon_Pilot_120Hz,2020.2.4,119.86570242119392,
,,,,1,0,1,0,31,0,31,0,,,,,,,,,,,,,,,,,,,,,,,,,,,,,,,,,,,,,,,,,,,,,,31,5.0,m,027_o_m_h_a.jpg,happy,d,17,2,3098.242920299992,3098.5367212700135,3098.756712500006,3098.919447269995,3098.9241369999945,3098.966130769992,3098.9715210000286,3099.326022270025,d,1,0.33852350001689047,338.52350001689047,3098.9715210000286,3099.326022270025,3099.3374751000083,3101.011643769982,EMOCONPILOT017,2021_Feb_23_1508,EmoCon_Pilot_120Hz,2020.2.4,119.86570242119392,
,,,,1,0,1,0,32,0,32,0,,,,,,,,,,,,,,,,,,,,,,,,,,,,,,,,,,,,,,,,,,,,,,32,9.0,f,021_o_f_n_a.jpg,neutral,s,2,2,3101.014384099981,3101.3118084700022,3101.5224845000193,3101.5398682699947,3101.540219700022,3101.5768534700096,3101.577039399999,3102.254336669989,d,0,0.6689380999887362,668.9380999887362,3101.577039399999,3102.254336669989,3102.263741499977,3103.5952488699754,EMOCONPILOT017,2021_Feb_23_1508,EmoCon_Pilot_120Hz,2020.2.4,119.86570242119392,
,,,,1,0,1,0,33,0,33,0,,,,,,,,,,,,,,,,,,,,,,,,,,,,,,,,,,,,,,,,,,,,,,33,3.0,m,013_y_m_s_a.jpg,sad,a,2,2,3103.6009128000005,3103.895097069972,3103.9180628000177,3103.9332442699874,3103.9340248000226,3103.9713658699825,3103.971329000022,3104.5096989700164,s,0,0.5225568999885581,522.5568999885581,3103.971329000022,3104.5096989700164,3104.51798970002,3106.1451863700117,EMOCONPILOT017,2021_Feb_23_1508,EmoCon_Pilot_120Hz,2020.2.4,119.86570242119392,
,,,,1,0,1,0,34,0,34,0,,,,,,,,,,,,,,,,,,,,,,,,,,,,,,,,,,,,,,,,,,,,,,34,1.0,m,004_o_m_n_a.jpg,neutral,s,2,2,3106.1490022999933,3106.4452799700143,3106.649139099987,3106.6666142700183,3106.670684700017,3106.711554970016,3106.7166695999913,3107.4944352699736,s,1,0.7692873000050895,769.2873000050895,3106.7166695999913,3107.4944352699736,3107.506052199984,3108.5868926700264,EMOCONPILOT017,2021_Feb_23_1508,EmoCon_Pilot_120Hz,2020.2.4,119.86570242119392,
,,,,1,0,1,0,35,0,35,0,,,,,,,,,,,,,,,,,,,,,,,,,,,,,,,,,,,,,,,,,,,,,,35,12.0,f,040_y_f_h_a.jpg,happy,d,17,2,3108.5920177000226,3108.88698746998,3108.9154436999816,3109.04692336999,3109.048720200022,3109.088168670022,3109.0912404999835,3109.469345170021,d,1,0.37053060001926497,370.53060001926497,3109.0912404999835,3109.469345170021,3109.4776018999983,3110.936830869998,EMOCONPILOT017,2021_Feb_23_1508,EmoCon_Pilot_120Hz,2020.2.4,119.86570242119392,
,,,,1,0,1,0,36,0,36,0,,,,,,,,,,,,,,,,,,,,,,,,,,,,,,,,,,,,,,,,,,,,,,36,10.0,f,028_y_f_n_a.jpg,neutral,s,2,2,3110.9403110999847,3111.236912470026,3111.430616300029,3111.4477190700186,3111.4484109000186,3111.483980369993,3111.4835162999807,3112.4679071700143,s,1,0.9703044000198133,970.3044000198133,3111.4835162999807,3112.4679071700143,3112.4780234000064,3113.9037185700204,EMOCONPILOT017,2021_Feb_23_1508,EmoCon_Pilot_120Hz,2020.2.4,119.86570242119392,
,,,,1,0,1,0,37,0,37,0,,,,,,,,,,,,,,,,,,,,,,,,,,,,,,,,,,,,,,,,,,,,,,37,11.0,f,030_o_f_n_a.jpg,neutral,s,2,2,3113.9088094999897,3114.203668669978,3114.398715700023,3114.416259069991,3114.4171505999984,3114.454883969977,3114.4563972000033,3115.3374243700005,s,1,0.8695341999991797,869.5341999991797,3114.4563972000033,3115.3374243700005,3115.347394099983,3117.170426269999,EMOCONPILOT017,2021_Feb_23_1508,EmoCon_Pilot_120Hz,2020.2.4,119.86570242119392,
,,,,1,0,1,0,38,0,38,0,,,,,,,,,,,,,,,,,,,,,,,,,,,,,,,,,,,,,,,,,,,,,,38,1.0,m,004_o_m_h_a.jpg,happy,d,2,2,3117.176599700004,3117.4704170699756,3117.6650066000293,3117.682662469981,3117.68353759998,3117.7189101700264,3117.7191385999904,3118.502084670012,s,0,0.7668554999982007,766.8554999982007,3117.7191385999904,3118.502084670012,3118.5087618000107,3119.7871169699997,EMOCONPILOT017,2021_Feb_23_1508,EmoCon_Pilot_120Hz,2020.2.4,119.86570242119392,
,,,,1,0,1,0,39,0,39,0,,,,,,,,,,,,,,,,,,,,,,,,,,,,,,,,,,,,,,,,,,,,,,39,6.0,m,033_o_m_h_a.jpg,happy,d,17,2,3119.7922219000175,3120.0871126700135,3120.1046733999974,3120.238772069983,3120.243205100007,3120.2837928700087,3120.2892583999783,3120.65327517002,d,1,0.3487165999831632,348.7165999831632,3120.2892583999783,3120.65327517002,3120.6660715999897,3121.9954872700096,EMOCONPILOT017,2021_Feb_23_1508,EmoCon_Pilot_120Hz,2020.2.4,119.86570242119392,
,,,,1,0,1,0,40,0,40,0,,,,,,,,,,,,,,,,,,,,,,,,,,,,,,,,,,,,,,,,,,,,,,40,7.0,f,012_o_f_h_a.jpg,happy,d,17,2,3122.000623799977,3122.295478169987,3122.3107241999824,3122.447169270023,3122.4515626999782,3122.4923737699924,3122.497634999978,3122.7823401700066,d,1,0.27631049999035895,276.31049999035895,3122.497634999978,3122.7823401700066,3122.788672900002,3124.4204347700056,EMOCONPILOT017,2021_Feb_23_1508,EmoCon_Pilot_120Hz,2020.2.4,119.86570242119392,
,,,,1,0,1,0,41,0,41,0,,,,,,,,,,,,,,,,,,,,,,,,,,,,,,,,,,,,,,,,,,,,,,41,6.0,m,033_o_m_n_a.jpg,neutral,s,17,2,3124.4203256000183,3124.7205641699898,3124.9416297000134,3125.111230470013,3125.1161416000105,3125.157694070024,3125.1630953000276,3125.598209269991,s,1,0.41882010002154857,418.82010002154857,3125.1630953000276,3125.598209269991,3125.6094697000226,3127.2123165699945,EMOCONPILOT017,2021_Feb_23_1508,EmoCon_Pilot_120Hz,2020.2.4,119.86570242119392,
,,,,1,0,1,0,42,0,42,0,,,,,,,,,,,,,,,,,,,,,,,,,,,,,,,,,,,,,,,,,,,,,,42,7.0,f,012_o_f_h_a.jpg,happy,d,17,2,3127.2177670000237,3127.5122454700236,3127.536509400001,3127.6723596699944,3127.676158600021,3127.7144204700076,3127.7186270999955,3128.1638441699965,d,1,0.431217800010927,431.217800010927,3127.7186270999955,3128.1638441699965,3128.174227999989,3129.2706987700135,EMOCONPILOT017,2021_Feb_23_1508,EmoCon_Pilot_120Hz,2020.2.4,119.86570242119392,
,,,,1,0,1,0,43,0,43,0,,,,,,,,,,,,,,,,,,,,,,,,,,,,,,,,,,,,,,,,,,,,,,43,5.0,m,027_o_m_h_a.jpg,happy,d,2,2,3129.276866899978,3129.5706433699875,3129.796780399978,3129.8138658700104,3129.8141752000083,3129.848791169998,3129.8486842000275,3130.488469470007,s,0,0.6292188999941573,629.2188999941573,3129.8486842000275,3130.488469470007,3130.497884100012,3131.9206271700155,EMOCONPILOT017,2021_Feb_23_1508,EmoCon_Pilot_120Hz,2020.2.4,119.86570242119392,
,,,,1,0,1,0,44,0,44,0,,,,,,,,,,,,,,,,,,,,,,,,,,,,,,,,,,,,,,,,,,,,,,44,10.0,f,028_y_f_s_a.jpg,sad,a,2,2,3131.924581900006,3132.220740569994,3132.241029899975,3132.25625187002,3132.257059400028,3132.2923543700076,3132.2922544999747,3132.7421221699974,s,0,0.4417038999963552,441.7038999963552,3132.2922544999747,3132.7421221699974,3132.7522535999888,3133.77900637,EMOCONPILOT017,2021_Feb_23_1508,EmoCon_Pilot_120Hz,2020.2.4,119.86570242119392,
,,,,1,0,1,0,45,0,45,0,,,,,,,,,,,,,,,,,,,,,,,,,,,,,,,,,,,,,,,,,,,,,,45,7.0,f,012_o_f_n_a.jpg,neutral,s,17,2,3133.783151599986,3134.0791094700166,3134.282846499991,3134.449223070004,3134.4544639000087,3134.4950184699906,3134.500167899998,3134.873376370006,s,1,0.36192379996646196,361.92379996646196,3134.500167899998,3134.873376370006,3134.885968399991,3136.395743770007,EMOCONPILOT017,2021_Feb_23_1508,EmoCon_Pilot_120Hz,2020.2.4,119.86570242119392,
,,,,1,0,1,0,46,0,46,0,,,,,,,,,,,,,,,,,,,,,,,,,,,,,,,,,,,,,,,,,,,,,,46,1.0,m,004_o_m_n_a.jpg,neutral,s,2,2,3136.3998150000116,3136.695716570021,3136.896584299975,3136.9140087699693,3136.9148692999734,3136.9498564699957,3136.950541600003,3137.4473353700073,s,1,0.47940950002521276,479.40950002521276,3136.950541600003,3137.4473353700073,3137.4583587999805,3139.3457201700135,EMOCONPILOT017,2021_Feb_23_1508,EmoCon_Pilot_120Hz,2020.2.4,119.86570242119392,
,,,,1,0,1,0,47,0,47,0,,,,,,,,,,,,,,,,,,,,,,,,,,,,,,,,,,,,,,,,,,,,,,47,9.0,f,021_o_f_h_a.jpg,happy,d,2,2,3139.3486594000133,3139.645772769995,3139.8537524000276,3139.871026769985,3139.8711552000022,3139.906723370025,3139.906436500023,3141.550383869972,None,0,,,3139.906436500023,3141.550383869972,3141.557603400026,3142.7709159699793,EMOCONPILOT017,2021_Feb_23_1508,EmoCon_Pilot_120Hz,2020.2.4,119.86570242119392,
,,,,1,0,1,0,48,0,48,0,,,,,,,,,,,,,,,,,,,,,,,,,,,,,,,,,,,,,,,,,,,,,,48,10.0,f,028_y_f_n_a.jpg,neutral,s,2,2,3142.7764077999745,3143.0709128700023,3143.2702999999747,3143.2867299700215,3143.2877336000092,3143.3228853700043,3143.323770500021,3144.4241526700266,s,1,1.0899422999937087,1089.9422999937087,3143.323770500021,3144.4241526700266,3144.4306350999977,3145.520964970003,EMOCONPILOT017,2021_Feb_23_1508,EmoCon_Pilot_120Hz,2020.2.4,119.86570242119392,
,,,,1,0,1,0,49,0,49,0,,,,,,,,,,,,,,,,,,,,,,,,,,,,,,,,,,,,,,,,,,,,,,49,7.0,f,012_o_f_h_a.jpg,happy,d,17,2,3145.526416799985,3145.8210432700057,3145.8435711999773,3145.9819574700145,3145.982579100004,3146.0221850699804,3146.023741699988,3146.4116543699697,d,1,0.3740091999643482,374.0091999643482,3146.023741699988,3146.4116543699697,3146.4208638999844,3147.871069370018,EMOCONPILOT017,2021_Feb_23_1508,EmoCon_Pilot_120Hz,2020.2.4,119.86570242119392,
,,,,1,0,1,0,50,0,50,0,,,,,,,,,,,,,,,,,,,,,,,,,,,,,,,,,,,,,,,,,,,,,,50,5.0,m,027_o_m_h_a.jpg,happy,d,2,2,3147.8768168999813,3148.171014069993,3148.393899900024,3148.410550470004,3148.411244000017,3148.4471798699874,3148.4471803000197,3149.309604669985,s,0,0.846667299978435,846.667299978435,3148.4471803000197,3149.309604669985,3149.319077000022,3150.4960120699893,EMOCONPILOT017,2021_Feb_23_1508,EmoCon_Pilot_120Hz,2020.2.4,119.86570242119392,
,,,,1,0,1,0,51,0,51,0,,,,,,,,,,,,,,,,,,,,,,,,,,,,,,,,,,,,,,,,,,,,,,51,12.0,f,040_y_f_n_a.jpg,neutral,s,17,2,3150.5002776000183,3150.796004869981,3151.0141317999805,3151.1775382700202,3151.178033299977,3151.2138471700077,3151.2140305999783,3151.7325649699837,s,1,0.5039678000030108,503.9678000030108,3151.2140305999783,3151.7325649699837,3151.741885400028,3153.3711069700134,EMOCONPILOT017,2021_Feb_23_1508,EmoCon_Pilot_120Hz,2020.2.4,119.86570242119392,
,,,,1,0,1,0,52,0,52,0,,,,,,,,,,,,,,,,,,,,,,,,,,,,,,,,,,,,,,,,,,,,,,52,2.0,m,008_y_m_h_a.jpg,happy,d,2,2,3153.3762498000287,3153.6711005700113,3153.6844455000246,3153.6994844700152,3153.699572200014,3153.7390525700234,3153.7403588999878,3155.0398438699835,d,1,1.2895655000465922,1289.5655000465922,3153.7403588999878,3155.0398438699835,3155.0513742999756,3156.596274969989,EMOCONPILOT017,2021_Feb_23_1508,EmoCon_Pilot_120Hz,2020.2.4,119.86570242119392,
,,,,1,0,1,0,53,0,53,0,,,,,,,,,,,,,,,,,,,,,,,,,,,,,,,,,,,,,,,,,,,,,,53,6.0,m,033_o_m_h_a.jpg,happy,d,2,2,3156.6018695000093,3156.896166170022,3156.916826599976,3156.9322852700193,3156.933005400002,3156.9690701700224,3156.969653500011,3157.7894485700003,d,1,0.8121017999947071,812.1017999947071,3156.969653500011,3157.7894485700003,3157.797092200024,3158.812919770024,EMOCONPILOT017,2021_Feb_23_1508,EmoCon_Pilot_120Hz,2020.2.4,119.86570242119392,
,,,,1,0,1,0,54,0,54,0,,,,,,,,,,,,,,,,,,,,,,,,,,,,,,,,,,,,,,,,,,,,,,54,2.0,m,008_y_m_h_a.jpg,happy,d,2,2,3158.817995499994,3159.112945569976,3159.1343171999906,3159.1496747700207,3159.1498528000084,3159.184939569974,3159.184724599996,3160.2680478700263,s,0,1.0692272000014782,1069.2272000014782,3159.184724599996,3160.2680478700263,3160.276408399979,3162.1962572700054,EMOCONPILOT017,2021_Feb_23_1508,EmoCon_Pilot_120Hz,2020.2.4,119.86570242119392,
,,,,1,0,1,0,55,0,55,0,,,,,,,,,,,,,,,,,,,,,,,,,,,,,,,,,,,,,,,,,,,,,,55,12.0,f,040_y_f_h_a.jpg,happy,d,17,2,3162.2012745999964,3162.496259270009,3162.5206786000053,3162.656232070009,3162.6565197000164,3162.697570569994,3162.6985949000227,3164.378672569996,None,0,,,3162.6985949000227,3164.378672569996,3164.3828355000005,3166.263108970021,EMOCONPILOT017,2021_Feb_23_1508,EmoCon_Pilot_120Hz,2020.2.4,119.86570242119392,
,,,,1,0,1,0,56,0,56,0,,,,,,,,,,,,,,,,,,,,,,,,,,,,,,,,,,,,,,,,,,,,,,56,10.0,f,028_y_f_n_a.jpg,neutral,s,2,2,3166.269077999983,3166.5630562700157,3166.776339599979,3166.7929159699765,3166.793467100011,3166.8308785699833,3166.832302100025,3167.5653965700244,s,1,0.7254077999969013,725.4077999969013,3166.832302100025,3167.5653965700244,3167.5747053999803,3168.7880876699987,EMOCONPILOT017,2021_Feb_23_1508,EmoCon_Pilot_120Hz,2020.2.4,119.86570242119392,
,,,,1,0,1,0,57,0,57,0,,,,,,,,,,,,,,,,,,,,,,,,,,,,,,,,,,,,,,,,,,,,,,57,12.0,f,040_y_f_s_a.jpg,sad,a,17,2,3168.793442299997,3169.088178869983,3169.1145288000116,3169.2482469700103,3169.2527805999853,3169.2936583699834,3169.298822199984,3169.765008969995,a,1,0.45109769998816773,451.09769998816773,3169.298822199984,3169.765008969995,3169.7763602000196,3170.9797217699875,EMOCONPILOT017,2021_Feb_23_1508,EmoCon_Pilot_120Hz,2020.2.4,119.86570242119392,
,,,,1,0,1,0,58,0,58,0,,,,,,,,,,,,,,,,,,,,,,,,,,,,,,,,,,,,,,,,,,,,,,58,5.0,m,027_o_m_n_a.jpg,neutral,s,2,2,3170.983715599985,3171.2797413700087,3171.488473400008,3171.5054914699926,3171.5058462999878,3171.5399607700006,3171.5403449999867,3172.125744769996,s,1,0.5774449000018649,577.4449000018649,3171.5403449999867,3172.125744769996,3172.132407900004,3173.8715430700163,EMOCONPILOT017,2021_Feb_23_1508,EmoCon_Pilot_120Hz,2020.2.4,119.86570242119392,
,,,,1,0,1,0,59,0,59,0,,,,,,,,,,,,,,,,,,,,,,,,,,,,,,,,,,,,,,,,,,,,,,59,4.0,m,016_y_m_s_a.jpg,sad,a,17,2,3173.8768733000034,3174.171421570011,3174.183988899982,3174.3147532700154,3174.317842199991,3174.356127069978,3174.3592818999896,3174.8839822699724,a,1,0.5105444000218995,510.5444000218995,3174.3592818999896,3174.8839822699724,3174.893184299988,3176.238186370005,EMOCONPILOT017,2021_Feb_23_1508,EmoCon_Pilot_120Hz,2020.2.4,119.86570242119392,
,,,,1,0,1,0,60,0,60,0,,,,,,,,,,,,,,,,,,,,,,,,,,,,,,,,,,,,,,,,,,,,,,60,5.0,m,027_o_m_n_a.jpg,neutral,s,2,2,3176.2424248000025,3176.5381755699696,3176.740442999988,3176.7579903699866,3176.76227549999,3176.803107469989,3176.8080222000135,3177.3735453700124,s,1,0.5578932000207715,557.8932000207715,3176.8080222000135,3177.3735453700124,3177.3860083000036,3178.546543370007,EMOCONPILOT017,2021_Feb_23_1508,EmoCon_Pilot_120Hz,2020.2.4,119.86570242119392,
,,,,1,0,1,0,61,0,61,0,,,,,,,,,,,,,,,,,,,,,,,,,,,,,,,,,,,,,,,,,,,,,,61,10.0,f,028_y_f_s_a.jpg,sad,a,2,2,3178.5512344000163,3178.8466203699995,3178.8681850000285,3178.8837612699776,3178.8847393000033,3178.9228171699856,3178.9239772,3179.7735781699944,s,0,0.8419348999741487,841.9348999741487,3178.9239772,3179.7735781699944,3179.780696199974,3181.3382980700176,EMOCONPILOT017,2021_Feb_23_1508,EmoCon_Pilot_120Hz,2020.2.4,119.86570242119392,
,,,,1,0,1,0,62,0,62,0,,,,,,,,,,,,,,,,,,,,,,,,,,,,,,,,,,,,,,,,,,,,,,62,3.0,m,013_y_m_n_a.jpg,neutral,s,17,2,3181.3437597000157,3181.638313470007,3181.8749554000096,3182.0263679699915,3182.0268187000183,3182.064558969991,3182.067535499984,3182.653116069973,s,1,0.5781701999949291,578.1701999949291,3182.067535499984,3182.653116069973,3182.659682800004,3184.4384244700254,EMOCONPILOT017,2021_Feb_23_1508,EmoCon_Pilot_120Hz,2020.2.4,119.86570242119392,
,,,,1,0,1,0,63,0,63,0,,,,,,,,,,,,,,,,,,,,,,,,,,,,,,,,,,,,,,,,,,,,,,63,4.0,m,016_y_m_s_a.jpg,sad,a,2,2,3184.442319500027,3184.7383200699755,3184.759373400011,3184.7752481700213,3184.775934699981,3184.811680070014,3184.813313300023,3185.311656870012,s,0,0.48852690000785515,488.52690000785515,3184.813313300023,3185.311656870012,3185.321136899991,3186.688456469978,EMOCONPILOT017,2021_Feb_23_1508,EmoCon_Pilot_120Hz,2020.2.4,119.86570242119392,
,,,,1,0,1,0,64,0,64,0,,,,,,,,,,,,,,,,,,,,,,,,,,,,,,,,,,,,,,,,,,,,,,64,12.0,f,040_y_f_h_a.jpg,happy,d,17,2,3186.689080299984,3186.9884990699998,3187.0214337999932,3187.156636670005,3187.1599436000106,3187.1979431699788,3187.2007009999943,3187.6350242699905,d,1,0.42103720002342016,421.03720002342016,3187.2007009999943,3187.6350242699905,3187.643358399975,3189.480089969997,EMOCONPILOT017,2021_Feb_23_1508,EmoCon_Pilot_120Hz,2020.2.4,119.86570242119392,
,,,,1,0,1,0,65,0,65,0,,,,,,,,,,,,,,,,,,,,,,,,,,,,,,,,,,,,,,,,,,,,,,65,5.0,m,027_o_m_n_a.jpg,neutral,s,17,2,3189.4842543000123,3189.780109270016,3189.9874373999774,3190.156757569994,3190.161377899989,3190.20215406997,3190.207435199991,3190.8149351700035,s,1,0.5904059000313282,590.4059000313282,3190.207435199991,3190.8149351700035,3190.8261202999856,3192.438486769976,EMOCONPILOT017,2021_Feb_23_1508,EmoCon_Pilot_120Hz,2020.2.4,119.86570242119392,
,,,,1,0,1,0,66,0,66,0,,,,,,,,,,,,,,,,,,,,,,,,,,,,,,,,,,,,,,,,,,,,,,66,6.0,m,033_o_m_s_a.jpg,sad,a,17,2,3192.4430957000004,3192.738507670007,3192.760601499991,3192.898586670001,3192.903483400005,3192.944129969989,3192.949218900001,3193.961265770026,s,0,1.0007412999984808,1000.7412999984808,3192.949218900001,3193.961265770026,3193.9679237999953,3194.9718889700075,EMOCONPILOT017,2021_Feb_23_1508,EmoCon_Pilot_120Hz,2020.2.4,119.86570242119392,
,,,,1,0,1,0,67,0,67,0,,,,,,,,,,,,,,,,,,,,,,,,,,,,,,,,,,,,,,,,,,,,,,67,6.0,m,033_o_m_h_a.jpg,happy,d,17,2,3194.9751362000243,3195.2720297700203,3195.30060279998,3195.4319596699847,3195.433995599975,3195.4732002699807,3195.4752479000017,3195.83809197002,d,1,0.3465128999669105,346.5128999669105,3195.4752479000017,3195.83809197002,3195.845289900026,3196.997018969973,EMOCONPILOT017,2021_Feb_23_1508,EmoCon_Pilot_120Hz,2020.2.4,119.86570242119392,
,,,,1,0,1,0,68,0,68,0,,,,,,,,,,,,,,,,,,,,,,,,,,,,,,,,,,,,,,,,,,,,,,68,2.0,m,008_y_m_s_a.jpg,sad,a,17,2,3197.002360899991,3197.2970681699867,3197.6456948000123,3197.801965570025,3197.8070551999845,3197.8479031699885,3197.8529912999948,3198.358929370012,a,1,0.4969940999872051,496.9940999872051,3197.8529912999948,3198.358929370012,3198.3707102999906,3199.8552771700256,EMOCONPILOT017,2021_Feb_23_1508,EmoCon_Pilot_120Hz,2020.2.4,119.86570242119392,
,,,,1,0,1,0,69,0,69,0,,,,,,,,,,,,,,,,,,,,,,,,,,,,,,,,,,,,,,,,,,,,,,69,1.0,m,004_o_m_n_a.jpg,neutral,s,17,2,3199.858076500008,3200.15524346999,3200.356053400028,3200.5142905699963,3200.519337399979,3200.559891970019,3200.564986400015,3201.1015624699708,s,1,0.5208126000361517,520.8126000361517,3200.564986400015,3201.1015624699708,3201.112044300011,3202.7888044699853,EMOCONPILOT017,2021_Feb_23_1508,EmoCon_Pilot_120Hz,2020.2.4,119.86570242119392,
,,,,1,0,1,0,70,0,70,0,,,,,,,,,,,,,,,,,,,,,,,,,,,,,,,,,,,,,,,,,,,,,,70,2.0,m,008_y_m_s_a.jpg,sad,a,17,2,3202.7944248000276,3203.0887246700063,3203.3200988000026,3203.474632970005,3203.4793003000086,3203.5202381699987,3203.525279499998,3203.9916383699806,a,1,0.44869190000463277,448.69190000463277,3203.525279499998,3203.9916383699806,3204.0019949999987,3205.1970969699964,EMOCONPILOT017,2021_Feb_23_1508,EmoCon_Pilot_120Hz,2020.2.4,119.86570242119392,
,,,,1,0,1,0,71,0,71,0,,,,,,,,,,,,,,,,,,,,,,,,,,,,,,,,,,,,,,,,,,,,,,71,11.0,f,030_o_f_n_a.jpg,neutral,s,2,2,3205.1976015000255,3205.4971994700086,3205.7082368999836,3205.72564137,3205.7291465000017,3205.7692991700083,3205.774471200013,3207.3737993700256,a,0,1.5831599000375718,1583.1599000375718,3205.774471200013,3207.3737993700256,3207.3819814000162,3209.063937269972,EMOCONPILOT017,2021_Feb_23_1508,EmoCon_Pilot_120Hz,2020.2.4,119.86570242119392,
,,,,1,0,1,0,72,0,72,0,,,,,,,,,,,,,,,,,,,,,,,,,,,,,,,,,,,,,,,,,,,,,,72,11.0,f,030_o_f_n_a.jpg,neutral,s,17,2,3209.0692653000006,3209.363944170013,3209.5675037999754,3209.7293512700185,3209.734039300005,3209.774972270016,3209.7804200000246,3210.4694119700057,a,0,0.6814527999958955,681.4527999958955,3209.7804200000246,3210.4694119700057,3210.480184199987,3211.4722036700173,EMOCONPILOT017,2021_Feb_23_1508,EmoCon_Pilot_120Hz,2020.2.4,119.86570242119392,
,,,,1,0,1,0,73,0,73,0,,,,,,,,,,,,,,,,,,,,,,,,,,,,,,,,,,,,,,,,,,,,,,73,2.0,m,008_y_m_s_a.jpg,sad,a,2,2,3211.475465400028,3211.772142670007,3212.008455400006,3212.025177770009,3212.02541870001,3212.0600231699705,3212.059649600007,3213.1250047700073,a,1,1.0500867000082508,1050.0867000082508,3212.059649600007,3213.1250047700073,3213.131476200011,3214.672405369993,EMOCONPILOT017,2021_Feb_23_1508,EmoCon_Pilot_120Hz,2020.2.4,119.86570242119392,
,,,,1,0,1,0,74,0,74,0,,,,,,,,,,,,,,,,,,,,,,,,,,,,,,,,,,,,,,,,,,,,,,74,11.0,f,030_o_f_n_a.jpg,neutral,s,2,2,3214.677933400031,3214.972322669992,3215.1772160999826,3215.1943720699696,3215.1952194999903,3215.2317439700187,3215.231869500014,3215.9263709699794,s,1,0.6780774000217207,678.0774000217207,3215.231869500014,3215.9263709699794,3215.935335999995,3217.1139521700156,EMOCONPILOT017,2021_Feb_23_1508,EmoCon_Pilot_120Hz,2020.2.4,119.86570242119392,
,,,,1,0,1,0,75,0,75,0,,,,,,,,,,,,,,,,,,,,,,,,,,,,,,,,,,,,,,,,,,,,,,75,1.0,m,004_o_m_s_a.jpg,sad,a,17,2,3217.1164524999913,3217.413903669984,3217.435205899994,3217.565767569997,3217.570070900023,3217.6112080700173,3217.6163314000005,3218.0838399700065,a,1,0.45350139995571226,453.50139995571226,3217.6163314000005,3218.0838399700065,3218.0951477999915,3219.7223394700036,EMOCONPILOT017,2021_Feb_23_1508,EmoCon_Pilot_120Hz,2020.2.4,119.86570242119392,
,,,,1,0,1,0,76,0,76,0,,,,,,,,,,,,,,,,,,,,,,,,,,,,,,,,,,,,,,,,,,,,,,76,3.0,m,013_y_m_n_a.jpg,neutral,s,17,2,3219.726467599976,3220.022385469993,3220.266717099992,3220.4227039699967,3220.4277827999904,3220.468563070003,3220.473251299991,3221.038086769992,s,1,0.55651789996773,556.51789996773,3220.473251299991,3221.038086769992,3221.0482967999997,3222.3308270699986,EMOCONPILOT017,2021_Feb_23_1508,EmoCon_Pilot_120Hz,2020.2.4,119.86570242119392,
,,,,1,0,1,0,77,0,77,0,,,,,,,,,,,,,,,,,,,,,,,,,,,,,,,,,,,,,,,,,,,,,,77,7.0,f,012_o_f_s_a.jpg,sad,a,2,2,3222.3361274999916,3222.6307459700097,3222.644394200004,3222.659441770002,3222.6595809999853,3222.6986913699716,3222.699978800025,3223.2596770700243,s,0,0.5457169999717735,545.7169999717735,3222.699978800025,3223.2596770700243,3223.2682371999836,3225.039182670013,EMOCONPILOT017,2021_Feb_23_1508,EmoCon_Pilot_120Hz,2020.2.4,119.86570242119392,
,,,,1,0,1,0,78,0,78,0,,,,,,,,,,,,,,,,,,,,,,,,,,,,,,,,,,,,,,,,,,,,,,78,12.0,f,040_y_f_n_a.jpg,neutral,s,2,2,3225.0452208999777,3225.33917617001,3225.563444300031,3225.5799677699747,3225.580880400026,3225.616140769975,3225.615745200019,3226.453225169977,s,1,0.8299673000001349,829.9673000001349,3225.615745200019,3226.453225169977,3226.4627389999805,3227.8641568700027,EMOCONPILOT017,2021_Feb_23_1508,EmoCon_Pilot_120Hz,2020.2.4,119.86570242119392,
,,,,1,0,1,0,79,0,79,0,,,,,,,,,,,,,,,,,,,,,,,,,,,,,,,,,,,,,,,,,,,,,,79,6.0,m,033_o_m_h_a.jpg,happy,d,17,2,3227.8680958999903,3228.1641522700143,3228.1766511999886,3228.3076602700226,3228.3105289000086,3228.3497675699823,3228.354801299982,3228.749085069989,d,1,0.38707460003206506,387.07460003206506,3228.354801299982,3228.749085069989,3228.756726499996,3230.4809249700106,EMOCONPILOT017,2021_Feb_23_1508,EmoCon_Pilot_120Hz,2020.2.4,119.86570242119392,
,,,,1,0,1,0,80,0,80,0,,,,,,,,,,,,,,,,,,,,,,,,,,,,,,,,,,,,,,,,,,,,,,80,2.0,m,008_y_m_n_a.jpg,neutral,s,17,2,3230.4849623999908,3230.7810300699844,3231.024526400026,3231.19378747,3231.1983044000226,3231.2388090699737,3231.2439033000264,3231.67918416998,s,1,0.417999500001315,417.999500001315,3231.2439033000264,3231.67918416998,3231.6913254000247,3233.0975973699883,EMOCONPILOT017,2021_Feb_23_1508,EmoCon_Pilot_120Hz,2020.2.4,119.86570242119392,
,,,,1,0,1,0,81,0,81,0,,,,,,,,,,,,,,,,,,,,,,,,,,,,,,,,,,,,,,,,,,,,,,81,12.0,f,040_y_f_h_a.jpg,happy,d,17,2,3233.10159570002,3233.397661069996,3233.4221560999868,3233.5576775699797,3233.5610098000034,3233.6016694699706,3233.607010699983,3234.021840869979,d,1,0.4068717999616638,406.8717999616638,3233.607010699983,3234.021840869979,3234.0321787000285,3235.21427796997,EMOCONPILOT017,2021_Feb_23_1508,EmoCon_Pilot_120Hz,2020.2.4,119.86570242119392,
,,,,1,0,1,0,82,0,82,0,,,,,,,,,,,,,,,,,,,,,,,,,,,,,,,,,,,,,,,,,,,,,,82,9.0,f,021_o_f_h_a.jpg,happy,d,2,2,3235.2142699999968,3235.5143455700077,3235.7322826000163,3235.7494695700066,3235.7501635000226,3235.789554769994,3235.7945176999783,3236.3317608700077,s,0,0.5231981999822892,523.1981999822892,3235.7945176999783,3236.3317608700077,3236.3429373999825,3238.0311638700136,EMOCONPILOT017,2021_Feb_23_1508,EmoCon_Pilot_120Hz,2020.2.4,119.86570242119392,
,,,,1,0,1,0,83,0,83,0,,,,,,,,,,,,,,,,,,,,,,,,,,,,,,,,,,,,,,,,,,,,,,83,6.0,m,033_o_m_h_a.jpg,happy,d,17,2,3238.037073799991,3238.331069669983,3238.3525475999922,3238.4826902700065,3238.485860500019,3238.5240666699888,3238.52767879999,3238.9752761700133,d,1,0.4378877999843098,437.8877999843098,3238.52767879999,3238.9752761700133,3238.9796838000184,3240.889463069971,EMOCONPILOT017,2021_Feb_23_1508,EmoCon_Pilot_120Hz,2020.2.4,119.86570242119392,
,,,,1,0,1,0,84,0,84,0,,,,,,,,,,,,,,,,,,,,,,,,,,,,,,,,,,,,,,,,,,,,,,84,2.0,m,008_y_m_n_a.jpg,neutral,s,17,2,3240.894914400007,3241.1894709700196,3241.4259113000007,3241.584746569983,3241.5895852000103,3241.6304368699844,3241.6355406999937,3242.2398781700235,s,1,0.5941331000067294,594.1331000067294,3241.6355406999937,3242.2398781700235,3242.2480868999846,3244.0728326700105,EMOCONPILOT017,2021_Feb_23_1508,EmoCon_Pilot_120Hz,2020.2.4,119.86570242119392,
,,,,1,0,1,0,85,0,85,0,,,,,,,,,,,,,,,,,,,,,,,,,,,,,,,,,,,,,,,,,,,,,,85,10.0,f,028_y_f_n_a.jpg,neutral,s,17,2,3244.0771067999885,3244.372833770007,3244.574254599982,3244.7277418699873,3244.732569899992,3244.773405170016,3244.7784633000265,3245.2548860699812,s,1,0.4595022000139579,459.5022000139579,3244.7784633000265,3245.2548860699812,3245.2673615000094,3246.5396776699986,EMOCONPILOT017,2021_Feb_23_1508,EmoCon_Pilot_120Hz,2020.2.4,119.86570242119392,
,,,,1,0,1,0,86,0,86,0,,,,,,,,,,,,,,,,,,,,,,,,,,,,,,,,,,,,,,,,,,,,,,86,6.0,m,033_o_m_h_a.jpg,happy,d,17,2,3246.5456985000055,3246.8395597700205,3246.8547761000227,3246.9911952699827,3246.991282599978,3247.032606469997,3247.0327411000035,3247.3577859699785,d,1,0.31734069995582104,317.34069995582104,3247.0327411000035,3247.3577859699785,3247.36989989999,3248.5229092700233,EMOCONPILOT017,2021_Feb_23_1508,EmoCon_Pilot_120Hz,2020.2.4,119.86570242119392,
,,,,1,0,1,0,87,0,87,0,,,,,,,,,,,,,,,,,,,,,,,,,,,,,,,,,,,,,,,,,,,,,,87,5.0,m,027_o_m_s_a.jpg,sad,a,17,2,3248.527104699984,3248.822933970025,3248.8441675999784,3248.974575769977,3248.9774791999953,3249.015839069971,3249.0184125999804,3249.6168418700167,a,1,0.5872882000403479,587.2882000403479,3249.0184125999804,3249.6168418700167,3249.62632510002,3250.956316870003,EMOCONPILOT017,2021_Feb_23_1508,EmoCon_Pilot_120Hz,2020.2.4,119.86570242119392,
,,,,1,0,1,0,88,0,88,0,,,,,,,,,,,,,,,,,,,,,,,,,,,,,,,,,,,,,,,,,,,,,,88,7.0,f,012_o_f_s_a.jpg,sad,a,2,2,3250.9616602000315,3251.256432970002,3251.277978600003,3251.2937817699917,3251.2945955999894,3251.3324498700154,3251.3325233000214,3252.356971370004,s,0,1.0091973000089638,1009.1973000089638,3251.3325233000214,3252.356971370004,3252.3660543999868,3253.756379069999,EMOCONPILOT017,2021_Feb_23_1508,EmoCon_Pilot_120Hz,2020.2.4,119.86570242119392,
,,,,1,0,1,0,89,0,89,0,,,,,,,,,,,,,,,,,,,,,,,,,,,,,,,,,,,,,,,,,,,,,,89,2.0,m,008_y_m_h_a.jpg,happy,d,17,2,3253.7618348000105,3254.0564399699856,3254.081347899977,3254.216359669989,3254.2197966999956,3254.2576641700057,3254.2601296000066,3254.7440474699893,d,1,0.47343340003862977,473.43340003862977,3254.2601296000066,3254.7440474699893,3254.7487942000153,3255.8232114699845,EMOCONPILOT017,2021_Feb_23_1508,EmoCon_Pilot_120Hz,2020.2.4,119.86570242119392,
,,,,1,0,1,0,90,0,90,0,,,,,,,,,,,,,,,,,,,,,,,,,,,,,,,,,,,,,,,,,,,,,,90,7.0,f,012_o_f_h_a.jpg,happy,d,17,2,3255.8288526000106,3256.1232044699777,3256.1478839999763,3256.283126269997,3256.2865784000023,3256.3242691700057,3256.3279175999924,3256.6775141700114,d,1,0.34172869997564703,341.72869997564703,3256.3279175999924,3256.6775141700114,3256.687085099984,3257.956544269988,EMOCONPILOT017,2021_Feb_23_1508,EmoCon_Pilot_120Hz,2020.2.4,119.86570242119392,
,,,,1,0,1,0,91,0,91,0,,,,,,,,,,,,,,,,,,,,,,,,,,,,,,,,,,,,,,,,,,,,,,91,10.0,f,028_y_f_s_a.jpg,sad,a,2,2,3257.961635500018,3258.2564527699783,3258.2776228000293,3258.2934300699912,3258.2938898000284,3258.330179570016,3258.329774199985,3258.8931393700245,s,0,0.5480149000068195,548.0149000068195,3258.329774199985,3258.8931393700245,3258.9044472000096,3260.389884569979,EMOCONPILOT017,2021_Feb_23_1508,EmoCon_Pilot_120Hz,2020.2.4,119.86570242119392,
,,,,1,0,1,0,92,0,92,0,,,,,,,,,,,,,,,,,,,,,,,,,,,,,,,,,,,,,,,,,,,,,,92,12.0,f,040_y_f_s_a.jpg,sad,a,17,2,3260.395782399981,3260.6898775699724,3260.706120399991,3260.8415758700053,3260.846047499974,3260.8869871699776,3260.892224900017,3261.2939704699734,a,1,0.3935304000042379,393.5304000042379,3260.892224900017,3261.2939704699734,3261.3032292000134,3263.16483837,EMOCONPILOT017,2021_Feb_23_1508,EmoCon_Pilot_120Hz,2020.2.4,119.86570242119392,
