trials_example.thisRepN,trials_example.thisTrialN,trials_example.thisN,trials_example.thisIndex,block.thisRepN,block.thisTrialN,block.thisN,block.thisIndex,trials_study.thisRepN,trials_study.thisTrialN,trials_study.thisN,trials_study.thisIndex,text_welcome.started,text_welcome.stopped,text_intro.started,text_intro.stopped,key_resp_intro.keys,key_resp_intro.started,key_resp_intro.stopped,text_intro2.started,text_intro2.stopped,key_resp_intro2.keys,key_resp_intro2.rt,key_resp_intro2.started,key_resp_intro2.stopped,example trial,personPrimeExample,genderPrimeExample,primeExample,emotionPrimeExample,corrAnsPrimeExample,example mask time,fix300_example.started,fix300_example.stopped,image_primer_example.started,image_primer_example.stopped,scrambled.started,scrambled.stopped,text_response_example.started,text_response_example.stopped,key_resp_example.keys,key_resp_example.corr,key_resp_example.started,key_resp_example.stopped,Jitter_example.started,Jitter_example.stopped,key_resp_example.rt,key_resp_example.rt in ms,text_start.started,text_start.stopped,text_pause.started,text_pause.stopped,key_resp_pause.keys,key_resp_pause.rt,key_resp_pause.rt in ms,key_resp_pause.started,key_resp_pause.stopped,study trial,personPrimeStudy,genderPrimeStudy,primeStudy,emotionPrimeStudy,corrAnsPrimeStudy,study mask time,Block,fix300_study.started,fix300_study.stopped,image_primer_study.started,image_primer_study.stopped,scrambled_study.started,scrambled_study.stopped,text_response_study.started,text_response_study.stopped,key_resp_study.keys,key_resp_study.corr,key_resp_study.rt,key_resp_study.rt in ms,key_resp_study.started,key_resp_study.stopped,Jitter_study.started,Jitter_study.stopped,participant,date,expName,psychopyVersion,frameRate,
,,,,,,,,,,,,433.9580253000604,436.9486575900461,436.95370389998425,442.4996623900603,None,436.95370389998425,442.4996623900603,,,,,,,,,,,,,,,,,,,,,,,,,,,,,,,,,,,,,,,,,,,,,,,,,,,,,,,,,,,,,,,EMOCONPILOT011,2020_Dec_30_1611,EmoCon_Pilot_120Hz,2020.2.4,120.0026399664208,
,,,,,,,,,,,,,,,,,,,442.5031621999806,446.1084438900813,h,3.587906299973838,442.5031621999806,446.1084438900813,,,,,,,,,,,,,,,,,,,,,,,,,,,,,,,,,,,,,,,,,,,,,,,,,,,,,,,,,EMOCONPILOT011,2020_Dec_30_1611,EmoCon_Pilot_120Hz,2020.2.4,120.0026399664208,
0,0,0,0,,,,,,,,,,,,,,,,,,,,,,0,3.0,f,1113_y_f_s_a.jpg,sad,a,17,446.11476440005936,446.40716829007727,446.6482214999851,446.8058020900586,446.8130159000866,446.8499352900195,446.8511771999765,448.49455159002684,None,0,446.8511771999765,448.49455159002684,448.4981274000602,450.39877938999564,,,,,,,,,,,,,,,,,,,,,,,,,,,,,,,,,,,,EMOCONPILOT011,2020_Dec_30_1611,EmoCon_Pilot_120Hz,2020.2.4,120.0026399664208,
1,0,1,0,,,,,,,,,,,,,,,,,,,,,,1,1.0,m,1111_m_m_s_a.jpg,sad,a,3,450.40088520001154,450.698804690002,450.8984659999842,450.92443779002645,450.92485589999706,450.9590477899998,450.95900630007964,452.5616327901022,None,0,450.95900630007964,452.5616327901022,452.56272679998074,454.52393539001935,,,,,,,,,,,,,,,,,,,,,,,,,,,,,,,,,,,,EMOCONPILOT011,2020_Dec_30_1611,EmoCon_Pilot_120Hz,2020.2.4,120.0026399664208,
2,0,2,0,,,,,,,,,,,,,,,,,,,,,,2,3.0,f,1113_y_f_n_a.jpg,neutral,s,17,454.52668290003203,454.8239009900368,455.0281163000036,455.1858653900796,455.1886760999914,455.22740059004866,455.23082980001345,456.32060469008286,s,1,455.23082980001345,456.32060469008286,456.3228645999916,457.5738440900692,1.0759030999615788,1075.9030999615788,,,,,,,,,,,,,,,,,,,,,,,,,,,,,,,,,,EMOCONPILOT011,2020_Dec_30_1611,EmoCon_Pilot_120Hz,2020.2.4,120.0026399664208,
3,0,3,0,,,,,,,,,,,,,,,,,,,,,,3,2.0,f,1112_m_f_h_a.jpg,happy,d,3,457.5748332000803,457.87397349005334,458.07989070005715,458.1063442900428,458.106309600058,458.1425754900207,458.14227200008463,458.9352989900741,d,1,458.14227200008463,458.9352989900741,458.93668000004254,460.2906740900013,0.7802700999891385,780.2700999891385,,,,,,,,,,,,,,,,,,,,,,,,,,,,,,,,,,EMOCONPILOT011,2020_Dec_30_1611,EmoCon_Pilot_120Hz,2020.2.4,120.0026399664208,
4,0,4,0,,,,,,,,,,,,,,,,,,,,,,4,2.0,f,1112_m_f_n_a.jpg,neutral,s,17,460.29189880006015,460.59072249006715,460.79016560001764,460.9511503900518,460.9536940000253,460.9936389900628,460.99698519997764,461.99576759008926,s,1,460.99698519997764,461.99576759008926,462.0008450000314,463.5991536900052,0.9818473000777885,981.8473000777885,,,,,,,,,,,,,,,,,,,,,,,,,,,,,,,,,,EMOCONPILOT011,2020_Dec_30_1611,EmoCon_Pilot_120Hz,2020.2.4,120.0026399664208,
,,,,0,0,0,0,0,0,0,0,,,,,,,,,,,,,,,,,,,,,,,,,,,,,,,,,,,,,463.64486900006887,466.6324957899866,466.63389880000614,468.6508440900012,g,2.000986099941656,2000.986099941656,466.63389880000614,468.6508440900012,0,8.0,f,019_m_f_s_a.jpg,sad,a,17,1,468.65245100005995,468.9409381900565,469.7599188000895,469.9182998900884,469.91849260008894,469.9521037900937,469.9543221000349,470.9262812900939,a,1,0.9603931000456214,960.3931000456214,469.9543221000349,470.9262812900939,470.9357686000876,472.09091599002716,EMOCONPILOT011,2020_Dec_30_1611,EmoCon_Pilot_120Hz,2020.2.4,120.0026399664208,
,,,,0,0,0,0,1,0,1,0,,,,,,,,,,,,,,,,,,,,,,,,,,,,,,,,,,,,,,,,,,,,,,1,6.0,m,033_o_m_n_a.jpg,neutral,s,17,1,472.09611719998065,472.39094339004953,472.6010701999767,472.7629367900896,472.76797769998666,472.80908259000864,472.81414670008235,473.83369859001834,s,1,1.0047010999405757,1004.7010999405757,472.81414670008235,473.83369859001834,473.8450964000076,475.4076858900604,EMOCONPILOT011,2020_Dec_30_1611,EmoCon_Pilot_120Hz,2020.2.4,120.0026399664208,
,,,,0,0,0,0,2,0,2,0,,,,,,,,,,,,,,,,,,,,,,,,,,,,,,,,,,,,,,,,,,,,,,2,2.0,m,008_y_m_s_a.jpg,sad,a,3,1,475.41320030007046,475.7076903900248,475.9413090000162,475.9666179900174,475.966934200027,476.0021483900142,476.0018926000921,477.27405849002537,a,1,1.264800199889578,1264.800199889578,476.0018926000921,477.27405849002537,477.28093990008347,479.24104119007245,EMOCONPILOT011,2020_Dec_30_1611,EmoCon_Pilot_120Hz,2020.2.4,120.0026399664208,
,,,,0,0,0,0,3,0,3,0,,,,,,,,,,,,,,,,,,,,,,,,,,,,,,,,,,,,,,,,,,,,,,3,11.0,f,030_o_f_h_a.jpg,happy,d,17,1,479.2456661000615,479.54104239001174,479.74632420006674,479.9031464900705,479.90685530006886,479.9468565900694,479.95209070004057,480.57241529001624,d,1,0.6027184999547899,602.7184999547899,479.95209070004057,480.57241529001624,480.58198590006214,481.97453189009104,EMOCONPILOT011,2020_Dec_30_1611,EmoCon_Pilot_120Hz,2020.2.4,120.0026399664208,
,,,,0,0,0,0,4,0,4,0,,,,,,,,,,,,,,,,,,,,,,,,,,,,,,,,,,,,,,,,,,,,,,4,11.0,f,030_o_f_s_a.jpg,sad,a,17,1,481.9786385000916,482.2744728900376,482.483263000031,482.6523754900205,482.6569095000159,482.696915990056,482.7020414000144,483.52474178998966,a,1,0.8127830000594258,812.7830000594258,482.7020414000144,483.52474178998966,483.5351297000889,484.9829271899886,EMOCONPILOT011,2020_Dec_30_1611,EmoCon_Pilot_120Hz,2020.2.4,120.0026399664208,
,,,,0,0,0,0,5,0,5,0,,,,,,,,,,,,,,,,,,,,,,,,,,,,,,,,,,,,,,,,,,,,,,5,11.0,f,030_o_f_s_a.jpg,sad,a,17,1,484.98682240000926,485.28287229008276,485.488080500043,485.65000469001245,485.6547466000775,485.69440779004947,485.6987717000302,486.4196165901027,a,1,0.7041213000193238,704.1213000193238,485.6987717000302,486.4196165901027,486.43144359998405,487.97452049000424,EMOCONPILOT011,2020_Dec_30_1611,EmoCon_Pilot_120Hz,2020.2.4,120.0026399664208,
,,,,0,0,0,0,6,0,6,0,,,,,,,,,,,,,,,,,,,,,,,,,,,,,,,,,,,,,,,,,,,,,,6,5.0,m,027_o_m_n_a.jpg,neutral,s,17,1,487.9773007000331,488.2744904900552,488.49076329998206,488.6528125900892,488.6574930000352,488.69754519007404,488.70252030005213,489.34484399001815,s,1,0.6282362999627367,628.2362999627367,488.70252030005213,489.34484399001815,489.35614980000537,490.62470829006054,EMOCONPILOT011,2020_Dec_30_1611,EmoCon_Pilot_120Hz,2020.2.4,120.0026399664208,
,,,,0,0,0,0,7,0,7,0,,,,,,,,,,,,,,,,,,,,,,,,,,,,,,,,,,,,,,,,,,,,,,7,8.0,f,019_m_f_n_a.jpg,neutral,s,3,1,490.6290397000266,490.92474959007234,491.1702593000373,491.1967507900787,491.196787300054,491.234191290068,491.23564339999575,492.0525110900286,s,1,0.8072040000697598,807.2040000697598,491.23564339999575,492.0525110900286,492.0650099000195,493.1581546900212,EMOCONPILOT011,2020_Dec_30_1611,EmoCon_Pilot_120Hz,2020.2.4,120.0026399664208,
,,,,0,0,0,0,8,0,8,0,,,,,,,,,,,,,,,,,,,,,,,,,,,,,,,,,,,,,,,,,,,,,,8,5.0,m,027_o_m_h_a.jpg,happy,d,3,1,493.1638871000614,493.45814359009967,493.6630205999827,493.6887436899939,493.6917084000306,493.73095299009003,493.73616420000326,494.53830869003434,d,1,0.7947439000708982,794.7439000708982,493.73616420000326,494.53830869003434,494.54981710005086,496.45814488999315,EMOCONPILOT011,2020_Dec_30_1611,EmoCon_Pilot_120Hz,2020.2.4,120.0026399664208,
,,,,0,0,0,0,9,0,9,0,,,,,,,,,,,,,,,,,,,,,,,,,,,,,,,,,,,,,,,,,,,,,,9,8.0,f,019_m_f_n_a.jpg,neutral,s,3,1,496.46364229999017,496.75813958999936,497.0076990000671,497.0336636900553,497.0340709000593,497.07018219000895,497.0706147000892,497.8743934899918,s,1,0.7882643000921234,788.2643000921234,497.0706147000892,497.8743934899918,497.8835198000306,499.2581570900162,EMOCONPILOT011,2020_Dec_30_1611,EmoCon_Pilot_120Hz,2020.2.4,120.0026399664208,
,,,,0,0,0,0,10,0,10,0,,,,,,,,,,,,,,,,,,,,,,,,,,,,,,,,,,,,,,,,,,,,,,10,11.0,f,030_o_f_h_a.jpg,happy,d,3,1,499.26217630004976,499.55823579007995,499.76327750005294,499.78848688999426,499.7890661000274,499.82588609001834,499.8260321000125,500.5261388900341,d,1,0.6887007000623271,688.7007000623271,499.8260321000125,500.5261388900341,500.5335640000412,502.25003479010195,EMOCONPILOT011,2020_Dec_30_1611,EmoCon_Pilot_120Hz,2020.2.4,120.0026399664208,
,,,,0,0,0,0,11,0,11,0,,,,,,,,,,,,,,,,,,,,,,,,,,,,,,,,,,,,,,,,,,,,,,11,3.0,m,013_y_m_s_a.jpg,sad,a,17,1,502.25526030000765,502.5499820900965,502.64847150002606,502.7848742900766,502.7880703000119,502.82610499005534,502.82973810005933,503.95927189007637,s,0,1.117203800007701,1117.203800007701,502.82973810005933,503.95927189007637,503.97068100003526,505.67500489003726,EMOCONPILOT011,2020_Dec_30_1611,EmoCon_Pilot_120Hz,2020.2.4,120.0026399664208,
,,,,0,0,0,0,12,0,12,0,,,,,,,,,,,,,,,,,,,,,,,,,,,,,,,,,,,,,,,,,,,,,,12,12.0,f,040_y_f_n_a.jpg,neutral,s,3,1,505.68041800009087,505.97510289001514,506.21850610000547,506.2446681900998,506.2447825000854,506.2794101900305,506.2791545999935,507.27771229002394,s,1,0.9875575000187382,987.5575000187382,506.2791545999935,507.27771229002394,507.28522930003237,509.20843989002753,EMOCONPILOT011,2020_Dec_30_1611,EmoCon_Pilot_120Hz,2020.2.4,120.0026399664208,
,,,,0,0,0,0,13,0,13,0,,,,,,,,,,,,,,,,,,,,,,,,,,,,,,,,,,,,,,,,,,,,,,13,12.0,f,040_y_f_h_a.jpg,happy,d,17,1,509.2138095999835,509.5084083900671,509.531468900037,509.668612490024,509.6731282999972,509.71365739005853,509.71892560005654,510.3482484900975,d,1,0.6200534999370575,620.0534999370575,509.71892560005654,510.3482484900975,510.35981990001164,511.9585331900395,EMOCONPILOT011,2020_Dec_30_1611,EmoCon_Pilot_120Hz,2020.2.4,120.0026399664208,
,,,,0,0,0,0,14,0,14,0,,,,,,,,,,,,,,,,,,,,,,,,,,,,,,,,,,,,,,,,,,,,,,14,7.0,f,012_o_f_h_a.jpg,happy,d,3,1,511.96449899999425,512.2584795900272,512.2836940999841,512.3055021899869,512.3064440999879,512.3429062900483,512.3428811000194,513.2027444900829,d,1,0.8439563000574708,843.9563000574708,512.3428811000194,513.2027444900829,513.2120752000483,515.0502140900004,EMOCONPILOT011,2020_Dec_30_1611,EmoCon_Pilot_120Hz,2020.2.4,120.0026399664208,
,,,,0,0,0,0,15,0,15,0,,,,,,,,,,,,,,,,,,,,,,,,,,,,,,,,,,,,,,,,,,,,,,15,9.0,f,021_o_f_n_a.jpg,neutral,s,3,1,515.0556197999977,515.3502084900043,515.571383500006,515.5969279900543,515.5970573000377,515.6347125901026,515.6360811999766,516.4914759900072,s,1,0.8467695999424905,846.7695999424905,515.6360811999766,516.4914759900072,516.498271599994,517.7085539900814,EMOCONPILOT011,2020_Dec_30_1611,EmoCon_Pilot_120Hz,2020.2.4,120.0026399664208,
,,,,0,0,0,0,16,0,16,0,,,,,,,,,,,,,,,,,,,,,,,,,,,,,,,,,,,,,,,,,,,,,,16,10.0,f,028_y_f_s_a.jpg,sad,a,3,1,517.7138599000173,518.0085798900924,518.0336154000834,518.0562459900626,518.0568615000229,518.0930944900844,518.0930516000371,518.9708121900563,s,0,0.8616744000464678,861.6744000464678,518.0930516000371,518.9708121900563,518.9791844000574,520.700295690063,EMOCONPILOT011,2020_Dec_30_1611,EmoCon_Pilot_120Hz,2020.2.4,120.0026399664208,
,,,,0,0,0,0,17,0,17,0,,,,,,,,,,,,,,,,,,,,,,,,,,,,,,,,,,,,,,,,,,,,,,17,10.0,f,028_y_f_h_a.jpg,happy,d,17,1,520.7044129000278,521.0003080900875,521.0202749000164,521.1521169900312,521.1557054000441,521.1941013900447,521.1991857000394,521.6642924900749,d,1,0.4518122000154108,451.8122000154108,521.1991857000394,521.6642924900749,521.674814100028,522.883661590016,EMOCONPILOT011,2020_Dec_30_1611,EmoCon_Pilot_120Hz,2020.2.4,120.0026399664208,
,,,,0,0,0,0,18,0,18,0,,,,,,,,,,,,,,,,,,,,,,,,,,,,,,,,,,,,,,,,,,,,,,18,9.0,f,021_o_f_h_a.jpg,happy,d,17,1,522.8879034999991,523.1836581900367,523.4678597000893,523.6264238900854,523.6265865000896,523.6627141900477,523.6626853999915,524.1752332900302,d,1,0.5003508999943733,500.3508999943733,523.6626853999915,524.1752332900302,524.1821088000434,525.8754042900051,EMOCONPILOT011,2020_Dec_30_1611,EmoCon_Pilot_120Hz,2020.2.4,120.0026399664208,
,,,,0,0,0,0,19,0,19,0,,,,,,,,,,,,,,,,,,,,,,,,,,,,,,,,,,,,,,,,,,,,,,19,6.0,m,033_o_m_h_a.jpg,happy,d,17,1,525.8795903000282,526.1753979900037,526.1912638000213,526.3270651900326,526.3315234000329,526.3723008900066,526.3774855000665,526.8673900900991,d,1,0.47340369992889464,473.40369992889464,526.3774855000665,526.8673900900991,526.88006580004,528.3589121900383,EMOCONPILOT011,2020_Dec_30_1611,EmoCon_Pilot_120Hz,2020.2.4,120.0026399664208,
,,,,0,0,0,0,20,0,20,0,,,,,,,,,,,,,,,,,,,,,,,,,,,,,,,,,,,,,,,,,,,,,,20,1.0,m,004_o_m_h_a.jpg,happy,d,17,1,528.3646383000305,528.658828290028,528.862234900007,529.0212582900073,529.0250496000517,529.0628440900124,529.0682340000058,529.4345736900228,d,1,0.35863250005058944,358.63250005058944,529.0682340000058,529.4345736900228,529.4460978000425,530.6004265900352,EMOCONPILOT011,2020_Dec_30_1611,EmoCon_Pilot_120Hz,2020.2.4,120.0026399664208,
,,,,0,0,0,0,21,0,21,0,,,,,,,,,,,,,,,,,,,,,,,,,,,,,,,,,,,,,,,,,,,,,,21,2.0,m,008_y_m_s_a.jpg,sad,a,3,1,530.6033015000867,530.9005269900314,531.1329996000277,531.1575373900938,531.1577388000442,531.1933057900402,531.1934390000533,532.4670235900791,s,0,1.2574810999212787,1257.4810999212787,531.1934390000533,532.4670235900791,532.4763242000481,533.8671665900271,EMOCONPILOT011,2020_Dec_30_1611,EmoCon_Pilot_120Hz,2020.2.4,120.0026399664208,
,,,,0,0,0,0,22,0,22,0,,,,,,,,,,,,,,,,,,,,,,,,,,,,,,,,,,,,,,,,,,,,,,22,4.0,m,016_y_m_s_a.jpg,sad,a,3,1,533.8702064000536,534.167156389996,534.1902217000024,534.2123549900367,534.2132800000254,534.2517657900113,534.2531233000336,535.0609104900738,s,0,0.7976021999493241,797.6021999493241,534.2531233000336,535.0609104900738,535.0681284000166,537.0339348900249,EMOCONPILOT011,2020_Dec_30_1611,EmoCon_Pilot_120Hz,2020.2.4,120.0026399664208,
,,,,0,0,0,0,23,0,23,0,,,,,,,,,,,,,,,,,,,,,,,,,,,,,,,,,,,,,,,,,,,,,,23,8.0,f,019_m_f_h_a.jpg,happy,d,17,1,537.0379107000772,537.3340032900102,537.357821200043,537.4939133900567,537.4973286000313,537.5352322900086,537.5387943000533,538.041334090021,d,1,0.4879587000468746,487.9587000468746,537.5387943000533,538.041334090021,538.0530512999976,539.3923844900797,EMOCONPILOT011,2020_Dec_30_1611,EmoCon_Pilot_120Hz,2020.2.4,120.0026399664208,
,,,,0,0,0,0,24,0,24,0,,,,,,,,,,,,,,,,,,,,,,,,,,,,,,,,,,,,,,,,,,,,,,24,8.0,f,019_m_f_h_a.jpg,happy,d,3,1,539.3979140000883,539.6924298900063,539.7165733000729,539.73901489001,539.7396438000724,539.7768532900024,539.776765900082,540.2986711900099,d,1,0.5139775000279769,513.9775000279769,539.776765900082,540.2986711900099,540.3081795000471,541.4840753900004,EMOCONPILOT011,2020_Dec_30_1611,EmoCon_Pilot_120Hz,2020.2.4,120.0026399664208,
,,,,0,0,0,0,25,0,25,0,,,,,,,,,,,,,,,,,,,,,,,,,,,,,,,,,,,,,,,,,,,,,,25,4.0,m,016_y_m_n_a.jpg,neutral,s,17,1,541.4880650000414,541.7840672901017,542.0244053000351,542.180362190085,542.1845583000686,542.2256709900336,542.2310337000526,542.9104275900987,s,1,0.6677971999160945,667.7971999160945,542.2310337000526,542.9104275900987,542.9188878000714,544.5092231901014,EMOCONPILOT011,2020_Dec_30_1611,EmoCon_Pilot_120Hz,2020.2.4,120.0026399664208,
,,,,0,0,0,0,26,0,26,0,,,,,,,,,,,,,,,,,,,,,,,,,,,,,,,,,,,,,,,,,,,,,,26,4.0,m,016_y_m_h_a.jpg,happy,d,3,1,544.515175800072,544.8092182899942,544.8357970999787,544.8586669900338,544.8593532000668,544.8935125900549,544.8937565999804,545.666555490077,d,1,0.7649822999956086,764.9822999956086,544.8937565999804,545.666555490077,545.6756108000409,547.2508979900391,EMOCONPILOT011,2020_Dec_30_1611,EmoCon_Pilot_120Hz,2020.2.4,120.0026399664208,
,,,,0,0,0,0,27,0,27,0,,,,,,,,,,,,,,,,,,,,,,,,,,,,,,,,,,,,,,,,,,,,,,27,8.0,f,019_m_f_h_a.jpg,happy,d,17,1,547.2549251000164,547.5509583900799,547.5732635000022,547.7110063900124,547.7144417000236,547.7521052900353,547.7555672000162,548.1380266900757,d,1,0.3671862999908626,367.1862999908626,547.7555672000162,548.1380266900757,548.148806400015,550.0342319900752,EMOCONPILOT011,2020_Dec_30_1611,EmoCon_Pilot_120Hz,2020.2.4,120.0026399664208,
,,,,0,0,0,0,28,0,28,0,,,,,,,,,,,,,,,,,,,,,,,,,,,,,,,,,,,,,,,,,,,,,,28,8.0,f,019_m_f_s_a.jpg,sad,a,3,1,550.0382401000243,550.3342971900362,550.7437178000109,550.7705655900878,550.7714853000361,550.8062272900366,550.8067564000376,552.3228938900517,a,1,1.4999588000355288,1499.9588000355288,550.8067564000376,552.3228938900517,552.3310107000871,553.9260493900744,EMOCONPILOT011,2020_Dec_30_1611,EmoCon_Pilot_120Hz,2020.2.4,120.0026399664208,
,,,,0,0,0,0,29,0,29,0,,,,,,,,,,,,,,,,,,,,,,,,,,,,,,,,,,,,,,,,,,,,,,29,10.0,f,028_y_f_n_a.jpg,neutral,s,3,1,553.9301849000622,554.2260134900804,554.435375800007,554.4608007900766,554.4608878000872,554.49644649002,554.4960689999862,555.3214373900206,s,1,0.8107015000423416,810.7015000423416,554.4960689999862,555.3214373900206,555.3309089000104,556.7512015900226,EMOCONPILOT011,2020_Dec_30_1611,EmoCon_Pilot_120Hz,2020.2.4,120.0026399664208,
,,,,0,0,0,0,30,0,30,0,,,,,,,,,,,,,,,,,,,,,,,,,,,,,,,,,,,,,,,,,,,,,,30,12.0,f,040_y_f_n_a.jpg,neutral,s,3,1,556.7567916000262,557.0510956900777,557.280165300006,557.305502989993,557.3057040000567,557.3436347900075,557.3475791000528,557.9283914900967,s,1,0.5672640999546275,567.2640999546275,557.3475791000528,557.9283914900967,557.9396134000272,559.3177028899896,EMOCONPILOT011,2020_Dec_30_1611,EmoCon_Pilot_120Hz,2020.2.4,120.0026399664208,
,,,,0,0,0,0,31,0,31,0,,,,,,,,,,,,,,,,,,,,,,,,,,,,,,,,,,,,,,,,,,,,,,31,5.0,m,027_o_m_n_a.jpg,neutral,s,3,1,559.3207184000639,559.6178761900752,559.8337745000608,559.8592442900059,559.8596972000087,559.8942311900552,559.8956627000589,560.5890096900636,s,1,0.6830806999932975,683.0806999932975,559.8956627000589,560.5890096900636,560.5965616999893,562.5262112900033,EMOCONPILOT011,2020_Dec_30_1611,EmoCon_Pilot_120Hz,2020.2.4,120.0026399664208,
,,,,0,0,0,0,32,0,32,0,,,,,,,,,,,,,,,,,,,,,,,,,,,,,,,,,,,,,,,,,,,,,,32,8.0,f,019_m_f_n_a.jpg,neutral,s,17,1,562.5315891000209,562.8262341899914,563.0649144999916,563.2337796900771,563.2384718999965,563.2799293900258,563.28527880006,563.6819981900859,s,1,0.3817096999846399,381.7096999846399,563.28527880006,563.6819981900859,563.6925349000376,565.4346184900147,EMOCONPILOT011,2020_Dec_30_1611,EmoCon_Pilot_120Hz,2020.2.4,120.0026399664208,
,,,,0,0,0,0,33,0,33,0,,,,,,,,,,,,,,,,,,,,,,,,,,,,,,,,,,,,,,,,,,,,,,33,4.0,m,016_y_m_n_a.jpg,neutral,s,3,1,565.440590800019,565.7346219900879,565.9657650000881,565.9913687900058,565.9916933000786,566.0281235900126,566.0292010999983,566.640304090071,s,1,0.5975287000183016,597.5287000183016,566.0292010999983,566.640304090071,566.6469744000351,568.234692790045,EMOCONPILOT011,2020_Dec_30_1611,EmoCon_Pilot_120Hz,2020.2.4,120.0026399664208,
,,,,0,0,0,0,34,0,34,0,,,,,,,,,,,,,,,,,,,,,,,,,,,,,,,,,,,,,,,,,,,,,,34,11.0,f,030_o_f_n_a.jpg,neutral,s,17,1,568.2401076999959,568.5346716900473,568.7456031000474,568.9124669900281,568.9169625000795,568.9578883900191,568.9627977000782,569.8459488900495,s,1,0.8721823999658227,872.1823999658227,568.9627977000782,569.8459488900495,569.8589011000004,571.15969869002,EMOCONPILOT011,2020_Dec_30_1611,EmoCon_Pilot_120Hz,2020.2.4,120.0026399664208,
,,,,0,0,0,0,35,0,35,0,,,,,,,,,,,,,,,,,,,,,,,,,,,,,,,,,,,,,,,,,,,,,,35,9.0,f,021_o_f_h_a.jpg,happy,d,3,1,571.1640110000735,571.459807990084,571.6786663000239,571.7059749900014,571.7087534000166,571.7456814900157,571.7486983999843,572.3392514900421,d,1,0.5741795999929309,574.1795999929309,571.7486983999843,572.3392514900421,572.3477375999792,573.6847838899936,EMOCONPILOT011,2020_Dec_30_1611,EmoCon_Pilot_120Hz,2020.2.4,120.0026399664208,
,,,,0,0,0,0,36,0,36,0,,,,,,,,,,,,,,,,,,,,,,,,,,,,,,,,,,,,,,,,,,,,,,36,11.0,f,030_o_f_s_a.jpg,sad,a,17,1,573.6903360000579,573.9848289900343,574.1881103999913,574.3503527900554,574.3551183000673,574.3961676900159,574.4006469000597,574.9893487899914,a,1,0.5782789000077173,578.2789000077173,574.4006469000597,574.9893487899914,575.0009660000214,576.0848500900553,EMOCONPILOT011,2020_Dec_30_1611,EmoCon_Pilot_120Hz,2020.2.4,120.0026399664208,
,,,,0,0,0,0,37,0,37,0,,,,,,,,,,,,,,,,,,,,,,,,,,,,,,,,,,,,,,,,,,,,,,37,12.0,f,040_y_f_n_a.jpg,neutral,s,3,1,576.0901446000207,576.3848702900228,576.6054454999976,576.6314248900977,576.631765600061,576.6693198900554,576.6705464000115,577.268975590088,s,1,0.5882571999682114,588.2571999682114,576.6705464000115,577.268975590088,577.2785090000834,578.8016294900677,EMOCONPILOT011,2020_Dec_30_1611,EmoCon_Pilot_120Hz,2020.2.4,120.0026399664208,
,,,,0,0,0,0,38,0,38,0,,,,,,,,,,,,,,,,,,,,,,,,,,,,,,,,,,,,,,,,,,,,,,38,9.0,f,021_o_f_s_a.jpg,sad,a,3,1,578.8068970000604,579.10157649006,579.1186524999794,579.1415117900702,579.1424657000462,579.177712790051,579.1779933000216,580.0454615900177,s,0,0.85687609994784,856.87609994784,579.1779933000216,580.0454615900177,580.0537085999968,581.7182925900794,EMOCONPILOT011,2020_Dec_30_1611,EmoCon_Pilot_120Hz,2020.2.4,120.0026399664208,
,,,,0,0,0,0,39,0,39,0,,,,,,,,,,,,,,,,,,,,,,,,,,,,,,,,,,,,,,,,,,,,,,39,4.0,m,016_y_m_n_a.jpg,neutral,s,17,1,581.7239164999919,582.0182977900491,582.2582569000078,582.4227156900685,582.4265302000567,582.467455389991,582.4716987999855,582.9309844900505,s,1,0.4514697000849992,451.4697000849992,582.4716987999855,582.9309844900505,582.942838100018,584.3100971900509,EMOCONPILOT011,2020_Dec_30_1611,EmoCon_Pilot_120Hz,2020.2.4,120.0026399664208,
,,,,0,0,0,0,40,0,40,0,,,,,,,,,,,,,,,,,,,,,,,,,,,,,,,,,,,,,,,,,,,,,,40,9.0,f,021_o_f_s_a.jpg,sad,a,17,1,584.3158018999966,584.6099225900485,584.61956380005,584.7531355900807,584.7531455000862,584.7951873900253,584.7959145000204,585.3433535900782,a,1,0.5351310999831185,535.1310999831185,584.7959145000204,585.3433535900782,585.3548231000314,586.7767356900382,EMOCONPILOT011,2020_Dec_30_1611,EmoCon_Pilot_120Hz,2020.2.4,120.0026399664208,
,,,,0,0,0,0,41,0,41,0,,,,,,,,,,,,,,,,,,,,,,,,,,,,,,,,,,,,,,,,,,,,,,41,11.0,f,030_o_f_h_a.jpg,happy,d,3,1,586.7809723999817,587.0767272900208,587.2876749000279,587.313884590019,587.3142513000639,587.3491345900926,587.3491901999805,588.0702023900463,d,1,0.7095397000666708,709.5397000666708,587.3491901999805,588.0702023900463,588.0775738999946,589.9600080900942,EMOCONPILOT011,2020_Dec_30_1611,EmoCon_Pilot_120Hz,2020.2.4,120.0026399664208,
,,,,0,0,0,0,42,0,42,0,,,,,,,,,,,,,,,,,,,,,,,,,,,,,,,,,,,,,,,,,,,,,,42,4.0,m,016_y_m_h_a.jpg,happy,d,3,1,589.9629500000738,590.260017890099,590.2733299999963,590.2949111900176,590.2952618000563,590.3363568900037,590.3392184000695,591.2440530900727,d,1,0.8955622999928892,895.5622999928892,590.3392184000695,591.2440530900727,591.2521749000298,593.1851763900719,EMOCONPILOT011,2020_Dec_30_1611,EmoCon_Pilot_120Hz,2020.2.4,120.0026399664208,
,,,,0,0,0,0,43,0,43,0,,,,,,,,,,,,,,,,,,,,,,,,,,,,,,,,,,,,,,,,,,,,,,43,1.0,m,004_o_m_s_a.jpg,sad,a,3,1,593.1892302000197,593.4851802900317,593.507626799983,593.5302618899965,593.5309538000729,593.5697524899966,593.5707426000154,594.5363125900855,s,0,0.9521514000371099,952.1514000371099,593.5707426000154,594.5363125900855,594.5446322000353,595.6852652900503,EMOCONPILOT011,2020_Dec_30_1611,EmoCon_Pilot_120Hz,2020.2.4,120.0026399664208,
,,,,0,0,0,0,44,0,44,0,,,,,,,,,,,,,,,,,,,,,,,,,,,,,,,,,,,,,,,,,,,,,,44,4.0,m,016_y_m_h_a.jpg,happy,d,17,1,595.6906092000427,595.9853433899931,596.0105826000217,596.1452580900747,596.1489469000371,596.1872424900881,596.1911813000916,597.0555069900234,d,1,0.8519661000464112,851.9661000464112,596.1911813000916,597.0555069900234,597.0666846000822,598.7187656900729,EMOCONPILOT011,2020_Dec_30_1611,EmoCon_Pilot_120Hz,2020.2.4,120.0026399664208,
,,,,0,0,0,0,45,0,45,0,,,,,,,,,,,,,,,,,,,,,,,,,,,,,,,,,,,,,,,,,,,,,,45,7.0,f,012_o_f_s_a.jpg,sad,a,17,1,598.7242111000232,599.0186498900526,599.0334055999992,599.1708573900047,599.1757104999851,599.216381190077,599.2214424000122,599.9114164900617,a,1,0.6776040999684483,677.6040999684483,599.2214424000122,599.9114164900617,599.919640099979,601.2936820900883,EMOCONPILOT011,2020_Dec_30_1611,EmoCon_Pilot_120Hz,2020.2.4,120.0026399664208,
,,,,0,0,0,0,46,0,46,0,,,,,,,,,,,,,,,,,,,,,,,,,,,,,,,,,,,,,,,,,,,,,,46,8.0,f,019_m_f_n_a.jpg,neutral,s,17,1,601.2979365000501,601.5937334900606,601.869383100071,602.0389088900644,602.0426379999844,602.0834109900403,602.0883452000562,602.6576419900754,s,1,0.562523299944587,562.523299944587,602.0883452000562,602.6576419900754,602.6693561000284,604.4688578900765,EMOCONPILOT011,2020_Dec_30_1611,EmoCon_Pilot_120Hz,2020.2.4,120.0026399664208,
,,,,0,0,0,0,47,0,47,0,,,,,,,,,,,,,,,,,,,,,,,,,,,,,,,,,,,,,,,,,,,,,,47,2.0,m,008_y_m_h_a.jpg,happy,d,17,1,604.4731182000833,604.7687861900428,604.7957908000099,604.9287445899914,604.9327226000605,604.9737857899978,604.9790576000232,605.5388431900298,d,1,0.5440057000378147,544.0057000378147,604.9790576000232,605.5388431900298,605.5496442000149,607.2188466899912,EMOCONPILOT011,2020_Dec_30_1611,EmoCon_Pilot_120Hz,2020.2.4,120.0026399664208,
,,,,0,0,0,0,48,0,48,0,,,,,,,,,,,,,,,,,,,,,,,,,,,,,,,,,,,,,,,,,,,,,,48,12.0,f,040_y_f_n_a.jpg,neutral,s,3,1,607.2242484000744,607.5188416899997,607.7420207000105,607.7677267900086,607.769147300045,607.8061025900184,607.807855800027,608.6085643900675,s,1,0.7869921000674367,786.9921000674367,607.807855800027,608.6085643900675,608.6169835000765,610.2939304900007,EMOCONPILOT011,2020_Dec_30_1611,EmoCon_Pilot_120Hz,2020.2.4,120.0026399664208,
,,,,0,0,0,0,49,0,49,0,,,,,,,,,,,,,,,,,,,,,,,,,,,,,,,,,,,,,,,,,,,,,,49,11.0,f,030_o_f_n_a.jpg,neutral,s,17,1,610.2981315000216,610.5939158900525,610.795868700021,610.9651893900824,610.9697679000674,611.0107874900219,611.0154007000383,612.4370352900238,s,1,1.4115124000236392,1411.5124000236392,611.0154007000383,612.4370352900238,612.446223200066,613.5524073900539,EMOCONPILOT011,2020_Dec_30_1611,EmoCon_Pilot_120Hz,2020.2.4,120.0026399664208,
,,,,0,0,0,0,50,0,50,0,,,,,,,,,,,,,,,,,,,,,,,,,,,,,,,,,,,,,,,,,,,,,,50,8.0,f,019_m_f_h_a.jpg,happy,d,17,1,613.5578427000437,613.8523098900565,613.880175700062,614.0122722900356,614.0173093000194,614.0580115900026,614.0631868999917,614.5527692900156,d,1,0.4757380000082776,475.7380000082776,614.0631868999917,614.5527692900156,614.564239700092,616.3189774900326,EMOCONPILOT011,2020_Dec_30_1611,EmoCon_Pilot_120Hz,2020.2.4,120.0026399664208,
,,,,0,0,0,0,51,0,51,0,,,,,,,,,,,,,,,,,,,,,,,,,,,,,,,,,,,,,,,,,,,,,,51,8.0,f,019_m_f_n_a.jpg,neutral,s,17,1,616.3231790000573,616.6189180900925,616.9945716999937,617.1612432900234,617.1659572999924,617.2070865900838,617.212627400062,617.7620083900052,s,1,0.5343304999405518,534.3304999405518,617.212627400062,617.7620083900052,617.7732743000379,619.0107598900446,EMOCONPILOT011,2020_Dec_30_1611,EmoCon_Pilot_120Hz,2020.2.4,120.0026399664208,
,,,,0,0,0,0,52,0,52,0,,,,,,,,,,,,,,,,,,,,,,,,,,,,,,,,,,,,,,,,,,,,,,52,12.0,f,040_y_f_n_a.jpg,neutral,s,17,1,619.0160934000742,619.3108419900178,619.5300272000022,619.6977855900419,619.7015526000177,619.7428833900136,619.7476707000751,620.2349142901018,s,1,0.4793873999733478,479.3873999733478,619.7476707000751,620.2349142901018,620.2463149999967,621.8690269899904,EMOCONPILOT011,2020_Dec_30_1611,EmoCon_Pilot_120Hz,2020.2.4,120.0026399664208,
,,,,0,0,0,0,53,0,53,0,,,,,,,,,,,,,,,,,,,,,,,,,,,,,,,,,,,,,,,,,,,,,,53,9.0,f,021_o_f_h_a.jpg,happy,d,17,1,621.8718309000833,622.1690388900112,622.3809900000924,622.5437922899961,622.548228800064,622.5880234900047,622.5931726000272,623.123152590089,d,1,0.5139136000070721,513.9136000070721,622.5931726000272,623.123152590089,623.1347958000842,624.8108061900945,EMOCONPILOT011,2020_Dec_30_1611,EmoCon_Pilot_120Hz,2020.2.4,120.0026399664208,
,,,,0,0,0,0,54,0,54,0,,,,,,,,,,,,,,,,,,,,,,,,,,,,,,,,,,,,,,,,,,,,,,54,2.0,m,008_y_m_n_a.jpg,neutral,s,17,1,624.8146720000077,625.1108257900574,625.3472438000608,625.5052046900033,625.5090761000756,625.5496373900329,625.5549674000358,626.0745620900649,s,1,0.5039912000065669,503.99120000656694,625.5549674000358,626.0745620900649,626.0846225999994,627.5609171900084,EMOCONPILOT011,2020_Dec_30_1611,EmoCon_Pilot_120Hz,2020.2.4,120.0026399664208,
,,,,0,0,0,0,55,0,55,0,,,,,,,,,,,,,,,,,,,,,,,,,,,,,,,,,,,,,,,,,,,,,,55,10.0,f,028_y_f_n_a.jpg,neutral,s,3,1,627.5662323000142,627.8609481900581,628.0640139000025,628.0900777900475,628.0915576000698,628.128802690038,628.130449200049,628.9189291899908,s,1,0.7765883000101894,776.5883000101894,628.130449200049,628.9189291899908,628.9307320000371,630.32760389006,EMOCONPILOT011,2020_Dec_30_1611,EmoCon_Pilot_120Hz,2020.2.4,120.0026399664208,
,,,,0,0,0,0,56,0,56,0,,,,,,,,,,,,,,,,,,,,,,,,,,,,,,,,,,,,,,,,,,,,,,56,12.0,f,040_y_f_h_a.jpg,happy,d,3,1,630.3306812000228,630.6276228900184,630.6523633000907,630.6740908900625,630.6748480000533,630.7122347900528,630.7122433000477,631.4827188900323,d,1,0.7627587999450043,762.7587999450043,630.7122433000477,631.4827188900323,631.4954897999996,632.7109759900137,EMOCONPILOT011,2020_Dec_30_1611,EmoCon_Pilot_120Hz,2020.2.4,120.0026399664208,
,,,,0,0,0,0,57,0,57,0,,,,,,,,,,,,,,,,,,,,,,,,,,,,,,,,,,,,,,,,,,,,,,57,2.0,m,008_y_m_n_a.jpg,neutral,s,3,1,632.7142103000078,633.0109975899919,633.2653308000881,633.291046890046,633.2914025000064,633.3288819900132,633.3303830000805,633.8837690900197,s,1,0.5446235000854358,544.6235000854358,633.3303830000805,633.8837690900197,633.8929447000846,635.8528371899971,EMOCONPILOT011,2020_Dec_30_1611,EmoCon_Pilot_120Hz,2020.2.4,120.0026399664208,
,,,,0,0,0,0,58,0,58,0,,,,,,,,,,,,,,,,,,,,,,,,,,,,,,,,,,,,,,,,,,,,,,58,9.0,f,021_o_f_n_a.jpg,neutral,s,17,1,635.8571424999973,636.152752990101,636.3763637000229,636.5376625900041,636.5423961000051,636.5813354900689,636.5853911000304,637.1633269900573,s,1,0.5696037999587134,569.6037999587134,636.5853911000304,637.1633269900573,637.1756787999766,639.0195367900538,EMOCONPILOT011,2020_Dec_30_1611,EmoCon_Pilot_120Hz,2020.2.4,120.0026399664208,
,,,,0,0,0,0,59,0,59,0,,,,,,,,,,,,,,,,,,,,,,,,,,,,,,,,,,,,,,,,,,,,,,59,4.0,m,016_y_m_n_a.jpg,neutral,s,3,1,639.0248730999883,639.3195323900669,639.5616813000524,639.587159690063,639.5874644999858,639.6228456900805,639.6235205000266,640.2641590900836,s,1,0.6273832999868318,627.3832999868318,639.6235205000266,640.2641590900836,640.2702310000313,641.6195607900969,EMOCONPILOT011,2020_Dec_30_1611,EmoCon_Pilot_120Hz,2020.2.4,120.0026399664208,
,,,,0,0,0,0,60,0,60,0,,,,,,,,,,,,,,,,,,,,,,,,,,,,,,,,,,,,,,,,,,,,,,60,6.0,m,033_o_m_s_a.jpg,sad,a,3,1,641.6249137000414,641.9195736900089,641.9435082999989,641.9653459899943,641.9658100000815,642.004133789998,642.0052937000291,642.6012168899994,s,0,0.5816114000044763,581.6114000044763,642.0052937000291,642.6012168899994,642.6113931,644.0279644900817,EMOCONPILOT011,2020_Dec_30_1611,EmoCon_Pilot_120Hz,2020.2.4,120.0026399664208,
,,,,0,0,0,0,61,0,61,0,,,,,,,,,,,,,,,,,,,,,,,,,,,,,,,,,,,,,,,,,,,,,,61,7.0,f,012_o_f_n_a.jpg,neutral,s,17,1,644.033462200081,644.327959990094,644.5518124999944,644.7129728900851,644.7173452000134,644.7583600900485,644.7635279999813,645.1692358899978,s,1,0.39105079998262227,391.05079998262227,644.7635279999813,645.1692358899978,645.1719805999892,647.0363212900353,EMOCONPILOT011,2020_Dec_30_1611,EmoCon_Pilot_120Hz,2020.2.4,120.0026399664208,
,,,,0,0,0,0,62,0,62,0,,,,,,,,,,,,,,,,,,,,,,,,,,,,,,,,,,,,,,,,,,,,,,62,2.0,m,008_y_m_h_a.jpg,happy,d,3,1,647.0405407000799,647.3363583900151,647.3622797999997,647.3845626900089,647.3862964999862,647.4236003900529,647.4255856000818,647.8538851900609,s,0,0.4174966000718996,417.4966000718996,647.4255856000818,647.8538851900609,647.866304300027,649.3780924901017,EMOCONPILOT011,2020_Dec_30_1611,EmoCon_Pilot_120Hz,2020.2.4,120.0026399664208,
,,,,0,0,0,0,63,0,63,0,,,,,,,,,,,,,,,,,,,,,,,,,,,,,,,,,,,,,,,,,,,,,,63,10.0,f,028_y_f_h_a.jpg,happy,d,3,1,649.3833540000487,649.6780832900782,649.7013978000032,649.7240046900348,649.7246811999939,649.7625508900616,649.7641225000843,650.7535447900533,d,1,0.9748109000502154,974.8109000502154,649.7641225000843,650.7535447900533,650.7618182000006,651.9280883900007,EMOCONPILOT011,2020_Dec_30_1611,EmoCon_Pilot_120Hz,2020.2.4,120.0026399664208,
,,,,0,0,0,0,64,0,64,0,,,,,,,,,,,,,,,,,,,,,,,,,,,,,,,,,,,,,,,,,,,,,,64,4.0,m,016_y_m_h_a.jpg,happy,d,17,1,651.9332607000833,652.22810929009,652.2513141999952,652.3881018900662,652.3925790999783,652.4335480900132,652.4387947000796,652.8458593900665,d,1,0.3962809999939054,396.2809999939054,652.4387947000796,652.8458593900665,652.8576108000707,654.6865497900523,EMOCONPILOT011,2020_Dec_30_1611,EmoCon_Pilot_120Hz,2020.2.4,120.0026399664208,
,,,,0,0,0,0,65,0,65,0,,,,,,,,,,,,,,,,,,,,,,,,,,,,,,,,,,,,,,,,,,,,,,65,9.0,f,021_o_f_s_a.jpg,sad,a,3,1,654.6907069000881,654.9864872900886,655.010878900066,655.033769890049,655.034328400041,655.0708170900704,655.0723080000607,656.7160464900895,None,0,,,655.0723080000607,656.7160464900895,656.72095550003,658.6615584900952,EMOCONPILOT011,2020_Dec_30_1611,EmoCon_Pilot_120Hz,2020.2.4,120.0026399664208,
,,,,0,0,0,0,66,0,66,0,,,,,,,,,,,,,,,,,,,,,,,,,,,,,,,,,,,,,,,,,,,,,,66,7.0,f,012_o_f_h_a.jpg,happy,d,3,1,658.6655678000534,658.9615784900612,658.9847830000799,659.0073470900185,659.0077944999794,659.0461028900114,659.0471991000231,659.8583538900945,d,1,0.8036534999264404,803.6534999264404,659.0471991000231,659.8583538900945,659.8685791000025,661.4199262900162,EMOCONPILOT011,2020_Dec_30_1611,EmoCon_Pilot_120Hz,2020.2.4,120.0026399664208,
,,,,0,0,0,0,67,0,67,0,,,,,,,,,,,,,,,,,,,,,,,,,,,,,,,,,,,,,,,,,,,,,,67,9.0,f,021_o_f_h_a.jpg,happy,d,17,1,661.4240275999764,661.719923690043,661.9511844000081,662.1086870900705,662.1133777999785,662.1546686900198,662.1596733999904,662.5707357900334,d,1,0.4031663000350818,403.1663000350818,662.1596733999904,662.5707357900334,662.5781286000274,664.1783475899953,EMOCONPILOT011,2020_Dec_30_1611,EmoCon_Pilot_120Hz,2020.2.4,120.0026399664208,
,,,,0,0,0,0,68,0,68,0,,,,,,,,,,,,,,,,,,,,,,,,,,,,,,,,,,,,,,,,,,,,,,68,8.0,f,019_m_f_h_a.jpg,happy,d,3,1,664.1825043000281,664.4782644899911,664.4993349000579,664.5221849900787,664.5226826000726,664.5576890899916,664.5573807000183,665.0848996900837,d,1,0.5174984000623226,517.4984000623226,664.5573807000183,665.0848996900837,665.092184600071,666.3367601900478,EMOCONPILOT011,2020_Dec_30_1611,EmoCon_Pilot_120Hz,2020.2.4,120.0026399664208,
,,,,0,0,0,0,69,0,69,0,,,,,,,,,,,,,,,,,,,,,,,,,,,,,,,,,,,,,,,,,,,,,,69,9.0,f,021_o_f_s_a.jpg,sad,a,17,1,666.3421851000749,666.6367394900532,666.6642412000801,666.7966041899869,666.7997672000201,666.8378936900641,666.8406380000524,667.563030390034,a,1,0.7062341999262571,706.2341999262571,666.8406380000524,667.563030390034,667.5706625999883,669.5367910900037,EMOCONPILOT011,2020_Dec_30_1611,EmoCon_Pilot_120Hz,2020.2.4,120.0026399664208,
,,,,0,0,0,0,70,0,70,0,,,,,,,,,,,,,,,,,,,,,,,,,,,,,,,,,,,,,,,,,,,,,,70,2.0,m,008_y_m_h_a.jpg,happy,d,17,1,669.5409525000723,669.8368058900465,669.8530737999827,669.9884820900276,669.9934578000102,670.0317079900648,670.0362477999879,671.0209952901001,d,1,0.9748397000366822,974.8397000366822,670.0362477999879,671.0209952901001,671.0327356000198,672.2702058900264,EMOCONPILOT011,2020_Dec_30_1611,EmoCon_Pilot_120Hz,2020.2.4,120.0026399664208,
,,,,0,0,0,0,71,0,71,0,,,,,,,,,,,,,,,,,,,,,,,,,,,,,,,,,,,,,,,,,,,,,,71,1.0,m,004_o_m_h_a.jpg,happy,d,17,1,672.2744611999951,672.5701950899908,672.7809860000852,672.9400847900775,672.9436413000803,672.9810909900931,672.9864306000527,673.3719491900061,d,1,0.37659379991237074,376.59379991237074,672.9864306000527,673.3719491900061,673.3793104999932,674.4285949900164,EMOCONPILOT011,2020_Dec_30_1611,EmoCon_Pilot_120Hz,2020.2.4,120.0026399664208,
,,,,0,0,0,0,72,0,72,0,,,,,,,,,,,,,,,,,,,,,,,,,,,,,,,,,,,,,,,,,,,,,,72,11.0,f,030_o_f_h_a.jpg,happy,d,17,1,674.4340598999988,674.7286953900126,674.9316704000812,675.0931721900939,675.0980014000088,675.1373465900193,675.1425754000666,675.47730509002,d,1,0.32437349995598197,324.37349995598197,675.1425754000666,675.47730509002,675.4898722000653,676.9369930900517,EMOCONPILOT011,2020_Dec_30_1611,EmoCon_Pilot_120Hz,2020.2.4,120.0026399664208,
,,,,0,0,0,0,73,0,73,0,,,,,,,,,,,,,,,,,,,,,,,,,,,,,,,,,,,,,,,,,,,,,,73,8.0,f,019_m_f_s_a.jpg,sad,a,3,1,676.9424078000011,677.2370008900413,677.4667751999805,677.4930227900273,677.4931580000557,677.5297718899907,677.5310080000199,678.3792867899989,a,1,0.8398421000456437,839.8421000456437,677.5310080000199,678.3792867899989,678.38775730005,679.9870558899944,EMOCONPILOT011,2020_Dec_30_1611,EmoCon_Pilot_120Hz,2020.2.4,120.0026399664208,
,,,,0,0,0,0,74,0,74,0,,,,,,,,,,,,,,,,,,,,,,,,,,,,,,,,,,,,,,,,,,,,,,74,5.0,m,027_o_m_h_a.jpg,happy,d,3,1,679.987295400002,680.2870443900698,680.4985319999978,680.5251177900587,680.5259807000402,680.5631724900683,680.5632393000415,681.264145690098,d,1,0.6875681999372318,687.5681999372318,680.5632393000415,681.264145690098,681.2714419000549,683.2538343900466,EMOCONPILOT011,2020_Dec_30_1611,EmoCon_Pilot_120Hz,2020.2.4,120.0026399664208,
,,,,0,0,0,0,75,0,75,0,,,,,,,,,,,,,,,,,,,,,,,,,,,,,,,,,,,,,,,,,,,,,,75,8.0,f,019_m_f_s_a.jpg,sad,a,3,1,683.2579144000774,683.5537728900905,683.7905317000113,683.8178929900401,683.821418400039,683.8618460900267,683.866666499991,684.4993806900108,a,1,0.6164382999995723,616.4382999995723,683.866666499991,684.4993806900108,684.5078032000456,686.0871604900691,EMOCONPILOT011,2020_Dec_30_1611,EmoCon_Pilot_120Hz,2020.2.4,120.0026399664208,
,,,,0,0,0,0,76,0,76,0,,,,,,,,,,,,,,,,,,,,,,,,,,,,,,,,,,,,,,,,,,,,,,76,7.0,f,012_o_f_n_a.jpg,neutral,s,3,1,686.0925088999793,686.3871554900776,686.6016512999777,686.6285310900654,686.6331295000855,686.6740320900805,686.6782781999791,687.3692673900747,s,1,0.67662750009913,676.62750009913,686.6782781999791,687.3692673900747,687.3816158000845,688.7206338900957,EMOCONPILOT011,2020_Dec_30_1611,EmoCon_Pilot_120Hz,2020.2.4,120.0026399664208,
,,,,0,0,0,0,77,0,77,0,,,,,,,,,,,,,,,,,,,,,,,,,,,,,,,,,,,,,,,,,,,,,,77,6.0,m,033_o_m_s_a.jpg,sad,a,17,1,688.7265760999871,689.0205914900522,689.0422885000007,689.1812862900202,689.1858647000045,689.2265080900048,689.2315310999984,689.843784790102,a,1,0.5953830000944436,595.3830000944436,689.2315310999984,689.843784790102,689.8544164000778,691.6206561900559,EMOCONPILOT011,2020_Dec_30_1611,EmoCon_Pilot_120Hz,2020.2.4,120.0026399664208,
,,,,0,0,0,0,78,0,78,0,,,,,,,,,,,,,,,,,,,,,,,,,,,,,,,,,,,,,,,,,,,,,,78,1.0,m,004_o_m_h_a.jpg,happy,d,17,1,691.6258285000222,691.9206634900416,692.1201779000694,692.278431790031,692.2832133000484,692.3234992900049,692.3286515000509,692.7875915900455,d,1,0.442449799971655,442.449799971655,692.3286515000509,692.7875915900455,692.7989047000883,694.6124342900818,EMOCONPILOT011,2020_Dec_30_1611,EmoCon_Pilot_120Hz,2020.2.4,120.0026399664208,
,,,,0,0,0,0,79,0,79,0,,,,,,,,,,,,,,,,,,,,,,,,,,,,,,,,,,,,,,,,,,,,,,79,5.0,m,027_o_m_s_a.jpg,sad,a,3,1,694.617223600042,694.9123757900321,694.9378419000423,694.9603412900702,694.9609522999963,694.9969018899952,694.9969368000748,696.0924829900847,s,0,1.0859824999934062,1085.9824999934062,694.9969368000748,696.0924829900847,696.1026448000921,697.2874796900084,EMOCONPILOT011,2020_Dec_30_1611,EmoCon_Pilot_120Hz,2020.2.4,120.0026399664208,
,,,,0,0,0,0,80,0,80,0,,,,,,,,,,,,,,,,,,,,,,,,,,,,,,,,,,,,,,,,,,,,,,80,9.0,f,021_o_f_s_a.jpg,sad,a,17,1,697.2928616000572,697.5875085900421,697.6116946000839,697.7475223900634,697.7520957000088,697.7928033900331,697.7981327000307,698.3880295900977,a,1,0.5728618999710307,572.8618999710307,697.7981327000307,698.3880295900977,698.3993796000723,700.279152590048,EMOCONPILOT011,2020_Dec_30_1611,EmoCon_Pilot_120Hz,2020.2.4,120.0026399664208,
,,,,0,0,0,0,81,0,81,0,,,,,,,,,,,,,,,,,,,,,,,,,,,,,,,,,,,,,,,,,,,,,,81,5.0,m,027_o_m_s_a.jpg,sad,a,3,1,700.2851446000859,700.579265890026,700.6035015999805,700.625894690014,700.6263698000694,700.6635718900594,700.6648642000509,701.3623674900388,s,0,0.690117200021632,690.117200021632,700.6648642000509,701.3623674900388,701.3727750000544,703.1292388900998,EMOCONPILOT011,2020_Dec_30_1611,EmoCon_Pilot_120Hz,2020.2.4,120.0026399664208,
,,,,0,0,0,0,82,0,82,0,,,,,,,,,,,,,,,,,,,,,,,,,,,,,,,,,,,,,,,,,,,,,,82,7.0,f,012_o_f_h_a.jpg,happy,d,3,1,703.1345537999878,703.4292937900988,703.454288900015,703.4769635900972,703.4777150000446,703.513708290027,703.5151076000184,704.4833278900129,d,1,0.9519995000446215,951.9995000446215,703.5151076000184,704.4833278900129,704.4920285000699,706.0042159900419,EMOCONPILOT011,2020_Dec_30_1611,EmoCon_Pilot_120Hz,2020.2.4,120.0026399664208,
,,,,0,0,0,0,83,0,83,0,,,,,,,,,,,,,,,,,,,,,,,,,,,,,,,,,,,,,,,,,,,,,,83,3.0,m,013_y_m_s_a.jpg,sad,a,3,1,706.0071237999946,706.3043401901028,706.3312657000497,706.3540614900063,706.3548333999934,706.3891047900194,706.3888241000241,707.2746114900452,a,1,0.8780274000018835,878.0274000018835,706.3888241000241,707.2746114900452,707.2807231000625,708.7627228900907,EMOCONPILOT011,2020_Dec_30_1611,EmoCon_Pilot_120Hz,2020.2.4,120.0026399664208,
,,,,0,0,0,0,84,0,84,0,,,,,,,,,,,,,,,,,,,,,,,,,,,,,,,,,,,,,,,,,,,,,,84,5.0,m,027_o_m_s_a.jpg,sad,a,17,1,708.7681097000604,709.0627025900991,709.0866674000863,709.2226306900499,709.2254667000379,709.2640175900539,709.2664216000121,709.7709164900822,a,1,0.4966461000731215,496.6461000731215,709.2664216000121,709.7709164900822,709.779469900066,711.5461431900854,EMOCONPILOT011,2020_Dec_30_1611,EmoCon_Pilot_120Hz,2020.2.4,120.0026399664208,
,,,,0,0,0,0,85,0,85,0,,,,,,,,,,,,,,,,,,,,,,,,,,,,,,,,,,,,,,,,,,,,,,85,4.0,m,016_y_m_s_a.jpg,sad,a,17,1,711.5520302000223,711.8460689900327,711.866173400078,711.9976889900514,712.0021227999823,712.0431170900935,712.0483765000245,712.4044954900979,a,1,0.3465915999840945,346.5915999840945,712.0483765000245,712.4044954900979,712.416045900085,714.1127637900296,EMOCONPILOT011,2020_Dec_30_1611,EmoCon_Pilot_120Hz,2020.2.4,120.0026399664208,
,,,,0,0,0,0,86,0,86,0,,,,,,,,,,,,,,,,,,,,,,,,,,,,,,,,,,,,,,,,,,,,,,86,5.0,m,027_o_m_n_a.jpg,neutral,s,3,1,714.1165681000566,714.4127330900752,714.62488820008,714.651945890009,714.6554398000007,714.6932037900784,714.6984028000152,715.4548046900542,s,1,0.7444032999919727,744.4032999919727,714.6984028000152,715.4548046900542,715.459692100063,716.9045105900965,EMOCONPILOT011,2020_Dec_30_1611,EmoCon_Pilot_120Hz,2020.2.4,120.0026399664208,
,,,,0,0,0,0,87,0,87,0,,,,,,,,,,,,,,,,,,,,,,,,,,,,,,,,,,,,,,,,,,,,,,87,3.0,m,013_y_m_h_a.jpg,happy,d,3,1,716.9100920000346,717.2044742900995,717.4540362000698,717.4796986900852,717.4800071000354,717.5165687900386,717.5182485000696,719.1718607900781,None,0,,,717.5182485000696,719.1718607900781,719.179132200079,720.6379818900838,EMOCONPILOT011,2020_Dec_30_1611,EmoCon_Pilot_120Hz,2020.2.4,120.0026399664208,
,,,,0,0,0,0,88,0,88,0,,,,,,,,,,,,,,,,,,,,,,,,,,,,,,,,,,,,,,,,,,,,,,88,5.0,m,027_o_m_s_a.jpg,sad,a,17,1,720.6436731000431,720.9379365900182,720.961999900057,721.0978745900444,721.1010976000689,721.1404544900521,721.1456433000276,722.0940480900114,a,1,0.9371608999790624,937.1608999790624,721.1456433000276,722.0940480900114,722.100361400051,723.3129171899869,EMOCONPILOT011,2020_Dec_30_1611,EmoCon_Pilot_120Hz,2020.2.4,120.0026399664208,
,,,,0,0,0,0,89,0,89,0,,,,,,,,,,,,,,,,,,,,,,,,,,,,,,,,,,,,,,,,,,,,,,89,5.0,m,027_o_m_s_a.jpg,sad,a,17,1,723.3169730000664,723.6130037899944,723.6332775000483,723.7646179900854,723.7693409000058,723.8102129900013,723.8154913000762,724.1703359899926,a,1,0.34762779995799065,347.62779995799065,723.8154913000762,724.1703359899926,724.1818719999865,725.3797857900732,EMOCONPILOT011,2020_Dec_30_1611,EmoCon_Pilot_120Hz,2020.2.4,120.0026399664208,
,,,,0,0,0,0,90,0,90,0,,,,,,,,,,,,,,,,,,,,,,,,,,,,,,,,,,,,,,,,,,,,,,90,12.0,f,040_y_f_s_a.jpg,sad,a,3,1,725.385445300024,725.6797017900623,725.7028748000739,725.7254650900956,725.726147999987,725.7642984900973,725.7641750000184,726.8301260900568,a,1,1.0549476000014693,1054.9476000014693,725.7641750000184,726.8301260900568,726.8406049000332,728.7132026900887,EMOCONPILOT011,2020_Dec_30_1611,EmoCon_Pilot_120Hz,2020.2.4,120.0026399664208,
,,,,0,0,0,0,91,0,91,0,,,,,,,,,,,,,,,,,,,,,,,,,,,,,,,,,,,,,,,,,,,,,,91,3.0,m,013_y_m_n_a.jpg,neutral,s,3,1,728.718634000048,729.0131708900095,729.257768600015,729.2848329899949,729.287989399978,729.3248253900907,729.32948090008,730.1638082899968,s,1,0.825544299907051,825.544299907051,729.32948090008,730.1638082899968,730.1739876000211,731.3964132900234,EMOCONPILOT011,2020_Dec_30_1611,EmoCon_Pilot_120Hz,2020.2.4,120.0026399664208,
,,,,0,0,0,0,92,0,92,0,,,,,,,,,,,,,,,,,,,,,,,,,,,,,,,,,,,,,,,,,,,,,,92,12.0,f,040_y_f_s_a.jpg,sad,a,3,1,731.4001878000563,731.6965990900877,731.7230148999952,731.7458538900479,731.7465663000476,731.7826399900601,731.7830158000579,732.6919992899872,d,0,0.900100399972871,900.100399972871,731.7830158000579,732.6919992899872,732.7036414000904,733.8132047900814,EMOCONPILOT011,2020_Dec_30_1611,EmoCon_Pilot_120Hz,2020.2.4,120.0026399664208,
,,,,0,0,0,0,93,0,93,0,,,,,,,,,,,,,,,,,,,,,,,,,,,,,,,,,,,,,,,,,,,,,,93,6.0,m,033_o_m_s_a.jpg,sad,a,17,1,733.818675699993,734.1132176899933,734.1375959999859,734.2733906900627,734.277092400007,734.3166994900326,734.320927200024,734.9981116900104,a,1,0.6659552999772131,665.9552999772131,734.320927200024,734.9981116900104,735.0064302000683,736.7632674900466,EMOCONPILOT011,2020_Dec_30_1611,EmoCon_Pilot_120Hz,2020.2.4,120.0026399664208,
,,,,0,0,0,0,94,0,94,0,,,,,,,,,,,,,,,,,,,,,,,,,,,,,,,,,,,,,,,,,,,,,,94,2.0,m,008_y_m_s_a.jpg,sad,a,17,1,736.7689085000893,737.0633841900504,737.3147779999999,737.4793332900969,737.484364700038,737.5229454900488,737.5278986999765,738.0450981900445,a,1,0.5069566000020131,506.95660000201315,737.5278986999765,738.0450981900445,738.0498293000273,739.3633398899925,EMOCONPILOT011,2020_Dec_30_1611,EmoCon_Pilot_120Hz,2020.2.4,120.0026399664208,
,,,,0,0,0,0,95,0,95,0,,,,,,,,,,,,,,,,,,,,,,,,,,,,,,,,,,,,,,,,,,,,,,95,8.0,f,019_m_f_s_a.jpg,sad,a,17,1,739.3684705999913,739.6634366900777,739.9095012000762,740.071925890015,740.0766213000752,740.1164684900665,740.1217636000365,740.5491497900454,a,1,0.4173187999986112,417.3187999986112,740.1217636000365,740.5491497900454,740.560683800024,742.055026890093,EMOCONPILOT011,2020_Dec_30_1611,EmoCon_Pilot_120Hz,2020.2.4,120.0026399664208,
,,,,0,0,0,0,96,0,96,0,,,,,,,,,,,,,,,,,,,,,,,,,,,,,,,,,,,,,,,,,,,,,,96,9.0,f,021_o_f_n_a.jpg,neutral,s,3,1,742.0597782999976,742.3550262900186,742.5557758000214,742.5831677900511,742.5873638000339,742.6284779900103,742.6334239999996,743.1726890900987,s,1,0.5295937000773847,529.5937000773847,742.6334239999996,743.1726890900987,743.1854560000356,744.3301951900008,EMOCONPILOT011,2020_Dec_30_1611,EmoCon_Pilot_120Hz,2020.2.4,120.0026399664208,
,,,,0,0,0,0,97,0,97,0,,,,,,,,,,,,,,,,,,,,,,,,,,,,,,,,,,,,,,,,,,,,,,97,11.0,f,030_o_f_h_a.jpg,happy,d,17,1,744.3358783000149,744.6301321900334,744.8184247000609,744.976751289994,744.9812207000796,745.0222496899893,745.0271014000755,745.5154861900606,d,1,0.4720412999158725,472.0412999158725,745.0271014000755,745.5154861900606,745.5258792000823,747.0134526900598,EMOCONPILOT011,2020_Dec_30_1611,EmoCon_Pilot_120Hz,2020.2.4,120.0026399664208,
,,,,0,0,0,0,98,0,98,0,,,,,,,,,,,,,,,,,,,,,,,,,,,,,,,,,,,,,,,,,,,,,,98,12.0,f,040_y_f_n_a.jpg,neutral,s,17,1,747.0174437999958,747.31350119001,747.5188902000664,747.678858390043,747.6837971999776,747.7240262900829,747.7289202000247,748.4082632900332,s,1,0.6659872999880463,665.9872999880463,747.7289202000247,748.4082632900332,748.4142486000201,749.6552857900621,EMOCONPILOT011,2020_Dec_30_1611,EmoCon_Pilot_120Hz,2020.2.4,120.0026399664208,
,,,,0,0,0,0,99,0,99,0,,,,,,,,,,,,,,,,,,,,,,,,,,,,,,,,,,,,,,,,,,,,,,99,12.0,f,040_y_f_s_a.jpg,sad,a,3,1,749.6612471999833,749.9552089899895,749.9817820000462,750.0046363900998,750.0055050000083,750.0401962900884,750.0408162000822,750.6264877899899,s,0,0.5781142999185249,578.1142999185249,750.0408162000822,750.6264877899899,750.6350792000303,752.0801972900168,EMOCONPILOT011,2020_Dec_30_1611,EmoCon_Pilot_120Hz,2020.2.4,120.0026399664208,
,,,,0,0,0,0,100,0,100,0,,,,,,,,,,,,,,,,,,,,,,,,,,,,,,,,,,,,,,,,,,,,,,100,4.0,m,016_y_m_n_a.jpg,neutral,s,17,1,752.0834255000809,752.3801523900707,752.6244430000661,752.7809581900598,752.7859024000354,752.8271856900188,752.8324123000493,753.3095780900563,s,1,0.46657769999001175,466.57769999001175,752.8324123000493,753.3095780900563,753.321020900039,754.8720511900843,EMOCONPILOT011,2020_Dec_30_1611,EmoCon_Pilot_120Hz,2020.2.4,120.0026399664208,
,,,,0,0,0,0,101,0,101,0,,,,,,,,,,,,,,,,,,,,,,,,,,,,,,,,,,,,,,,,,,,,,,101,11.0,f,030_o_f_s_a.jpg,sad,a,3,1,754.8781944999937,755.1720518900198,755.3760068999836,755.4020736900508,755.4021401000209,755.439778290072,755.4394520000787,756.090082190081,a,1,0.6354512999532744,635.4512999532744,755.4394520000787,756.090082190081,756.0992714000167,757.4721456900821,EMOCONPILOT011,2020_Dec_30_1611,EmoCon_Pilot_120Hz,2020.2.4,120.0026399664208,
,,,,0,0,0,0,102,0,102,0,,,,,,,,,,,,,,,,,,,,,,,,,,,,,,,,,,,,,,,,,,,,,,102,3.0,m,013_y_m_h_a.jpg,happy,d,3,1,757.4776922999881,757.7721356900526,758.0082029000623,758.034382090054,758.0345604000613,758.0701742900652,758.0704264000524,759.1022768900381,d,1,1.0205401999410242,1020.5401999410242,758.0704264000524,759.1022768900381,759.1128678000532,760.4054633900174,EMOCONPILOT011,2020_Dec_30_1611,EmoCon_Pilot_120Hz,2020.2.4,120.0026399664208,
,,,,0,0,0,0,103,0,103,0,,,,,,,,,,,,,,,,,,,,,,,,,,,,,,,,,,,,,,,,,,,,,,103,2.0,m,008_y_m_s_a.jpg,sad,a,3,1,760.4107874000911,760.7054962900817,760.9329169000266,760.958273490041,760.9586077000713,760.993422090041,760.9930467000231,761.7231731899898,a,1,0.713863700046204,713.863700046204,760.9930467000231,761.7231731899898,761.7321288000094,763.4888951900299,EMOCONPILOT011,2020_Dec_30_1611,EmoCon_Pilot_120Hz,2020.2.4,120.0026399664208,
,,,,0,0,0,0,104,0,104,0,,,,,,,,,,,,,,,,,,,,,,,,,,,,,,,,,,,,,,,,,,,,,,104,11.0,f,030_o_f_s_a.jpg,sad,a,17,1,763.4950354000321,763.7888473900617,763.9919216000708,764.1614471900626,764.166326400009,764.2070771900122,764.211999900057,764.5986358900205,a,1,0.37509159999899566,375.09159999899566,764.211999900057,764.5986358900205,764.6100381000433,765.6803449900705,EMOCONPILOT011,2020_Dec_30_1611,EmoCon_Pilot_120Hz,2020.2.4,120.0026399664208,
,,,,0,0,0,0,105,0,105,0,,,,,,,,,,,,,,,,,,,,,,,,,,,,,,,,,,,,,,,,,,,,,,105,4.0,m,016_y_m_h_a.jpg,happy,d,17,1,765.685296599986,765.9806127900607,766.0041559999809,766.1407511900994,766.1454470000463,766.1861322900164,766.1914061000571,766.9248118900811,d,1,0.723651299951598,723.651299951598,766.1914061000571,766.9248118900811,766.9362089000642,768.888922990032,EMOCONPILOT011,2020_Dec_30_1611,EmoCon_Pilot_120Hz,2020.2.4,120.0026399664208,
,,,,0,0,0,0,106,0,106,0,,,,,,,,,,,,,,,,,,,,,,,,,,,,,,,,,,,,,,,,,,,,,,106,7.0,f,012_o_f_n_a.jpg,neutral,s,17,1,768.8939699000912,769.1890639899881,769.3969575000228,769.5580268900027,769.56199200009,769.59895819003,769.6020885000471,770.3372772900271,s,1,0.720906600006856,720.906600006856,769.6020885000471,770.3372772900271,770.3450362000149,771.8807745900355,EMOCONPILOT011,2020_Dec_30_1611,EmoCon_Pilot_120Hz,2020.2.4,120.0026399664208,
,,,,0,0,0,0,107,0,107,0,,,,,,,,,,,,,,,,,,,,,,,,,,,,,,,,,,,,,,,,,,,,,,107,11.0,f,030_o_f_h_a.jpg,happy,d,17,1,771.8871670999797,772.180690790026,772.3716264000395,772.5295618900215,772.5341257000109,772.5727306900895,772.5775302000111,772.9867697900278,d,1,0.39352190005593,393.52190005593,772.5775302000111,772.9867697900278,772.9974568000762,774.5307443900616,EMOCONPILOT011,2020_Dec_30_1611,EmoCon_Pilot_120Hz,2020.2.4,120.0026399664208,
,,,,0,0,0,0,108,0,108,0,,,,,,,,,,,,,,,,,,,,,,,,,,,,,,,,,,,,,,,,,,,,,,108,1.0,m,004_o_m_s_a.jpg,sad,a,3,1,774.53632319998,774.830750590039,774.8550300999777,774.8775928900228,774.8782009000424,774.9152559900773,774.9167155000614,775.7388667900465,a,1,0.8142741998890415,814.2741998890415,774.9167155000614,775.7388667900465,775.7498812000267,777.2475598899997,EMOCONPILOT011,2020_Dec_30_1611,EmoCon_Pilot_120Hz,2020.2.4,120.0026399664208,
,,,,0,0,0,0,109,0,109,0,,,,,,,,,,,,,,,,,,,,,,,,,,,,,,,,,,,,,,,,,,,,,,109,3.0,m,013_y_m_n_a.jpg,neutral,s,3,1,777.253059700015,777.5474911899888,777.7916538000572,777.8176661900594,777.8177577999886,777.8538538900553,777.8550996000413,778.3794405900059,s,1,0.5158104000147432,515.8104000147432,777.8550996000413,778.3794405900059,778.3876403000904,779.9058121899958,EMOCONPILOT011,2020_Dec_30_1611,EmoCon_Pilot_120Hz,2020.2.4,120.0026399664208,
,,,,0,0,0,0,110,0,110,0,,,,,,,,,,,,,,,,,,,,,,,,,,,,,,,,,,,,,,,,,,,,,,110,10.0,f,028_y_f_s_a.jpg,sad,a,3,1,779.9102343000704,780.2059653900448,780.2283553000307,780.25091339004,780.2517639000434,780.2903889900423,780.2918250000803,781.0219039900345,a,1,0.7193181999027729,719.3181999027729,780.2918250000803,781.0219039900345,781.033581100055,782.9558842900093,EMOCONPILOT011,2020_Dec_30_1611,EmoCon_Pilot_120Hz,2020.2.4,120.0026399664208,
,,,,0,0,0,0,111,0,111,0,,,,,,,,,,,,,,,,,,,,,,,,,,,,,,,,,,,,,,,,,,,,,,111,11.0,f,030_o_f_h_a.jpg,happy,d,3,1,782.9590771000367,783.2560224900604,783.4637562000426,783.4912101900787,783.493759999983,783.5312369900872,783.536490400089,784.0788002900896,d,1,0.5305289000971243,530.5289000971243,783.536490400089,784.0788002900896,784.0886722999858,785.9892956900527,EMOCONPILOT011,2020_Dec_30_1611,EmoCon_Pilot_120Hz,2020.2.4,120.0026399664208,
,,,,0,0,0,0,112,0,112,0,,,,,,,,,,,,,,,,,,,,,,,,,,,,,,,,,,,,,,,,,,,,,,112,7.0,f,012_o_f_n_a.jpg,neutral,s,3,1,785.9931918000802,786.2892933900818,786.5033444000874,786.5289675900364,786.529329800047,786.5669399900013,786.5722856000066,787.190635890083,s,1,0.6068979999981821,606.8979999981821,786.5722856000066,787.190635890083,787.2034802000271,788.3893764899927,EMOCONPILOT011,2020_Dec_30_1611,EmoCon_Pilot_120Hz,2020.2.4,120.0026399664208,
,,,,0,0,0,0,113,0,113,0,,,,,,,,,,,,,,,,,,,,,,,,,,,,,,,,,,,,,,,,,,,,,,113,2.0,m,008_y_m_s_a.jpg,sad,a,3,1,788.3934812999796,788.6893306900398,788.9178485000739,788.9461943900329,788.9499852000736,788.9893866900471,788.9942691000178,789.5561194900307,a,1,0.5448323000455275,544.8323000455275,788.9942691000178,789.5561194900307,789.5675290999934,790.9477287900751,EMOCONPILOT011,2020_Dec_30_1611,EmoCon_Pilot_120Hz,2020.2.4,120.0026399664208,
,,,,0,0,0,0,114,0,114,0,,,,,,,,,,,,,,,,,,,,,,,,,,,,,,,,,,,,,,,,,,,,,,114,11.0,f,030_o_f_h_a.jpg,happy,d,17,1,790.9519648000132,791.247814790078,791.4469534000382,791.6051450899919,791.61016260006,791.6505371899926,791.6556482000742,792.033059389994,d,1,0.3633847999153659,363.3847999153659,791.6556482000742,792.033059389994,792.0444191000424,793.9977986900718,EMOCONPILOT011,2020_Dec_30_1611,EmoCon_Pilot_120Hz,2020.2.4,120.0026399664208,
,,,,0,0,0,0,115,0,115,0,,,,,,,,,,,,,,,,,,,,,,,,,,,,,,,,,,,,,,,,,,,,,,115,3.0,m,013_y_m_h_a.jpg,happy,d,3,1,794.0020156999817,794.2977847900125,794.5269880000269,794.5523346900824,794.5529458000092,794.5906644900912,794.5905589000322,795.2380449900753,s,0,0.6365753000136465,636.5753000136465,794.5905589000322,795.2380449900753,795.2496293000877,796.2812837900943,EMOCONPILOT011,2020_Dec_30_1611,EmoCon_Pilot_120Hz,2020.2.4,120.0026399664208,
,,,,0,0,0,0,116,0,116,0,,,,,,,,,,,,,,,,,,,,,,,,,,,,,,,,,,,,,,,,,,,,,,116,2.0,m,008_y_m_s_a.jpg,sad,a,17,1,796.2865054000868,796.5812319900957,796.8132270000642,796.980070890009,796.9849199000746,797.0250241900445,797.0302923000418,797.5297419899958,a,1,0.4847390999784693,484.7390999784693,797.0302923000418,797.5297419899958,797.5409821000649,799.1146666900837,EMOCONPILOT011,2020_Dec_30_1611,EmoCon_Pilot_120Hz,2020.2.4,120.0026399664208,
,,,,0,0,0,0,117,0,117,0,,,,,,,,,,,,,,,,,,,,,,,,,,,,,,,,,,,,,,,,,,,,,,117,3.0,m,013_y_m_n_a.jpg,neutral,s,17,1,799.1206106999889,799.414691590087,799.648294200073,799.808179289999,799.813066200004,799.8538396900636,799.8591578999767,800.6417460899917,s,1,0.7679685999173671,767.9685999173671,799.8591578999767,800.6417460899917,800.6520321000135,801.7729469900602,EMOCONPILOT011,2020_Dec_30_1611,EmoCon_Pilot_120Hz,2020.2.4,120.0026399664208,
,,,,0,0,0,0,118,0,118,0,,,,,,,,,,,,,,,,,,,,,,,,,,,,,,,,,,,,,,,,,,,,,,118,6.0,m,033_o_m_n_a.jpg,neutral,s,17,1,801.7771386000095,802.0730502900784,802.2690643999958,802.4314231900149,802.4346606000327,802.4735328900512,802.4774891000707,803.0418351899949,s,1,0.5495347999967635,549.5347999967635,802.4774891000707,803.0418351899949,803.0531938000349,804.8981564900256,EMOCONPILOT011,2020_Dec_30_1611,EmoCon_Pilot_120Hz,2020.2.4,120.0026399664208,
,,,,0,0,0,0,119,0,119,0,,,,,,,,,,,,,,,,,,,,,,,,,,,,,,,,,,,,,,,,,,,,,,119,6.0,m,033_o_m_n_a.jpg,neutral,s,17,1,804.9037096999818,805.1981639900129,805.3932025000686,805.564522190101,805.569255999988,805.6088251900743,805.6136704999954,806.0197147900122,s,1,0.3895238999975845,389.5238999975845,805.6136704999954,806.0197147900122,806.0309568999801,807.6147836900433,EMOCONPILOT011,2020_Dec_30_1611,EmoCon_Pilot_120Hz,2020.2.4,120.0026399664208,
,,,,1,0,1,0,0,0,0,0,,,,,,,,,,,,,,,,,,,,,,,,,,,,,,,,,,,,,,,807.7078291000798,809.5216422900208,g,1.7991272999206558,1799.1272999206558,807.7078291000798,809.5216422900208,0,1.0,m,004_o_m_s_a.jpg,sad,a,2,2,809.5253531000344,809.8147208901006,809.8369124000892,809.8516768900096,809.8530868000817,809.8910350900493,809.8921085000038,811.2101505900151,s,0,1.30309030006174,1303.09030006174,809.8921085000038,811.2101505900151,811.2219026000239,812.6149650900276,EMOCONPILOT011,2020_Dec_30_1611,EmoCon_Pilot_120Hz,2020.2.4,120.0026399664208,
,,,,1,0,1,0,1,0,1,0,,,,,,,,,,,,,,,,,,,,,,,,,,,,,,,,,,,,,,,,,,,,,,1,9.0,f,021_o_f_n_a.jpg,neutral,s,17,2,812.6218746000668,812.9149288900313,813.2726280000061,813.433992090018,813.4385662000859,813.4792110900977,813.4843849000754,814.2747188900481,s,1,0.7825675999047235,782.5675999047235,813.4843849000754,814.2747188900481,814.2832778000738,815.7565376900253,EMOCONPILOT011,2020_Dec_30_1611,EmoCon_Pilot_120Hz,2020.2.4,120.0026399664208,
,,,,1,0,1,0,2,0,2,0,,,,,,,,,,,,,,,,,,,,,,,,,,,,,,,,,,,,,,,,,,,,,,2,11.0,f,030_o_f_s_a.jpg,sad,a,2,2,815.7571975000901,816.0565914900159,816.2658343000803,816.2831259900355,816.2840512000257,816.3186222900055,816.3183550999966,817.3079066900187,d,0,0.9727407000027597,972.7407000027597,816.3183550999966,817.3079066900187,817.3154770000838,818.8733973900904,EMOCONPILOT011,2020_Dec_30_1611,EmoCon_Pilot_120Hz,2020.2.4,120.0026399664208,
,,,,1,0,1,0,3,0,3,0,,,,,,,,,,,,,,,,,,,,,,,,,,,,,,,,,,,,,,,,,,,,,,3,10.0,f,028_y_f_s_a.jpg,sad,a,17,2,818.8789777000202,819.1734575900133,819.195385600091,819.3333056900534,819.3367858000565,819.3749306900078,819.3785951000173,820.0737314900267,a,1,0.688319299952127,688.319299952127,819.3785951000173,820.0737314900267,820.0813499999931,821.2733855900238,EMOCONPILOT011,2020_Dec_30_1611,EmoCon_Pilot_120Hz,2020.2.4,120.0026399664208,
,,,,1,0,1,0,4,0,4,0,,,,,,,,,,,,,,,,,,,,,,,,,,,,,,,,,,,,,,,,,,,,,,4,6.0,m,033_o_m_n_a.jpg,neutral,s,17,2,821.2774813000578,821.5733980900492,821.7692584000761,821.9299329900765,821.9335123000201,821.9715203900938,821.9753385999938,822.3787018900854,s,1,0.3876246999716386,387.6246999716386,821.9753385999938,822.3787018900854,822.3842231000308,823.8067916900269,EMOCONPILOT011,2020_Dec_30_1611,EmoCon_Pilot_120Hz,2020.2.4,120.0026399664208,
,,,,1,0,1,0,5,0,5,0,,,,,,,,,,,,,,,,,,,,,,,,,,,,,,,,,,,,,,,,,,,,,,5,1.0,m,004_o_m_n_a.jpg,neutral,s,2,2,823.8093731000554,824.106914590078,824.3036590000847,824.3200310900226,824.3204309000866,824.3579747900018,824.358023900073,824.8949017900392,s,1,0.5249805001076311,524.9805001076311,824.358023900073,824.8949017900392,824.9023196999915,826.4901743899915,EMOCONPILOT011,2020_Dec_30_1611,EmoCon_Pilot_120Hz,2020.2.4,120.0026399664208,
,,,,1,0,1,0,6,0,6,0,,,,,,,,,,,,,,,,,,,,,,,,,,,,,,,,,,,,,,,,,,,,,,6,12.0,f,040_y_f_s_a.jpg,sad,a,17,2,826.4956874999916,826.7902818900417,826.8160906999838,826.9501466900925,826.9545279000886,826.9954284900683,827.0007946999976,827.6820716900635,a,1,0.6742380000650883,674.2380000650883,827.0007946999976,827.6820716900635,827.6937205999857,829.1235782900709,EMOCONPILOT011,2020_Dec_30_1611,EmoCon_Pilot_120Hz,2020.2.4,120.0026399664208,
,,,,1,0,1,0,7,0,7,0,,,,,,,,,,,,,,,,,,,,,,,,,,,,,,,,,,,,,,,,,,,,,,7,9.0,f,021_o_f_n_a.jpg,neutral,s,17,2,829.1295606000349,829.423590890097,829.6316142000724,829.7926790900179,829.7973775999853,829.8382265900378,829.8432002000045,830.3459397900966,s,1,0.48777590005192906,487.77590005192906,829.8432002000045,830.3459397900966,830.3517295999918,831.4820115900017,EMOCONPILOT011,2020_Dec_30_1611,EmoCon_Pilot_120Hz,2020.2.4,120.0026399664208,
,,,,1,0,1,0,8,0,8,0,,,,,,,,,,,,,,,,,,,,,,,,,,,,,,,,,,,,,,,,,,,,,,8,9.0,f,021_o_f_s_a.jpg,sad,a,17,2,831.4869620000245,831.7818978899974,831.8038720000768,831.9418212900288,831.9421255000634,831.9832644899958,831.9864652000833,832.4495828899904,a,1,0.4486249000765383,448.6249000765383,831.9864652000833,832.4495828899904,832.4586628000252,833.7570668900968,EMOCONPILOT011,2020_Dec_30_1611,EmoCon_Pilot_120Hz,2020.2.4,120.0026399664208,
,,,,1,0,1,0,9,0,9,0,,,,,,,,,,,,,,,,,,,,,,,,,,,,,,,,,,,,,,,,,,,,,,9,4.0,m,016_y_m_s_a.jpg,sad,a,17,2,833.7625940000871,834.0571154900477,834.0783083999995,834.208612190059,834.212743800017,834.2515780900954,834.2550304000033,834.7486935900175,a,1,0.4839444000972435,483.9444000972435,834.2550304000033,834.7486935900175,834.760418400052,836.5655036900076,EMOCONPILOT011,2020_Dec_30_1611,EmoCon_Pilot_120Hz,2020.2.4,120.0026399664208,
,,,,1,0,1,0,10,0,10,0,,,,,,,,,,,,,,,,,,,,,,,,,,,,,,,,,,,,,,,,,,,,,,10,7.0,f,012_o_f_n_a.jpg,neutral,s,17,2,836.5708021000028,836.8654695900274,837.0919135999866,837.2553906900226,837.2587970000459,837.2973641900695,837.3013314000564,837.9632377900067,s,1,0.6456106000114232,645.6106000114232,837.3013314000564,837.9632377900067,837.9713468999835,839.6904441900202,EMOCONPILOT011,2020_Dec_30_1611,EmoCon_Pilot_120Hz,2020.2.4,120.0026399664208,
,,,,1,0,1,0,11,0,11,0,,,,,,,,,,,,,,,,,,,,,,,,,,,,,,,,,,,,,,,,,,,,,,11,2.0,m,008_y_m_n_a.jpg,neutral,s,2,2,839.6945770999882,839.9904773900868,840.2159058999969,840.232576389995,840.2333251000382,840.2683981899987,840.2682449000422,840.9218610900804,s,1,0.6388446999480948,638.8446999480948,840.2682449000422,840.9218610900804,840.9311404000036,842.098856690072,EMOCONPILOT011,2020_Dec_30_1611,EmoCon_Pilot_120Hz,2020.2.4,120.0026399664208,
,,,,1,0,1,0,12,0,12,0,,,,,,,,,,,,,,,,,,,,,,,,,,,,,,,,,,,,,,,,,,,,,,12,1.0,m,004_o_m_s_a.jpg,sad,a,2,2,842.1038337000646,842.3988299900317,842.4221705000382,842.4371810900863,842.437589899986,842.474983190035,842.4763250000542,843.2102382901008,a,1,0.7187023999867961,718.7023999867961,842.4763250000542,843.2102382901008,843.2133382000029,844.7989190900349,EMOCONPILOT011,2020_Dec_30_1611,EmoCon_Pilot_120Hz,2020.2.4,120.0026399664208,
,,,,1,0,1,0,13,0,13,0,,,,,,,,,,,,,,,,,,,,,,,,,,,,,,,,,,,,,,,,,,,,,,13,7.0,f,012_o_f_h_a.jpg,happy,d,2,2,844.8042392000789,845.0989152900526,845.1138147000456,845.1292969900766,845.129454900045,845.1668112900458,845.1670313000213,846.8004354900564,None,0,,,845.1670313000213,846.8004354900564,846.8052160000661,847.8657158900402,EMOCONPILOT011,2020_Dec_30_1611,EmoCon_Pilot_120Hz,2020.2.4,120.0026399664208,
,,,,1,0,1,0,14,0,14,0,,,,,,,,,,,,,,,,,,,,,,,,,,,,,,,,,,,,,,,,,,,,,,14,3.0,m,013_y_m_h_a.jpg,happy,d,2,2,847.8698912999826,848.1657271900564,848.3984521999955,848.4154878900969,848.4160754000768,848.4505640900112,848.4501600000076,849.1222132900381,d,1,0.6570393000729382,657.0393000729382,848.4501600000076,849.1222132900381,849.1328914000187,850.4990070900764,EMOCONPILOT011,2020_Dec_30_1611,EmoCon_Pilot_120Hz,2020.2.4,120.0026399664208,
,,,,1,0,1,0,15,0,15,0,,,,,,,,,,,,,,,,,,,,,,,,,,,,,,,,,,,,,,,,,,,,,,15,11.0,f,030_o_f_n_a.jpg,neutral,s,17,2,850.5030117999995,850.7989891899866,851.0029682000168,851.1623445900274,851.1669872000348,851.2079311899957,851.2132216000464,851.7347712900606,s,1,0.509565299958922,509.56529995892197,851.2132216000464,851.7347712900606,851.7377111000242,853.3741232900298,EMOCONPILOT011,2020_Dec_30_1611,EmoCon_Pilot_120Hz,2020.2.4,120.0026399664208,
,,,,1,0,1,0,16,0,16,0,,,,,,,,,,,,,,,,,,,,,,,,,,,,,,,,,,,,,,,,,,,,,,16,3.0,m,013_y_m_n_a.jpg,neutral,s,2,2,853.3796748000896,853.6741173900315,853.906785500003,853.9238791900804,853.924599400023,853.9599248900428,853.9596220999956,854.6425961900619,s,1,0.6754605000605807,675.4605000605807,853.9596220999956,854.6425961900619,854.6534852000186,856.2241581900395,EMOCONPILOT011,2020_Dec_30_1611,EmoCon_Pilot_120Hz,2020.2.4,120.0026399664208,
,,,,1,0,1,0,17,0,17,0,,,,,,,,,,,,,,,,,,,,,,,,,,,,,,,,,,,,,,,,,,,,,,17,9.0,f,021_o_f_h_a.jpg,happy,d,17,2,856.2295254999772,856.5241756901029,856.7458187000593,856.9140368899913,856.9186739000725,856.9595708900248,856.9645945000229,857.422313390032,d,1,0.44661560002714396,446.61560002714396,856.9645945000229,857.422313390032,857.4330489999847,858.907544690033,EMOCONPILOT011,2020_Dec_30_1611,EmoCon_Pilot_120Hz,2020.2.4,120.0026399664208,
,,,,1,0,1,0,18,0,18,0,,,,,,,,,,,,,,,,,,,,,,,,,,,,,,,,,,,,,,,,,,,,,,18,3.0,m,013_y_m_s_a.jpg,sad,a,17,2,858.9129434999777,859.2076168900472,859.2322383000283,859.3676077900105,859.3721602000296,859.4120074900217,859.416558100027,859.8838019900373,a,1,0.4587957999901846,458.7957999901846,859.416558100027,859.8838019900373,859.8962584000546,861.5077056900715,EMOCONPILOT011,2020_Dec_30_1611,EmoCon_Pilot_120Hz,2020.2.4,120.0026399664208,
,,,,1,0,1,0,19,0,19,0,,,,,,,,,,,,,,,,,,,,,,,,,,,,,,,,,,,,,,,,,,,,,,19,10.0,f,028_y_f_h_a.jpg,happy,d,2,2,861.5131112000672,861.8076709900866,861.8281781000551,861.8440283900942,861.8446444000583,861.8785934900749,861.8784999999916,862.4856567900512,d,1,0.5965836000395939,596.5836000395939,861.8784999999916,862.4856567900512,862.4949981999816,864.1326790901018,EMOCONPILOT011,2020_Dec_30_1611,EmoCon_Pilot_120Hz,2020.2.4,120.0026399664208,
,,,,1,0,1,0,20,0,20,0,,,,,,,,,,,,,,,,,,,,,,,,,,,,,,,,,,,,,,,,,,,,,,20,4.0,m,016_y_m_h_a.jpg,happy,d,17,2,864.137476200005,864.4327298900695,864.4535800000886,864.5842524900451,864.587766300072,864.625445490086,864.6279749000678,865.0586125900387,d,1,0.423027400043793,423.027400043793,864.6279749000678,865.0586125900387,865.0658616999863,866.9493534899899,EMOCONPILOT011,2020_Dec_30_1611,EmoCon_Pilot_120Hz,2020.2.4,120.0026399664208,
,,,,1,0,1,0,21,0,21,0,,,,,,,,,,,,,,,,,,,,,,,,,,,,,,,,,,,,,,,,,,,,,,21,6.0,m,033_o_m_h_a.jpg,happy,d,2,2,866.9536709000822,867.2494336900651,867.2699557000306,867.2851817900897,867.2853846000507,867.3196363900439,867.3196364000905,868.0305420900346,d,1,0.6994347999570891,699.4347999570891,867.3196364000905,868.0305420900346,868.0412755000871,869.1411806899938,EMOCONPILOT011,2020_Dec_30_1611,EmoCon_Pilot_120Hz,2020.2.4,120.0026399664208,
,,,,1,0,1,0,22,0,22,0,,,,,,,,,,,,,,,,,,,,,,,,,,,,,,,,,,,,,,,,,,,,,,22,5.0,m,027_o_m_s_a.jpg,sad,a,2,2,869.1465191000607,869.4412041901029,869.4665883000707,869.4828732900438,869.4844395000255,869.5216093900032,869.5231910999864,870.2808781900327,s,0,0.7437935000052676,743.7935000052676,869.5231910999864,870.2808781900327,870.2892045000335,871.8578766900697,EMOCONPILOT011,2020_Dec_30_1611,EmoCon_Pilot_120Hz,2020.2.4,120.0026399664208,
,,,,1,0,1,0,23,0,23,0,,,,,,,,,,,,,,,,,,,,,,,,,,,,,,,,,,,,,,,,,,,,,,23,10.0,f,028_y_f_n_a.jpg,neutral,s,2,2,871.8621504000621,872.1578090900672,872.3842837000266,872.400906790013,872.4012124000583,872.4352706900914,872.4350652000867,873.0649661899894,s,1,0.6159961000084877,615.9961000084877,872.4350652000867,873.0649661899894,873.0718116000062,875.0578451900161,EMOCONPILOT011,2020_Dec_30_1611,EmoCon_Pilot_120Hz,2020.2.4,120.0026399664208,
,,,,1,0,1,0,24,0,24,0,,,,,,,,,,,,,,,,,,,,,,,,,,,,,,,,,,,,,,,,,,,,,,24,9.0,f,021_o_f_n_a.jpg,neutral,s,2,2,875.061950400006,875.3579157900182,875.5614778000163,875.578994890058,875.5795099000679,875.6174837899977,875.6226670000469,876.3663170900778,s,1,0.7325875000096858,732.5875000096858,875.6226670000469,876.3663170900778,876.3738755000522,877.4995781900012,EMOCONPILOT011,2020_Dec_30_1611,EmoCon_Pilot_120Hz,2020.2.4,120.0026399664208,
,,,,1,0,1,0,25,0,25,0,,,,,,,,,,,,,,,,,,,,,,,,,,,,,,,,,,,,,,,,,,,,,,25,8.0,f,019_m_f_h_a.jpg,happy,d,2,2,877.5037892999826,877.7995724900044,877.821486000088,877.837695190066,877.8425969000673,877.8824635900907,877.8876232000766,878.489195989992,d,1,0.5874318000860512,587.4318000860512,877.8876232000766,878.489195989992,878.5005842000246,879.7579595900257,EMOCONPILOT011,2020_Dec_30_1611,EmoCon_Pilot_120Hz,2020.2.4,120.0026399664208,
,,,,1,0,1,0,26,0,26,0,,,,,,,,,,,,,,,,,,,,,,,,,,,,,,,,,,,,,,,,,,,,,,26,4.0,m,016_y_m_n_a.jpg,neutral,s,2,2,879.7622336000204,880.057967090013,880.3022385999793,880.3197275900399,880.3199682000559,880.3546037900611,880.3549730000086,881.5950617900468,s,1,1.224341099965386,1224.341099965386,880.3549730000086,881.5950617900468,881.6053524999879,882.9330685900874,EMOCONPILOT011,2020_Dec_30_1611,EmoCon_Pilot_120Hz,2020.2.4,120.0026399664208,
,,,,1,0,1,0,27,0,27,0,,,,,,,,,,,,,,,,,,,,,,,,,,,,,,,,,,,,,,,,,,,,,,27,1.0,m,004_o_m_h_a.jpg,happy,d,17,2,882.9383449000306,883.2331281900057,883.4298852999927,883.5884649899905,883.5933887000429,883.63398449003,883.639129600022,884.0982013900881,d,1,0.45204899995587766,452.04899995587766,883.639129600022,884.0982013900881,884.1098454000894,886.0744289900991,EMOCONPILOT011,2020_Dec_30_1611,EmoCon_Pilot_120Hz,2020.2.4,120.0026399664208,
,,,,1,0,1,0,28,0,28,0,,,,,,,,,,,,,,,,,,,,,,,,,,,,,,,,,,,,,,,,,,,,,,28,10.0,f,028_y_f_s_a.jpg,sad,a,2,2,886.0748868000228,886.3747659900342,886.4046665000496,886.420418390038,886.4210797999986,886.4593198900926,886.4593532000436,887.5930106900283,s,0,1.1198102999478579,1119.8102999478579,886.4593532000436,887.5930106900283,887.603133500088,888.7666217900929,EMOCONPILOT011,2020_Dec_30_1611,EmoCon_Pilot_120Hz,2020.2.4,120.0026399664208,
,,,,1,0,1,0,29,0,29,0,,,,,,,,,,,,,,,,,,,,,,,,,,,,,,,,,,,,,,,,,,,,,,29,5.0,m,027_o_m_h_a.jpg,happy,d,17,2,888.7717304000398,889.0665344900568,889.3887446000008,889.5493973900681,889.5541370999999,889.5949138900847,889.5990367000923,889.9853634900297,d,1,0.37228010001126677,372.28010001126677,889.5990367000923,889.9853634900297,889.9967585999984,891.3916856899974,EMOCONPILOT011,2020_Dec_30_1611,EmoCon_Pilot_120Hz,2020.2.4,120.0026399664208,
,,,,1,0,1,0,30,0,30,0,,,,,,,,,,,,,,,,,,,,,,,,,,,,,,,,,,,,,,,,,,,,,,30,10.0,f,028_y_f_h_a.jpg,happy,d,2,2,891.3975523000117,891.6914542900282,891.7028506000061,891.7178884900292,891.7196732000448,891.7549887899892,891.7563572999788,892.9716216900503,d,1,1.1988492000382394,1198.8492000382394,891.7563572999788,892.9716216900503,892.9808557999786,894.1749233899988,EMOCONPILOT011,2020_Dec_30_1611,EmoCon_Pilot_120Hz,2020.2.4,120.0026399664208,
,,,,1,0,1,0,31,0,31,0,,,,,,,,,,,,,,,,,,,,,,,,,,,,,,,,,,,,,,,,,,,,,,31,5.0,m,027_o_m_h_a.jpg,happy,d,2,2,894.1781151000177,894.4750109900139,894.6962894999888,894.7135512900655,894.7167303999886,894.7566729900078,894.7582230999833,895.5504817900597,d,1,0.7809381000697613,780.9381000697613,894.7582230999833,895.5504817900597,895.562369100051,896.7000289900112,EMOCONPILOT011,2020_Dec_30_1611,EmoCon_Pilot_120Hz,2020.2.4,120.0026399664208,
,,,,1,0,1,0,32,0,32,0,,,,,,,,,,,,,,,,,,,,,,,,,,,,,,,,,,,,,,,,,,,,,,32,9.0,f,021_o_f_n_a.jpg,neutral,s,2,2,896.7071533000562,897.0000375900069,897.2122189999791,897.2302001900622,897.2350097000599,897.2758379900712,897.2809650000418,897.9620654900442,s,1,0.6661899000173435,666.1899000173435,897.2809650000418,897.9620654900442,897.9733781000832,899.4751402900671,EMOCONPILOT011,2020_Dec_30_1611,EmoCon_Pilot_120Hz,2020.2.4,120.0026399664208,
,,,,1,0,1,0,33,0,33,0,,,,,,,,,,,,,,,,,,,,,,,,,,,,,,,,,,,,,,,,,,,,,,33,3.0,m,013_y_m_s_a.jpg,sad,a,17,2,899.4804973000428,899.7751975900843,899.8010501000099,899.935002190026,899.9382662000135,899.9762809900218,899.9795933000278,900.505883790052,a,1,0.5116098000435159,511.60980004351586,899.9795933000278,900.505883790052,900.5156746000284,901.8335020900355,EMOCONPILOT011,2020_Dec_30_1611,EmoCon_Pilot_120Hz,2020.2.4,120.0026399664208,
,,,,1,0,1,0,34,0,34,0,,,,,,,,,,,,,,,,,,,,,,,,,,,,,,,,,,,,,,,,,,,,,,34,1.0,m,004_o_m_n_a.jpg,neutral,s,2,2,901.836286899983,902.1333300900529,902.3290959000587,902.3467221900006,902.3467804000247,902.3846530899988,902.3841393000912,903.0384961900651,s,1,0.6429304000921547,642.9304000921547,902.3841393000912,903.0384961900651,903.0469371000072,905.0084879900911,EMOCONPILOT011,2020_Dec_30_1611,EmoCon_Pilot_120Hz,2020.2.4,120.0026399664208,
,,,,1,0,1,0,35,0,35,0,,,,,,,,,,,,,,,,,,,,,,,,,,,,,,,,,,,,,,,,,,,,,,35,12.0,f,040_y_f_h_a.jpg,happy,d,17,2,905.0140079000266,905.308612890041,905.3303708999883,905.4685072900844,905.4718611000571,905.5116814900772,905.5161821000511,905.9246995900409,d,1,0.39104749995749444,391.04749995749444,905.5161821000511,905.9246995900409,905.9348711000057,907.5668519900297,EMOCONPILOT011,2020_Dec_30_1611,EmoCon_Pilot_120Hz,2020.2.4,120.0026399664208,
,,,,1,0,1,0,36,0,36,0,,,,,,,,,,,,,,,,,,,,,,,,,,,,,,,,,,,,,,,,,,,,,,36,10.0,f,028_y_f_n_a.jpg,neutral,s,17,2,907.5707418000093,907.8668736900087,908.0723358000396,908.2316116900998,908.2350019000005,908.2757081900141,908.280614700052,908.7788137900294,s,1,0.49056509998627007,490.56509998627007,908.280614700052,908.7788137900294,908.7923329999903,910.5087380900164,EMOCONPILOT011,2020_Dec_30_1611,EmoCon_Pilot_120Hz,2020.2.4,120.0026399664208,
,,,,1,0,1,0,37,0,37,0,,,,,,,,,,,,,,,,,,,,,,,,,,,,,,,,,,,,,,,,,,,,,,37,11.0,f,030_o_f_n_a.jpg,neutral,s,17,2,910.5142854000442,910.80867129002,911.0106958000688,911.1704324900289,911.1738328000065,911.214038090047,911.2193443999859,911.6367789900047,s,1,0.4079093000618741,407.9093000618741,911.2193443999859,911.6367789900047,911.6483838000568,912.7419904900831,EMOCONPILOT011,2020_Dec_30_1611,EmoCon_Pilot_120Hz,2020.2.4,120.0026399664208,
,,,,1,0,1,0,38,0,38,0,,,,,,,,,,,,,,,,,,,,,,,,,,,,,,,,,,,,,,,,,,,,,,38,1.0,m,004_o_m_h_a.jpg,happy,d,2,2,912.7459101000568,913.0419799900498,913.2406186000444,913.2569190900191,913.2574050000403,913.293047990033,913.2944874999812,913.904981590074,d,1,0.5966303000459448,596.6303000459448,913.2944874999812,913.904981590074,913.9166797000216,915.0920290900045,EMOCONPILOT011,2020_Dec_30_1611,EmoCon_Pilot_120Hz,2020.2.4,120.0026399664208,
,,,,1,0,1,0,39,0,39,0,,,,,,,,,,,,,,,,,,,,,,,,,,,,,,,,,,,,,,,,,,,,,,39,6.0,m,033_o_m_h_a.jpg,happy,d,17,2,915.0960865999805,915.39203289008,915.4160531000234,915.5521437900258,915.5566623000195,915.5973311900976,915.6025152000366,916.0121019900195,d,1,0.40058070002123713,400.58070002123713,915.6025152000366,916.0121019900195,916.0170921999961,917.0505309900851,EMOCONPILOT011,2020_Dec_30_1611,EmoCon_Pilot_120Hz,2020.2.4,120.0026399664208,
,,,,1,0,1,0,40,0,40,0,,,,,,,,,,,,,,,,,,,,,,,,,,,,,,,,,,,,,,,,,,,,,,40,7.0,f,012_o_f_h_a.jpg,happy,d,2,2,917.0562766999938,917.3504954900942,917.3738178000785,917.3887897900655,917.3888962999918,917.4264346900978,917.426733899978,917.9869388900348,d,1,0.5445241000270471,544.5241000270471,917.426733899978,917.9869388900348,917.999924600008,919.7255222900654,EMOCONPILOT011,2020_Dec_30_1611,EmoCon_Pilot_120Hz,2020.2.4,120.0026399664208,
,,,,1,0,1,0,41,0,41,0,,,,,,,,,,,,,,,,,,,,,,,,,,,,,,,,,,,,,,,,,,,,,,41,6.0,m,033_o_m_n_a.jpg,neutral,s,17,2,919.731111500063,920.0255553900148,920.2304513000418,920.4006648900337,920.4052377000917,920.4466769900988,920.4517567000585,920.8689336900949,s,1,0.407379399985075,407.379399985075,920.4517567000585,920.8689336900949,920.8803966999985,922.3506157900789,EMOCONPILOT011,2020_Dec_30_1611,EmoCon_Pilot_120Hz,2020.2.4,120.0026399664208,
,,,,1,0,1,0,42,0,42,0,,,,,,,,,,,,,,,,,,,,,,,,,,,,,,,,,,,,,,,,,,,,,,42,7.0,f,012_o_f_h_a.jpg,happy,d,2,2,922.3559482999844,922.650577790069,922.6715732000303,922.6875666899956,922.6880875000497,922.7224088899908,922.7220910000615,923.6573502900661,d,1,0.9211061999667436,921.1061999667436,922.7220910000615,923.6573502900661,923.6653987000464,925.3673813900328,EMOCONPILOT011,2020_Dec_30_1611,EmoCon_Pilot_120Hz,2020.2.4,120.0026399664208,
,,,,1,0,1,0,43,0,43,0,,,,,,,,,,,,,,,,,,,,,,,,,,,,,,,,,,,,,,,,,,,,,,43,5.0,m,027_o_m_h_a.jpg,happy,d,17,2,925.3728933000239,925.6674159899936,926.0011861000676,926.1612654900761,926.16493920004,926.2030275900266,926.2061295000603,926.9936601899914,d,1,0.7731123000849038,773.1123000849038,926.2061295000603,926.9936601899914,927.0028488000389,928.1339567900519,EMOCONPILOT011,2020_Dec_30_1611,EmoCon_Pilot_120Hz,2020.2.4,120.0026399664208,
,,,,1,0,1,0,44,0,44,0,,,,,,,,,,,,,,,,,,,,,,,,,,,,,,,,,,,,,,,,,,,,,,44,10.0,f,028_y_f_s_a.jpg,sad,a,2,2,928.1379128000699,928.4339679900673,928.4493559000548,928.4641187900794,928.4650740000652,928.5018245899934,928.5019640000537,929.3109923899989,s,0,0.7971036999952048,797.1036999952048,928.5019640000537,929.3109923899989,929.3171951000113,931.2841712900787,EMOCONPILOT011,2020_Dec_30_1611,EmoCon_Pilot_120Hz,2020.2.4,120.0026399664208,
,,,,1,0,1,0,45,0,45,0,,,,,,,,,,,,,,,,,,,,,,,,,,,,,,,,,,,,,,,,,,,,,,45,7.0,f,012_o_f_n_a.jpg,neutral,s,17,2,931.289980600006,931.5840586900828,931.7967771000694,931.959100390051,931.9638086999767,932.0024291900569,932.0075885000406,932.5463510900387,s,1,0.5235474000219256,523.5474000219256,932.0075885000406,932.5463510900387,932.5566401000833,933.9592241900624,EMOCONPILOT011,2020_Dec_30_1611,EmoCon_Pilot_120Hz,2020.2.4,120.0026399664208,
,,,,1,0,1,0,46,0,46,0,,,,,,,,,,,,,,,,,,,,,,,,,,,,,,,,,,,,,,,,,,,,,,46,1.0,m,004_o_m_n_a.jpg,neutral,s,2,2,933.9647285999963,934.2591565900599,934.4627956000622,934.4796799900593,934.4800182000035,934.5142896900303,934.513838200015,935.1990659900126,s,1,0.6731722999829799,673.1722999829799,934.513838200015,935.1990659900126,935.207460100064,936.3424988900894,EMOCONPILOT011,2020_Dec_30_1611,EmoCon_Pilot_120Hz,2020.2.4,120.0026399664208,
,,,,1,0,1,0,47,0,47,0,,,,,,,,,,,,,,,,,,,,,,,,,,,,,,,,,,,,,,,,,,,,,,47,9.0,f,021_o_f_h_a.jpg,happy,d,2,2,936.3454769999953,936.6424667900079,936.8482140999986,936.8653443900054,936.865993799991,936.902073990053,936.9015349000692,937.5955916900072,d,1,0.6777110999682918,677.7110999682918,936.9015349000692,937.5955916900072,937.6082590000005,938.684333290055,EMOCONPILOT011,2020_Dec_30_1611,EmoCon_Pilot_120Hz,2020.2.4,120.0026399664208,
,,,,1,0,1,0,48,0,48,0,,,,,,,,,,,,,,,,,,,,,,,,,,,,,,,,,,,,,,,,,,,,,,48,10.0,f,028_y_f_n_a.jpg,neutral,s,2,2,938.6898800000781,938.984365689999,939.1767276000464,939.1935720900889,939.1943673000205,939.2295247900416,939.229493800085,939.9970737900236,s,1,0.7576212999410927,757.6212999410927,939.229493800085,939.9970737900236,940.0063492000336,941.0594120900729,EMOCONPILOT011,2020_Dec_30_1611,EmoCon_Pilot_120Hz,2020.2.4,120.0026399664208,
,,,,1,0,1,0,49,0,49,0,,,,,,,,,,,,,,,,,,,,,,,,,,,,,,,,,,,,,,,,,,,,,,49,7.0,f,012_o_f_h_a.jpg,happy,d,2,2,941.0649525000481,941.3593115900527,941.3767418999923,941.392461490084,941.3931030000094,941.427624990081,941.4280774000799,942.1290722899954,s,0,0.6869654000038281,686.9654000038281,941.4280774000799,942.1290722899954,942.137381699984,943.7843391900766,EMOCONPILOT011,2020_Dec_30_1611,EmoCon_Pilot_120Hz,2020.2.4,120.0026399664208,
,,,,1,0,1,0,50,0,50,0,,,,,,,,,,,,,,,,,,,,,,,,,,,,,,,,,,,,,,,,,,,,,,50,5.0,m,027_o_m_h_a.jpg,happy,d,17,2,943.7885743000079,944.0843956900877,944.4073340999894,944.5693307900452,944.5740074000787,944.6147909900989,944.6197917000391,945.0969443900627,d,1,0.46332630002871156,463.32630002871156,944.6197917000391,945.0969443900627,945.1006987000583,947.0178232900449,EMOCONPILOT011,2020_Dec_30_1611,EmoCon_Pilot_120Hz,2020.2.4,120.0026399664208,
,,,,1,0,1,0,51,0,51,0,,,,,,,,,,,,,,,,,,,,,,,,,,,,,,,,,,,,,,,,,,,,,,51,12.0,f,040_y_f_n_a.jpg,neutral,s,17,2,947.0238263000501,947.3177948899917,947.5431281999918,947.70128119,947.7061562000308,947.7471053900314,947.752507600002,948.3510131900781,s,1,0.5865878000622615,586.5878000622615,947.752507600002,948.3510131900781,948.3615737999789,949.4511086900835,EMOCONPILOT011,2020_Dec_30_1611,EmoCon_Pilot_120Hz,2020.2.4,120.0026399664208,
,,,,1,0,1,0,52,0,52,0,,,,,,,,,,,,,,,,,,,,,,,,,,,,,,,,,,,,,,,,,,,,,,52,2.0,m,008_y_m_h_a.jpg,happy,d,2,2,949.4512370000593,949.7511208899901,949.7762978000101,949.791484089999,949.7932389000198,949.8297044899897,949.8311941000866,950.4257370900247,d,1,0.5879009000491351,587.9009000491351,949.8311941000866,950.4257370900247,950.4368423999986,952.1262974900543,EMOCONPILOT011,2020_Dec_30_1611,EmoCon_Pilot_120Hz,2020.2.4,120.0026399664208,
,,,,1,0,1,0,53,0,53,0,,,,,,,,,,,,,,,,,,,,,,,,,,,,,,,,,,,,,,,,,,,,,,53,6.0,m,033_o_m_h_a.jpg,happy,d,17,2,952.1320262000663,952.4263223900576,952.447362100007,952.5778039900703,952.5809655999765,952.6191545900307,952.6224641000153,952.9973400900723,d,1,0.3646364000160247,364.6364000160247,952.6224641000153,952.9973400900723,953.0077927000821,954.7012017900939,EMOCONPILOT011,2020_Dec_30_1611,EmoCon_Pilot_120Hz,2020.2.4,120.0026399664208,
,,,,1,0,1,0,54,0,54,0,,,,,,,,,,,,,,,,,,,,,,,,,,,,,,,,,,,,,,,,,,,,,,54,2.0,m,008_y_m_h_a.jpg,happy,d,2,2,954.705197900068,955.0012110900949,955.0246415000875,955.0395450900193,955.0402610000456,955.077422390075,955.0774749000557,955.9772756900289,d,1,0.8856335999444127,885.6335999444127,955.0774749000557,955.9772756900289,955.9841251000762,957.8179586900748,EMOCONPILOT011,2020_Dec_30_1611,EmoCon_Pilot_120Hz,2020.2.4,120.0026399664208,
,,,,1,0,1,0,55,0,55,0,,,,,,,,,,,,,,,,,,,,,,,,,,,,,,,,,,,,,,,,,,,,,,55,12.0,f,040_y_f_h_a.jpg,happy,d,17,2,957.8218989000889,958.1179612900247,958.1395815000869,958.2780295899953,958.2815228999825,958.3213765900233,958.3246978999814,958.801902090048,d,1,0.4626189999980852,462.6189999980852,958.3246978999814,958.801902090048,958.8127509000478,960.0846713900916,EMOCONPILOT011,2020_Dec_30_1611,EmoCon_Pilot_120Hz,2020.2.4,120.0026399664208,
,,,,1,0,1,0,56,0,56,0,,,,,,,,,,,,,,,,,,,,,,,,,,,,,,,,,,,,,,,,,,,,,,56,10.0,f,028_y_f_n_a.jpg,neutral,s,2,2,960.0886920000194,960.384671690024,960.6023294000188,960.6187164900708,960.6196317999857,960.6549642900587,960.6552533999784,961.2725414899993,s,1,0.6037752000847831,603.7752000847831,960.6552533999784,961.2725414899993,961.2784952999791,962.893100990064,EMOCONPILOT011,2020_Dec_30_1611,EmoCon_Pilot_120Hz,2020.2.4,120.0026399664208,
,,,,1,0,1,0,57,0,57,0,,,,,,,,,,,,,,,,,,,,,,,,,,,,,,,,,,,,,,,,,,,,,,57,12.0,f,040_y_f_s_a.jpg,sad,a,2,2,962.8991927000461,963.1930353900767,963.2039179999847,963.219205390045,963.2195118999807,963.2541829900234,963.2537898999872,964.2211699899868,s,0,0.9572737000416964,957.2737000416964,963.2537898999872,964.2211699899868,964.228428900009,966.0431289900677,EMOCONPILOT011,2020_Dec_30_1611,EmoCon_Pilot_120Hz,2020.2.4,120.0026399664208,
,,,,1,0,1,0,58,0,58,0,,,,,,,,,,,,,,,,,,,,,,,,,,,,,,,,,,,,,,,,,,,,,,58,5.0,m,027_o_m_n_a.jpg,neutral,s,17,2,966.0482539000222,966.3431567900931,966.5609038000694,966.7230659899884,966.7266113000223,966.7677229900961,966.772787700058,967.1475182900555,s,1,0.36624240002129227,366.24240002129227,966.772787700058,967.1475182900555,967.1561551000923,968.2264973900398,EMOCONPILOT011,2020_Dec_30_1611,EmoCon_Pilot_120Hz,2020.2.4,120.0026399664208,
,,,,1,0,1,0,59,0,59,0,,,,,,,,,,,,,,,,,,,,,,,,,,,,,,,,,,,,,,,,,,,,,,59,4.0,m,016_y_m_s_a.jpg,sad,a,2,2,968.2306010000175,968.5265116900788,968.5476912000449,968.5635027900222,968.5642844000831,968.5993647900992,968.5992156000575,969.3050137899933,a,1,0.6919242999283597,691.9242999283597,968.5992156000575,969.3050137899933,969.3113369999919,971.193245790049,EMOCONPILOT011,2020_Dec_30_1611,EmoCon_Pilot_120Hz,2020.2.4,120.0026399664208,
,,,,1,0,1,0,60,0,60,0,,,,,,,,,,,,,,,,,,,,,,,,,,,,,,,,,,,,,,,,,,,,,,60,5.0,m,027_o_m_n_a.jpg,neutral,s,17,2,971.1973719000816,971.4932583900751,971.7091352000134,971.8718177900533,971.8752450000029,971.915377990075,971.9205826000543,972.3271010900731,s,1,0.3945971999783069,394.5971999783069,971.9205826000543,972.3271010900731,972.3387148000766,973.4599518900155,EMOCONPILOT011,2020_Dec_30_1611,EmoCon_Pilot_120Hz,2020.2.4,120.0026399664208,
,,,,1,0,1,0,61,0,61,0,,,,,,,,,,,,,,,,,,,,,,,,,,,,,,,,,,,,,,,,,,,,,,61,10.0,f,028_y_f_s_a.jpg,sad,a,2,2,973.4640650000656,973.759950690053,973.7809955000412,973.7962297900464,973.7964387000538,973.8327201900189,973.8328046000097,974.4914314900176,s,0,0.6502993999747559,650.2993999747559,973.8328046000097,974.4914314900176,974.4998752999818,976.2182374900091,EMOCONPILOT011,2020_Dec_30_1611,EmoCon_Pilot_120Hz,2020.2.4,120.0026399664208,
,,,,1,0,1,0,62,0,62,0,,,,,,,,,,,,,,,,,,,,,,,,,,,,,,,,,,,,,,,,,,,,,,62,3.0,m,013_y_m_n_a.jpg,neutral,s,2,2,976.2209713000339,976.5182684900589,976.7602220000699,976.7773801900563,976.7776520000771,976.8132516900893,976.8128240000224,977.3976347900112,s,1,0.5744708999991417,574.4708999991417,976.8128240000224,977.3976347900112,977.409112000023,978.8017467900296,EMOCONPILOT011,2020_Dec_30_1611,EmoCon_Pilot_120Hz,2020.2.4,120.0026399664208,
,,,,1,0,1,0,63,0,63,0,,,,,,,,,,,,,,,,,,,,,,,,,,,,,,,,,,,,,,,,,,,,,,63,4.0,m,016_y_m_s_a.jpg,sad,a,2,2,978.8058190000011,979.1017532900092,979.1286681999918,979.1441184900119,979.1446187000256,979.1796695900499,979.1810709000565,979.956817390013,a,1,0.766280599986203,766.280599986203,979.1810709000565,979.956817390013,979.9696476000827,981.7101693900419,EMOCONPILOT011,2020_Dec_30_1611,EmoCon_Pilot_120Hz,2020.2.4,120.0026399664208,
,,,,1,0,1,0,64,0,64,0,,,,,,,,,,,,,,,,,,,,,,,,,,,,,,,,,,,,,,,,,,,,,,64,12.0,f,040_y_f_h_a.jpg,happy,d,2,2,981.7141204000218,982.0101308900281,982.034439100069,982.049363390042,982.0502331000753,982.086434690014,982.087576400023,982.6193809900084,d,1,0.5156278000213206,515.6278000213206,982.087576400023,982.6193809900084,982.6279260000447,984.4769769900828,EMOCONPILOT011,2020_Dec_30_1611,EmoCon_Pilot_120Hz,2020.2.4,120.0026399664208,
,,,,1,0,1,0,65,0,65,0,,,,,,,,,,,,,,,,,,,,,,,,,,,,,,,,,,,,,,,,,,,,,,65,5.0,m,027_o_m_n_a.jpg,neutral,s,2,2,984.4812172000529,984.776875890058,985.0202773000346,985.0372589900741,985.0371327000903,985.0718063900364,985.0716694000876,985.6334482900216,s,1,0.5474793999455869,547.4793999455869,985.0716694000876,985.6334482900216,985.6396870000754,987.152050689992,EMOCONPILOT011,2020_Dec_30_1611,EmoCon_Pilot_120Hz,2020.2.4,120.0026399664208,
,,,,1,0,1,0,66,0,66,0,,,,,,,,,,,,,,,,,,,,,,,,,,,,,,,,,,,,,,,,,,,,,,66,6.0,m,033_o_m_s_a.jpg,sad,a,2,2,987.1575517000165,987.4519712900161,987.4762353000697,987.4911105900188,987.4914095000131,987.5287574900664,987.5302521000849,988.157998489996,s,0,0.6169011000311002,616.9011000311002,987.5302521000849,988.157998489996,988.1665686999913,989.5853210900328,EMOCONPILOT011,2020_Dec_30_1611,EmoCon_Pilot_120Hz,2020.2.4,120.0026399664208,
,,,,1,0,1,0,67,0,67,0,,,,,,,,,,,,,,,,,,,,,,,,,,,,,,,,,,,,,,,,,,,,,,67,6.0,m,033_o_m_h_a.jpg,happy,d,17,2,989.589339200058,989.8854339900078,989.911147100036,990.0453743900522,990.0505031000357,990.0911409899942,990.0963307999773,990.5554131900077,d,1,0.443048799992539,443.048799992539,990.0963307999773,990.5554131900077,990.5668474000413,991.9103017900721,EMOCONPILOT011,2020_Dec_30_1611,EmoCon_Pilot_120Hz,2020.2.4,120.0026399664208,
,,,,1,0,1,0,68,0,68,0,,,,,,,,,,,,,,,,,,,,,,,,,,,,,,,,,,,,,,,,,,,,,,68,2.0,m,008_y_m_s_a.jpg,sad,a,17,2,991.9134163000854,992.210330489988,992.4641197000165,992.6313249900355,992.635215700022,992.6759686900419,992.6810052000219,993.1183727900149,a,1,0.4261720000067726,426.1720000067726,992.6810052000219,993.1183727900149,993.1310809000861,994.460470590007,EMOCONPILOT011,2020_Dec_30_1611,EmoCon_Pilot_120Hz,2020.2.4,120.0026399664208,
,,,,1,0,1,0,69,0,69,0,,,,,,,,,,,,,,,,,,,,,,,,,,,,,,,,,,,,,,,,,,,,,,69,1.0,m,004_o_m_n_a.jpg,neutral,s,17,2,994.4646099000238,994.7604159899871,994.947147800005,995.1074803900789,995.1124088000506,995.1532108900952,995.1582718000282,995.930039290071,s,1,0.7649550000205636,764.9550000205636,995.1582718000282,995.930039290071,995.9377905000001,997.2771380900755,EMOCONPILOT011,2020_Dec_30_1611,EmoCon_Pilot_120Hz,2020.2.4,120.0026399664208,
,,,,1,0,1,0,70,0,70,0,,,,,,,,,,,,,,,,,,,,,,,,,,,,,,,,,,,,,,,,,,,,,,70,2.0,m,008_y_m_s_a.jpg,sad,a,17,2,997.2812350000022,997.5771491900902,997.7994471000275,997.9590360900271,997.9632426000899,998.0043054900249,998.0094251000555,998.4671730900533,a,1,0.4416675999527797,441.6675999527797,998.0094251000555,998.4671730900533,998.4754072000505,999.6354335900047,EMOCONPILOT011,2020_Dec_30_1611,EmoCon_Pilot_120Hz,2020.2.4,120.0026399664208,
,,,,1,0,1,0,71,0,71,0,,,,,,,,,,,,,,,,,,,,,,,,,,,,,,,,,,,,,,,,,,,,,,71,11.0,f,030_o_f_n_a.jpg,neutral,s,17,2,999.6382179000648,999.9354908900219,1000.1245021000504,1000.2946874900605,1000.2991309000645,1000.338367490063,1000.3436745000072,1000.872814790078,s,1,0.5157559000654146,515.7559000654146,1000.3436745000072,1000.872814790078,1000.8838109000353,1002.1439569900627,EMOCONPILOT011,2020_Dec_30_1611,EmoCon_Pilot_120Hz,2020.2.4,120.0026399664208,
,,,,1,0,1,0,72,0,72,0,,,,,,,,,,,,,,,,,,,,,,,,,,,,,,,,,,,,,,,,,,,,,,72,11.0,f,030_o_f_n_a.jpg,neutral,s,17,2,1002.1490653000074,1002.4439175900421,1002.6337246000767,1002.7929615900736,1002.7985616000369,1002.838092690066,1002.8430916999932,1003.2109938900336,s,1,0.352204900002107,352.204900002107,1002.8430916999932,1003.2109938900336,1003.2224615000887,1005.1107499900623,EMOCONPILOT011,2020_Dec_30_1611,EmoCon_Pilot_120Hz,2020.2.4,120.0026399664208,
,,,,1,0,1,0,73,0,73,0,,,,,,,,,,,,,,,,,,,,,,,,,,,,,,,,,,,,,,,,,,,,,,73,2.0,m,008_y_m_s_a.jpg,sad,a,2,2,1005.1158496000571,1005.410686490091,1005.6688736000797,1005.6855152900913,1005.6855348000536,1005.7227986900485,1005.7228836000431,1006.3076570900972,a,1,0.5763430999359116,576.3430999359116,1005.7228836000431,1006.3076570900972,1006.3195580000756,1007.9524148900178,EMOCONPILOT011,2020_Dec_30_1611,EmoCon_Pilot_120Hz,2020.2.4,120.0026399664208,
,,,,1,0,1,0,74,0,74,0,,,,,,,,,,,,,,,,,,,,,,,,,,,,,,,,,,,,,,,,,,,,,,74,11.0,f,030_o_f_n_a.jpg,neutral,s,2,2,1007.9578450000845,1008.2524117900408,1008.4583504000911,1008.4751816900331,1008.4755721000256,1008.5129950900679,1008.5163515000604,1009.2181837900658,s,1,0.6948869000189006,694.8869000189006,1008.5163515000604,1009.2181837900658,1009.2307068000082,1010.6022818900761,EMOCONPILOT011,2020_Dec_30_1611,EmoCon_Pilot_120Hz,2020.2.4,120.0026399664208,
,,,,1,0,1,0,75,0,75,0,,,,,,,,,,,,,,,,,,,,,,,,,,,,,,,,,,,,,,,,,,,,,,75,1.0,m,004_o_m_s_a.jpg,sad,a,2,2,1010.6048671000171,1010.9024064900237,1010.9194469000213,1010.9347354900907,1010.935626200051,1010.9712457900984,1010.9710401000921,1011.8424072900904,a,1,0.8641919000074267,864.1919000074267,1010.9710401000921,1011.8424072900904,1011.8506248000776,1013.5608537899913,EMOCONPILOT011,2020_Dec_30_1611,EmoCon_Pilot_120Hz,2020.2.4,120.0026399664208,
,,,,1,0,1,0,76,0,76,0,,,,,,,,,,,,,,,,,,,,,,,,,,,,,,,,,,,,,,,,,,,,,,76,3.0,m,013_y_m_n_a.jpg,neutral,s,2,2,1013.5663497999776,1013.8609819900827,1014.0946905000601,1014.1123868900701,1014.1156183000421,1014.1529329900746,1014.1558208999922,1014.8917707900633,s,1,0.7272338999900967,727.2338999900967,1014.1558208999922,1014.8917707900633,1014.8949541000184,1016.2275015900028,EMOCONPILOT011,2020_Dec_30_1611,EmoCon_Pilot_120Hz,2020.2.4,120.0026399664208,
,,,,1,0,1,0,77,0,77,0,,,,,,,,,,,,,,,,,,,,,,,,,,,,,,,,,,,,,,,,,,,,,,77,7.0,f,012_o_f_s_a.jpg,sad,a,2,2,1016.2281341999769,1016.5274213900208,1016.5467158000683,1016.5617672900786,1016.5627206000499,1016.5976836899878,1016.5975815000711,1017.3940766900429,s,0,0.7815721000079066,781.5721000079066,1016.5975815000711,1017.3940766900429,1017.3967668000842,1018.6442271900247,EMOCONPILOT011,2020_Dec_30_1611,EmoCon_Pilot_120Hz,2020.2.4,120.0026399664208,
,,,,1,0,1,0,78,0,78,0,,,,,,,,,,,,,,,,,,,,,,,,,,,,,,,,,,,,,,,,,,,,,,78,12.0,f,040_y_f_n_a.jpg,neutral,s,17,2,1018.6483927000081,1018.9443036900717,1019.1706551000243,1019.3380811900948,1019.3427073999774,1019.3832168900059,1019.3884890000336,1019.9147604900296,s,1,0.5186045999871567,518.6045999871567,1019.3884890000336,1019.9147604900296,1019.9232379000168,1021.4109920900897,EMOCONPILOT011,2020_Dec_30_1611,EmoCon_Pilot_120Hz,2020.2.4,120.0026399664208,
,,,,1,0,1,0,79,0,79,0,,,,,,,,,,,,,,,,,,,,,,,,,,,,,,,,,,,,,,,,,,,,,,79,6.0,m,033_o_m_h_a.jpg,happy,d,2,2,1021.4149992000312,1021.7110250900383,1021.7393722999841,1021.7548676899984,1021.7564266000409,1021.7933767900919,1021.7949786999961,1022.4784947899985,d,1,0.6721183999907225,672.1183999907225,1021.7949786999961,1022.4784947899985,1022.4869581999956,1024.1110259900684,EMOCONPILOT011,2020_Dec_30_1611,EmoCon_Pilot_120Hz,2020.2.4,120.0026399664208,
,,,,1,0,1,0,80,0,80,0,,,,,,,,,,,,,,,,,,,,,,,,,,,,,,,,,,,,,,,,,,,,,,80,2.0,m,008_y_m_n_a.jpg,neutral,s,17,2,1024.1152444999898,1024.4110443900222,1024.6551142000826,1024.8226153900264,1024.8262600000016,1024.866891390027,1024.871988800005,1025.419583190081,s,1,0.5314178999979049,531.4178999979049,1024.871988800005,1025.419583190081,1025.4310022999998,1026.8444798900396,EMOCONPILOT011,2020_Dec_30_1611,EmoCon_Pilot_120Hz,2020.2.4,120.0026399664208,
,,,,1,0,1,0,81,0,81,0,,,,,,,,,,,,,,,,,,,,,,,,,,,,,,,,,,,,,,,,,,,,,,81,12.0,f,040_y_f_h_a.jpg,happy,d,17,2,1026.849971299991,1027.1445669900509,1027.1726890000282,1027.304527690017,1027.3080378000159,1027.3467519899946,1027.3519864000846,1027.8286469900863,d,1,0.46734339999966323,467.34339999966323,1027.3519864000846,1027.8286469900863,1027.836223600083,1029.7695016900193,EMOCONPILOT011,2020_Dec_30_1611,EmoCon_Pilot_120Hz,2020.2.4,120.0026399664208,
,,,,1,0,1,0,82,0,82,0,,,,,,,,,,,,,,,,,,,,,,,,,,,,,,,,,,,,,,,,,,,,,,82,9.0,f,021_o_f_h_a.jpg,happy,d,2,2,1029.7735859000823,1030.069508590002,1030.292457100004,1030.309563690063,1030.3101022000192,1030.3457003900198,1030.3457759000594,1030.8898582900524,d,1,0.5293265000218526,529.3265000218526,1030.3457759000594,1030.8898582900524,1030.8990601000842,1032.2528387900325,EMOCONPILOT011,2020_Dec_30_1611,EmoCon_Pilot_120Hz,2020.2.4,120.0026399664208,
,,,,1,0,1,0,83,0,83,0,,,,,,,,,,,,,,,,,,,,,,,,,,,,,,,,,,,,,,,,,,,,,,83,6.0,m,033_o_m_h_a.jpg,happy,d,17,2,1032.2567251999862,1032.5528703900868,1032.5652404000284,1032.6961725900996,1032.6982595000882,1032.7375358900404,1032.7415358000435,1033.0670638900133,d,1,0.3097667000256479,309.7667000256479,1032.7415358000435,1033.0670638900133,1033.0790458000265,1034.6696339900022,EMOCONPILOT011,2020_Dec_30_1611,EmoCon_Pilot_120Hz,2020.2.4,120.0026399664208,
,,,,1,0,1,0,84,0,84,0,,,,,,,,,,,,,,,,,,,,,,,,,,,,,,,,,,,,,,,,,,,,,,84,2.0,m,008_y_m_n_a.jpg,neutral,s,2,2,1034.6751837000484,1034.9696415899903,1035.2126292000758,1035.2299575900774,1035.2305728000356,1035.2647811900474,1035.264648900018,1035.9306485900538,s,1,0.658497600001283,658.497600001283,1035.264648900018,1035.9306485900538,1035.9404125000583,1037.4281207900144,EMOCONPILOT011,2020_Dec_30_1611,EmoCon_Pilot_120Hz,2020.2.4,120.0026399664208,
,,,,1,0,1,0,85,0,85,0,,,,,,,,,,,,,,,,,,,,,,,,,,,,,,,,,,,,,,,,,,,,,,85,10.0,f,028_y_f_n_a.jpg,neutral,s,17,2,1037.4336296999827,1037.7281418899888,1037.9277025000192,1038.0871389900217,1038.091961099999,1038.132798290078,1038.1371595000383,1039.406218790065,s,1,1.2581959000090137,1258.1959000090137,1038.1371595000383,1039.406218790065,1039.4183561999816,1041.1531584900454,EMOCONPILOT011,2020_Dec_30_1611,EmoCon_Pilot_120Hz,2020.2.4,120.0026399664208,
,,,,1,0,1,0,86,0,86,0,,,,,,,,,,,,,,,,,,,,,,,,,,,,,,,,,,,,,,,,,,,,,,86,6.0,m,033_o_m_h_a.jpg,happy,d,17,2,1041.1574175000424,1041.453071690013,1041.477586699999,1041.6130389900295,1041.6159232000355,1041.6543142899986,1041.6571259000339,1042.0380271901026,d,1,0.3700496000237763,370.0496000237763,1041.6571259000339,1042.0380271901026,1042.0464799000183,1043.8781802900717,EMOCONPILOT011,2020_Dec_30_1611,EmoCon_Pilot_120Hz,2020.2.4,120.0026399664208,
,,,,1,0,1,0,87,0,87,0,,,,,,,,,,,,,,,,,,,,,,,,,,,,,,,,,,,,,,,,,,,,,,87,5.0,m,027_o_m_s_a.jpg,sad,a,2,2,1043.8836975999875,1044.178180590004,1044.1914030000335,1044.2061920900246,1044.20641600003,1044.2461035900865,1044.2474810000276,1045.1247571900835,s,0,0.8676820999244228,867.6820999244228,1044.2474810000276,1045.1247571900835,1045.133039999986,1046.5781900900997,EMOCONPILOT011,2020_Dec_30_1611,EmoCon_Pilot_120Hz,2020.2.4,120.0026399664208,
,,,,1,0,1,0,88,0,88,0,,,,,,,,,,,,,,,,,,,,,,,,,,,,,,,,,,,,,,,,,,,,,,88,7.0,f,012_o_f_s_a.jpg,sad,a,17,2,1046.5832065000432,1046.878194690065,1046.9014563000528,1047.0382031900458,1047.0420222000685,1047.0794666900415,1047.0833745000418,1047.6944276900845,a,1,0.5998201000038534,599.8201000038534,1047.0833745000418,1047.6944276900845,1047.7028745000716,1048.8032365900813,EMOCONPILOT011,2020_Dec_30_1611,EmoCon_Pilot_120Hz,2020.2.4,120.0026399664208,
,,,,1,0,1,0,89,0,89,0,,,,,,,,,,,,,,,,,,,,,,,,,,,,,,,,,,,,,,,,,,,,,,89,2.0,m,008_y_m_h_a.jpg,happy,d,2,2,1048.807556200074,1049.1032352900015,1049.1244392000372,1049.1394462900585,1049.140251700068,1049.175037690054,1049.1754134000512,1050.242633790092,d,1,1.0598164999391884,1059.8164999391884,1049.1754134000512,1050.242633790092,1050.250183600001,1052.203360990004,EMOCONPILOT011,2020_Dec_30_1611,EmoCon_Pilot_120Hz,2020.2.4,120.0026399664208,
,,,,1,0,1,0,90,0,90,0,,,,,,,,,,,,,,,,,,,,,,,,,,,,,,,,,,,,,,,,,,,,,,90,7.0,f,012_o_f_h_a.jpg,happy,d,2,2,1052.2086726999842,1052.5033663900917,1052.5277458999772,1052.5430744900018,1052.543541799998,1052.5795156900654,1052.580920599983,1053.1505561900208,d,1,0.5581626000348479,558.1626000348479,1052.580920599983,1053.1505561900208,1053.1568276000908,1055.0367422900977,EMOCONPILOT011,2020_Dec_30_1611,EmoCon_Pilot_120Hz,2020.2.4,120.0026399664208,
,,,,1,0,1,0,91,0,91,0,,,,,,,,,,,,,,,,,,,,,,,,,,,,,,,,,,,,,,,,,,,,,,91,10.0,f,028_y_f_s_a.jpg,sad,a,2,2,1055.0421679000137,1055.336750990094,1055.3609871000517,1055.3761410900274,1055.376820800011,1055.412774990045,1055.413742100005,1056.5387732900795,a,1,1.1173986999783665,1117.3986999783665,1055.413742100005,1056.5387732900795,1056.5477322000079,1057.8868026900686,EMOCONPILOT011,2020_Dec_30_1611,EmoCon_Pilot_120Hz,2020.2.4,120.0026399664208,
,,,,1,0,1,0,92,0,92,0,,,,,,,,,,,,,,,,,,,,,,,,,,,,,,,,,,,,,,,,,,,,,,92,12.0,f,040_y_f_s_a.jpg,sad,a,2,2,1057.8922371000517,1058.1868711900547,1058.2112383000785,1058.226351390092,1058.2265634000069,1058.2629290900309,1058.2631094000535,1058.9204049900522,s,0,0.6439712999854237,643.9712999854237,1058.2631094000535,1058.9204049900522,1058.9260039000073,1060.4785918900393,EMOCONPILOT011,2020_Dec_30_1611,EmoCon_Pilot_120Hz,2020.2.4,120.0026399664208,
,,,,1,0,1,0,93,0,93,0,,,,,,,,,,,,,,,,,,,,,,,,,,,,,,,,,,,,,,,,,,,,,,93,2.0,m,008_y_m_n_a.jpg,neutral,s,17,2,1060.4827529999893,1060.7784938900381,1061.0280587000307,1061.1957663900334,1061.2006939999992,1061.2414758900063,1061.245999500039,1061.6960756900603,s,1,0.43707929993979633,437.07929993979633,1061.245999500039,1061.6960756900603,1061.7026141000679,1062.6952609900268,EMOCONPILOT011,2020_Dec_30_1611,EmoCon_Pilot_120Hz,2020.2.4,120.0026399664208,
,,,,1,0,1,0,94,0,94,0,,,,,,,,,,,,,,,,,,,,,,,,,,,,,,,,,,,,,,,,,,,,,,94,11.0,f,030_o_f_s_a.jpg,sad,a,2,2,1062.6995406000642,1062.9953243900904,1063.1918075000867,1063.208561490022,1063.2091062000254,1063.246363290085,1063.2463806000305,1064.117026490008,s,0,0.860839799977839,860.839799977839,1063.2463806000305,1064.117026490008,1064.12644370005,1065.6034545900416,EMOCONPILOT011,2020_Dec_30_1611,EmoCon_Pilot_120Hz,2020.2.4,120.0026399664208,
,,,,1,0,1,0,95,0,95,0,,,,,,,,,,,,,,,,,,,,,,,,,,,,,,,,,,,,,,,,,,,,,,95,9.0,f,021_o_f_n_a.jpg,neutral,s,17,2,1065.6035843000282,1065.9035972900106,1066.1166299000615,1066.2874866900615,1066.2923413000535,1066.3314502900116,1066.3367231000448,1066.7458519900333,s,1,0.39418970001861453,394.18970001861453,1066.3367231000448,1066.7458519900333,1066.7496440000832,1068.678724490071,EMOCONPILOT011,2020_Dec_30_1611,EmoCon_Pilot_120Hz,2020.2.4,120.0026399664208,
