trials_example.thisRepN,trials_example.thisTrialN,trials_example.thisN,trials_example.thisIndex,block.thisRepN,block.thisTrialN,block.thisN,block.thisIndex,trials_study.thisRepN,trials_study.thisTrialN,trials_study.thisN,trials_study.thisIndex,text_welcome.started,text_welcome.stopped,text_intro.started,text_intro.stopped,key_resp_intro.keys,key_resp_intro.rt,key_resp_intro.started,key_resp_intro.stopped,text_intro2.started,text_intro2.stopped,key_resp_intro2.keys,key_resp_intro2.rt,key_resp_intro2.started,key_resp_intro2.stopped,example trial,personPrimeExample,genderPrimeExample,primeExample,emotionPrimeExample,corrAnsPrimeExample,example mask time,fix300_example.started,fix300_example.stopped,image_primer_example.started,image_primer_example.stopped,scrambled.started,scrambled.stopped,text_response_example.started,text_response_example.stopped,key_resp_example.keys,key_resp_example.corr,key_resp_example.started,key_resp_example.stopped,Jitter_example.started,Jitter_example.stopped,key_resp_example.rt,key_resp_example.rt in ms,text_start.started,text_start.stopped,text_pause.started,text_pause.stopped,key_resp_pause.keys,key_resp_pause.rt,key_resp_pause.rt in ms,key_resp_pause.started,key_resp_pause.stopped,study trial,personPrimeStudy,genderPrimeStudy,primeStudy,emotionPrimeStudy,corrAnsPrimeStudy,study mask time,Block,fix300_study.started,fix300_study.stopped,image_primer_study.started,image_primer_study.stopped,scrambled_study.started,scrambled_study.stopped,text_response_study.started,text_response_study.stopped,key_resp_study.keys,key_resp_study.corr,key_resp_study.rt,key_resp_study.rt in ms,key_resp_study.started,key_resp_study.stopped,Jitter_study.started,Jitter_study.stopped,participant,date,expName,psychopyVersion,frameRate,
,,,,,,,,,,,,23.77438099985011,26.76461300989613,26.766682900022715,28.31695900987834,d,1.5400253999978304,26.766682900022715,28.31695900987834,,,,,,,,,,,,,,,,,,,,,,,,,,,,,,,,,,,,,,,,,,,,,,,,,,,,,,,,,,,,,,,EMOCONPILOT018,2021_Jan_04_1305,EmoCon_Pilot_120Hz,2020.2.4,119.97600483979348,
,,,,,,,,,,,,,,,,,,,,28.322013499913737,30.860875309817494,d,2.528577899793163,28.322013499913737,30.860875309817494,,,,,,,,,,,,,,,,,,,,,,,,,,,,,,,,,,,,,,,,,,,,,,,,,,,,,,,,,EMOCONPILOT018,2021_Jan_04_1305,EmoCon_Pilot_120Hz,2020.2.4,119.97600483979348,
0,0,0,0,,,,,,,,,,,,,,,,,,,,,,,0,3.0,f,1113_y_f_s_a.jpg,sad,a,17,30.864415899850428,31.1563912098296,31.394825599854812,31.563108310010286,31.571337800007313,31.607555709918962,31.608581200009212,33.17346630981192,None,0,31.608581200009212,33.17346630981192,33.173914399929345,34.773169009853156,,,,,,,,,,,,,,,,,,,,,,,,,,,,,,,,,,,,EMOCONPILOT018,2021_Jan_04_1305,EmoCon_Pilot_120Hz,2020.2.4,119.97600483979348,
1,0,1,0,,,,,,,,,,,,,,,,,,,,,,,1,1.0,m,1111_m_m_s_a.jpg,sad,a,3,34.77512330003083,35.07313080984168,35.28159529995173,35.30909190992825,35.31153839989565,35.35143010984175,35.35480109998025,36.273972609918566,s,0,35.35480109998025,36.273972609918566,36.276823699939996,37.8733009099029,0.9039324999321252,903.9324999321252,,,,,,,,,,,,,,,,,,,,,,,,,,,,,,,,,,EMOCONPILOT018,2021_Jan_04_1305,EmoCon_Pilot_120Hz,2020.2.4,119.97600483979348,
2,0,2,0,,,,,,,,,,,,,,,,,,,,,,,2,3.0,f,1113_y_f_n_a.jpg,neutral,s,17,37.87539059994742,38.1732139099855,38.36849100003019,38.52506370996125,38.52792629995383,38.56918310993351,38.57231339998543,38.946775909885766,s,1,38.57231339998543,38.946775909885766,38.95110989990644,40.52316021001898,0.3583131998311728,358.3131998311728,,,,,,,,,,,,,,,,,,,,,,,,,,,,,,,,,,EMOCONPILOT018,2021_Jan_04_1305,EmoCon_Pilot_120Hz,2020.2.4,119.97600483979348,
3,0,3,0,,,,,,,,,,,,,,,,,,,,,,,3,2.0,f,1112_m_f_h_a.jpg,happy,d,3,40.52425029990263,40.82329260990955,41.02739719999954,41.05320780994371,41.0535671999678,41.09094400997274,41.09124569990672,42.00018820995465,d,1,41.09124569990672,42.00018820995465,42.00271259993315,43.723320010025056,0.8953577999491245,895.3577999491245,,,,,,,,,,,,,,,,,,,,,,,,,,,,,,,,,,EMOCONPILOT018,2021_Jan_04_1305,EmoCon_Pilot_120Hz,2020.2.4,119.97600483979348,
4,0,4,0,,,,,,,,,,,,,,,,,,,,,,,4,2.0,f,1112_m_f_n_a.jpg,neutral,s,3,43.724458399927244,44.02322690994479,44.22760559991002,44.254446709901096,44.25463979993947,44.29112231000327,44.291365899844095,45.8522044100333,None,0,44.291365899844095,45.8522044100333,45.85315089998767,47.165067410003395,,,,,,,,,,,,,,,,,,,,,,,,,,,,,,,,,,,,EMOCONPILOT018,2021_Jan_04_1305,EmoCon_Pilot_120Hz,2020.2.4,119.97600483979348,
,,,,0,0,0,0,0,0,0,0,,,,,,,,,,,,,,,,,,,,,,,,,,,,,,,,,,,,,,47.21136839990504,50.19821670991369,50.19870839989744,51.09200371000916,s,0.883887100033462,883.887100033462,50.19870839989744,51.09200371000916,0,8.0,f,019_m_f_s_a.jpg,sad,a,3,1,51.097234699875116,51.39025500989519,51.65007560001686,51.67636410999112,51.67815259983763,51.71211910983548,51.71515959990211,52.382079909928144,s,0,0.6554589001461864,655.4589001461864,51.71515959990211,52.382079909928144,52.38899749983102,53.7735505098477,EMOCONPILOT018,2021_Jan_04_1305,EmoCon_Pilot_120Hz,2020.2.4,119.97600483979348,
,,,,0,0,0,0,1,0,1,0,,,,,,,,,,,,,,,,,,,,,,,,,,,,,,,,,,,,,,,,,,,,,,,1,6.0,m,033_o_m_n_a.jpg,neutral,s,17,1,53.77773760003038,54.073539909813555,54.28512329980731,54.44081030986272,54.44415119988844,54.48094100984745,54.48376620002091,54.91307530985214,s,1,0.414983700029552,414.983700029552,54.48376620002091,54.91307530985214,54.92236919980496,56.15699490988627,EMOCONPILOT018,2021_Jan_04_1305,EmoCon_Pilot_120Hz,2020.2.4,119.97600483979348,
,,,,0,0,0,0,2,0,2,0,,,,,,,,,,,,,,,,,,,,,,,,,,,,,,,,,,,,,,,,,,,,,,,2,2.0,m,008_y_m_s_a.jpg,sad,a,3,1,56.16120640002191,56.45699480981566,56.69846210000105,56.72396221002564,56.724363199900836,56.75879310993478,56.759914099937305,57.941845709830524,s,0,1.1707056001760066,1170.7056001760066,56.759914099937305,57.941845709830524,57.94934799987823,59.72373280990869,EMOCONPILOT018,2021_Jan_04_1305,EmoCon_Pilot_120Hz,2020.2.4,119.97600483979348,
,,,,0,0,0,0,3,0,3,0,,,,,,,,,,,,,,,,,,,,,,,,,,,,,,,,,,,,,,,,,,,,,,,3,11.0,f,030_o_f_h_a.jpg,happy,d,17,1,59.72704829997383,60.02373090982437,60.23040280002169,60.38741820994765,60.39068419998512,60.431673309905456,60.43789129983634,61.147885010018946,d,1,0.7007581000216305,700.7581000216305,60.43789129983634,61.147885010018946,61.15755519992672,62.99038910996169,EMOCONPILOT018,2021_Jan_04_1305,EmoCon_Pilot_120Hz,2020.2.4,119.97600483979348,
,,,,0,0,0,0,4,0,4,0,,,,,,,,,,,,,,,,,,,,,,,,,,,,,,,,,,,,,,,,,,,,,,,4,11.0,f,030_o_f_s_a.jpg,sad,a,17,1,62.99538549990393,63.29043741002679,63.50257029989734,63.66424261000939,63.667970299953595,63.706142709963025,63.70931279985234,64.44381980984471,s,0,0.7252330998890102,725.2330998890102,63.70931279985234,64.44381980984471,64.44859179994091,65.64042481002397,EMOCONPILOT018,2021_Jan_04_1305,EmoCon_Pilot_120Hz,2020.2.4,119.97600483979348,
,,,,0,0,0,0,5,0,5,0,,,,,,,,,,,,,,,,,,,,,,,,,,,,,,,,,,,,,,,,,,,,,,,5,11.0,f,030_o_f_s_a.jpg,sad,a,3,1,65.64452919992618,65.94042730997316,66.1373415000271,66.16321980990469,66.16381959989667,66.19983980981632,66.19983039982617,66.80838030986487,s,0,0.5948646999895573,594.8646999895573,66.19983039982617,66.80838030986487,66.81422079983167,68.44885921003296,EMOCONPILOT018,2021_Jan_04_1305,EmoCon_Pilot_120Hz,2020.2.4,119.97600483979348,
,,,,0,0,0,0,6,0,6,0,,,,,,,,,,,,,,,,,,,,,,,,,,,,,,,,,,,,,,,,,,,,,,,6,5.0,m,027_o_m_n_a.jpg,neutral,s,17,1,68.45289059984498,68.74891270990483,68.96334379981272,69.12240290981717,69.12663979991339,69.16764750997535,69.17163919983432,70.38628211002796,s,1,1.2068709000013769,1206.8709000013769,69.17163919983432,70.38628211002796,70.39294409984723,72.17396690989844,EMOCONPILOT018,2021_Jan_04_1305,EmoCon_Pilot_120Hz,2020.2.4,119.97600483979348,
,,,,0,0,0,0,7,0,7,0,,,,,,,,,,,,,,,,,,,,,,,,,,,,,,,,,,,,,,,,,,,,,,,7,8.0,f,019_m_f_n_a.jpg,neutral,s,17,1,72.17841940000653,72.47397980992682,72.70886639994569,72.86766750984825,72.8723531998694,72.91313160993158,72.91828759992495,73.24408830995671,s,1,0.31658659991808236,316.58659991808236,72.91828759992495,73.24408830995671,73.25450849998742,75.01565620992332,EMOCONPILOT018,2021_Jan_04_1305,EmoCon_Pilot_120Hz,2020.2.4,119.97600483979348,
,,,,0,0,0,0,8,0,8,0,,,,,,,,,,,,,,,,,,,,,,,,,,,,,,,,,,,,,,,,,,,,,,,8,5.0,m,027_o_m_h_a.jpg,happy,d,3,1,75.0187513998244,75.31564380987547,75.52301090001129,75.54881880981847,75.5496694999747,75.58396371002308,75.58421020000242,76.59978830991312,d,1,1.0023372999858111,1002.3372999858111,75.58421020000242,76.59978830991312,76.60438969987445,77.80733640994876,EMOCONPILOT018,2021_Jan_04_1305,EmoCon_Pilot_120Hz,2020.2.4,119.97600483979348,
,,,,0,0,0,0,9,0,9,0,,,,,,,,,,,,,,,,,,,,,,,,,,,,,,,,,,,,,,,,,,,,,,,9,8.0,f,019_m_f_n_a.jpg,neutral,s,17,1,77.81039280002005,78.10734241004101,78.35179779981263,78.51922570997849,78.52302979980595,78.56386700985021,78.56882659997791,79.52834480991586,s,1,0.9459520999807864,945.9520999807864,78.56882659997791,79.52834480991586,79.54015509993769,81.07410110989585,EMOCONPILOT018,2021_Jan_04_1305,EmoCon_Pilot_120Hz,2020.2.4,119.97600483979348,
,,,,0,0,0,0,10,0,10,0,,,,,,,,,,,,,,,,,,,,,,,,,,,,,,,,,,,,,,,,,,,,,,,10,11.0,f,030_o_f_h_a.jpg,happy,d,3,1,81.07828269992024,81.37417060988955,81.5699522998184,81.59573331000283,81.59624839993194,81.63360170987434,81.63475509989075,82.61838450995273,d,1,0.9680967999156564,968.0967999156564,81.63475509989075,82.61838450995273,82.6250979998149,83.79092550990171,EMOCONPILOT018,2021_Jan_04_1305,EmoCon_Pilot_120Hz,2020.2.4,119.97600483979348,
,,,,0,0,0,0,11,0,11,0,,,,,,,,,,,,,,,,,,,,,,,,,,,,,,,,,,,,,,,,,,,,,,,11,3.0,m,013_y_m_s_a.jpg,sad,a,17,1,83.79412939981557,84.09086830997839,84.18161650002003,84.31744430996477,84.32036649994552,84.35875550997443,84.36060499981977,85.32678400995209,a,1,0.9541464000940323,954.1464000940323,84.36060499981977,85.32678400995209,85.3384750999976,86.64091210989281,EMOCONPILOT018,2021_Jan_04_1305,EmoCon_Pilot_120Hz,2020.2.4,119.97600483979348,
,,,,0,0,0,0,12,0,12,0,,,,,,,,,,,,,,,,,,,,,,,,,,,,,,,,,,,,,,,,,,,,,,,12,12.0,f,040_y_f_n_a.jpg,neutral,s,3,1,86.64419889985584,86.94093921002931,87.16943759983405,87.19566491004079,87.19939800002612,87.24009411004371,87.2454349999316,87.82766391001641,s,1,0.5653932997956872,565.3932997956872,87.2454349999316,87.82766391001641,87.83776739984751,89.50762781002558,EMOCONPILOT018,2021_Jan_04_1305,EmoCon_Pilot_120Hz,2020.2.4,119.97600483979348,
,,,,0,0,0,0,13,0,13,0,,,,,,,,,,,,,,,,,,,,,,,,,,,,,,,,,,,,,,,,,,,,,,,13,12.0,f,040_y_f_h_a.jpg,happy,d,17,1,89.51233079982921,89.80774321001954,89.8381518998649,89.97589530996046,89.97762000001967,90.01722100996412,90.01858359994367,90.81767881000414,d,1,0.784082000143826,784.082000143826,90.01858359994367,90.81767881000414,90.82583079999313,92.34099970981478,EMOCONPILOT018,2021_Jan_04_1305,EmoCon_Pilot_120Hz,2020.2.4,119.97600483979348,
,,,,0,0,0,0,14,0,14,0,,,,,,,,,,,,,,,,,,,,,,,,,,,,,,,,,,,,,,,,,,,,,,,14,7.0,f,012_o_f_h_a.jpg,happy,d,3,1,92.34654149995185,92.64100490990094,92.66426959983073,92.68693980984389,92.68770859995857,92.72556020985357,92.7266814999748,93.52251140996813,d,1,0.7878779999446124,787.8779999446124,92.7266814999748,93.52251140996813,93.52997579984367,95.04113190984353,EMOCONPILOT018,2021_Jan_04_1305,EmoCon_Pilot_120Hz,2020.2.4,119.97600483979348,
,,,,0,0,0,0,15,0,15,0,,,,,,,,,,,,,,,,,,,,,,,,,,,,,,,,,,,,,,,,,,,,,,,15,9.0,f,021_o_f_n_a.jpg,neutral,s,3,1,95.04528709989972,95.34117280985228,95.57434309995733,95.60013470998965,95.60021679988131,95.63464020998217,95.63457320001908,96.24217500993981,s,1,0.6001442999113351,600.1442999113351,95.63457320001908,96.24217500993981,96.25183939980343,98.2162483098451,EMOCONPILOT018,2021_Jan_04_1305,EmoCon_Pilot_120Hz,2020.2.4,119.97600483979348,
,,,,0,0,0,0,16,0,16,0,,,,,,,,,,,,,,,,,,,,,,,,,,,,,,,,,,,,,,,,,,,,,,,16,10.0,f,028_y_f_s_a.jpg,sad,a,17,1,98.22211660002358,98.5161838099826,98.53977179992944,98.67615730981342,98.68113109981641,98.72172430986538,98.72687529982068,99.60737970997579,a,1,0.8676377001684159,867.6377001684159,98.72687529982068,99.60737970997579,99.6103588999249,101.07450790996663,EMOCONPILOT018,2021_Jan_04_1305,EmoCon_Pilot_120Hz,2020.2.4,119.97600483979348,
,,,,0,0,0,0,17,0,17,0,,,,,,,,,,,,,,,,,,,,,,,,,,,,,,,,,,,,,,,,,,,,,,,17,10.0,f,028_y_f_h_a.jpg,happy,d,17,1,101.07765559991822,101.37455621003173,101.39508379995823,101.52620870983228,101.52958049997687,101.56754920994862,101.57072569988668,103.06677671000361,s,0,1.4879841001238674,1487.9841001238674,101.57072569988668,103.06677671000361,103.07134189992212,104.48292750995606,EMOCONPILOT018,2021_Jan_04_1305,EmoCon_Pilot_120Hz,2020.2.4,119.97600483979348,
,,,,0,0,0,0,18,0,18,0,,,,,,,,,,,,,,,,,,,,,,,,,,,,,,,,,,,,,,,,,,,,,,,18,9.0,f,021_o_f_h_a.jpg,happy,d,3,1,104.48706900002435,104.78297861004248,105.01489120000042,105.04147070986218,105.0459582998883,105.08621021001599,105.09068829985335,106.28542241002432,d,1,1.1839288000483066,1183.9288000483066,105.09068829985335,106.28542241002432,106.29190419986844,108.2495213098824,EMOCONPILOT018,2021_Jan_04_1305,EmoCon_Pilot_120Hz,2020.2.4,119.97600483979348,
,,,,0,0,0,0,19,0,19,0,,,,,,,,,,,,,,,,,,,,,,,,,,,,,,,,,,,,,,,,,,,,,,,19,6.0,m,033_o_m_h_a.jpg,happy,d,3,1,108.2500463000033,108.54972070981748,108.57554530003108,108.59801770993508,108.59810489998199,108.63419110993854,108.63432720000856,109.86685590995475,d,1,1.224238800117746,1224.238800117746,108.63432720000856,109.86685590995475,109.87273989990354,111.49142690994776,EMOCONPILOT018,2021_Jan_04_1305,EmoCon_Pilot_120Hz,2020.2.4,119.97600483979348,
,,,,0,0,0,0,20,0,20,0,,,,,,,,,,,,,,,,,,,,,,,,,,,,,,,,,,,,,,,,,,,,,,,20,1.0,m,004_o_m_h_a.jpg,happy,d,17,1,111.49438499985263,111.79151910999789,112.0101091999095,112.17674240996129,112.18161949981004,112.22255880981683,112.22774869995192,112.8648633099161,d,1,0.6229105999227613,622.9105999227613,112.22774869995192,112.8648633099161,112.86799920001067,114.73316721003502,EMOCONPILOT018,2021_Jan_04_1305,EmoCon_Pilot_120Hz,2020.2.4,119.97600483979348,
,,,,0,0,0,0,21,0,21,0,,,,,,,,,,,,,,,,,,,,,,,,,,,,,,,,,,,,,,,,,,,,,,,21,2.0,m,008_y_m_s_a.jpg,sad,a,17,1,114.73370400001295,115.03319340981542,115.27274389984086,115.42622850988991,115.43102459982038,115.47194050988182,115.47738679987378,116.30492970990016,a,1,0.8133659998420626,813.3659998420626,115.47738679987378,116.30492970990016,116.31641069985926,118.12504161000251,EMOCONPILOT018,2021_Jan_04_1305,EmoCon_Pilot_120Hz,2020.2.4,119.97600483979348,
,,,,0,0,0,0,22,0,22,0,,,,,,,,,,,,,,,,,,,,,,,,,,,,,,,,,,,,,,,,,,,,,,,22,4.0,m,016_y_m_s_a.jpg,sad,a,3,1,118.13054779986851,118.42493860996328,118.44688049983233,118.46909070983529,118.46914329985157,118.50946370991878,118.51094860001467,119.3132606098894,a,1,0.7878875001333654,787.8875001333654,118.51094860001467,119.3132606098894,119.3230043000076,120.89995680996216,EMOCONPILOT018,2021_Jan_04_1305,EmoCon_Pilot_120Hz,2020.2.4,119.97600483979348,
,,,,0,0,0,0,23,0,23,0,,,,,,,,,,,,,,,,,,,,,,,,,,,,,,,,,,,,,,,,,,,,,,,23,8.0,f,019_m_f_h_a.jpg,happy,d,17,1,120.90387789998204,121.19998500999063,121.2254232999403,121.36007110998034,121.36364410002716,121.40200990987941,121.40513699990697,122.01037010983563,d,1,0.5895636000204831,589.5636000204831,121.40513699990697,122.01037010983563,122.02019159984775,123.31686590998433,EMOCONPILOT018,2021_Jan_04_1305,EmoCon_Pilot_120Hz,2020.2.4,119.97600483979348,
,,,,0,0,0,0,24,0,24,0,,,,,,,,,,,,,,,,,,,,,,,,,,,,,,,,,,,,,,,,,,,,,,,24,8.0,f,019_m_f_h_a.jpg,happy,d,3,1,123.31666719983332,123.6167525098659,123.64800799987279,123.67033730996772,123.6712006998714,123.70955290985293,123.71108489995822,124.42690430991351,d,1,0.7077577000018209,707.7577000018209,123.71108489995822,124.42690430991351,124.43256949982606,126.04998710998333,EMOCONPILOT018,2021_Jan_04_1305,EmoCon_Pilot_120Hz,2020.2.4,119.97600483979348,
,,,,0,0,0,0,25,0,25,0,,,,,,,,,,,,,,,,,,,,,,,,,,,,,,,,,,,,,,,,,,,,,,,25,4.0,m,016_y_m_n_a.jpg,neutral,s,3,1,126.0527464998886,126.35004620989784,126.59008789993823,126.61610620995052,126.61712939990684,126.65118741001933,126.65116429980844,127.59617970990948,s,1,0.9356543999165297,935.6543999165297,126.65116429980844,127.59617970990948,127.6037300999742,129.49179480983875,EMOCONPILOT018,2021_Jan_04_1305,EmoCon_Pilot_120Hz,2020.2.4,119.97600483979348,
,,,,0,0,0,0,26,0,26,0,,,,,,,,,,,,,,,,,,,,,,,,,,,,,,,,,,,,,,,,,,,,,,,26,4.0,m,016_y_m_h_a.jpg,happy,d,3,1,129.49601769982837,129.79185550999827,129.80515979998745,129.82709550987929,129.8279671999626,129.86813590992242,129.86974340002052,131.07515451000071,d,1,1.1971680000424385,1197.1680000424385,129.86974340002052,131.07515451000071,131.08806640002877,132.21686160997487,EMOCONPILOT018,2021_Jan_04_1305,EmoCon_Pilot_120Hz,2020.2.4,119.97600483979348,
,,,,0,0,0,0,27,0,27,0,,,,,,,,,,,,,,,,,,,,,,,,,,,,,,,,,,,,,,,,,,,,,,,27,8.0,f,019_m_f_h_a.jpg,happy,d,17,1,132.22235629986972,132.51690010996535,132.53783649997786,132.6685351099819,132.67152229999192,132.70996680986136,132.71398769994266,134.17008550991304,d,1,1.4405898000113666,1440.5898000113666,132.71398769994266,134.17008550991304,134.17486259993166,135.3586994098965,EMOCONPILOT018,2021_Jan_04_1305,EmoCon_Pilot_120Hz,2020.2.4,119.97600483979348,
,,,,0,0,0,0,28,0,28,0,,,,,,,,,,,,,,,,,,,,,,,,,,,,,,,,,,,,,,,,,,,,,,,28,8.0,f,019_m_f_s_a.jpg,sad,a,3,1,135.364593999926,135.65872271000407,135.89983319980092,135.92574130990542,135.9259922998026,135.960675110016,135.9613357000053,136.73414481002837,s,0,0.761346299899742,761.346299899742,135.9613357000053,136.73414481002837,136.74166830000468,138.333733109897,EMOCONPILOT018,2021_Jan_04_1305,EmoCon_Pilot_120Hz,2020.2.4,119.97600483979348,
,,,,0,0,0,0,29,0,29,0,,,,,,,,,,,,,,,,,,,,,,,,,,,,,,,,,,,,,,,,,,,,,,,29,10.0,f,028_y_f_n_a.jpg,neutral,s,17,1,138.33685670001432,138.63372790990397,138.8283841998782,138.98520250981673,138.99003749992698,139.02819151002913,139.03270359989256,139.5024395099841,s,1,0.45808640005998313,458.08640005998313,139.03270359989256,139.5024395099841,139.51066629984416,140.775380009925,EMOCONPILOT018,2021_Jan_04_1305,EmoCon_Pilot_120Hz,2020.2.4,119.97600483979348,
,,,,0,0,0,0,30,0,30,0,,,,,,,,,,,,,,,,,,,,,,,,,,,,,,,,,,,,,,,,,,,,,,,30,12.0,f,040_y_f_n_a.jpg,neutral,s,17,1,140.77837089984678,141.07546880994923,141.29669189988635,141.4526611099951,141.4574001999572,141.4985110099893,141.50333689991385,141.84987781001254,s,1,0.331565200118348,331.565200118348,141.50333689991385,141.84987781001254,141.86124109989032,143.40044480995275,EMOCONPILOT018,2021_Jan_04_1305,EmoCon_Pilot_120Hz,2020.2.4,119.97600483979348,
,,,,0,0,0,0,31,0,31,0,,,,,,,,,,,,,,,,,,,,,,,,,,,,,,,,,,,,,,,,,,,,,,,31,5.0,m,027_o_m_n_a.jpg,neutral,s,3,1,143.40321809984744,143.70049391002394,143.91206619981676,143.93885921002365,143.9398530998733,143.9767084099818,143.97788239992224,144.75592390997335,s,1,0.7687969000544399,768.7969000544399,143.97788239992224,144.75592390997335,144.76343169994652,146.38393140994012,EMOCONPILOT018,2021_Jan_04_1305,EmoCon_Pilot_120Hz,2020.2.4,119.97600483979348,
,,,,0,0,0,0,32,0,32,0,,,,,,,,,,,,,,,,,,,,,,,,,,,,,,,,,,,,,,,,,,,,,,,32,8.0,f,019_m_f_n_a.jpg,neutral,s,3,1,146.3891888000071,146.68385951002128,146.9221861998085,146.94746411000378,146.94808049988933,146.98514530984684,146.98627280001529,147.5220504099503,s,1,0.5204627998173237,520.4627998173237,146.98627280001529,147.5220504099503,147.52792089991271,148.91721370993181,EMOCONPILOT018,2021_Jan_04_1305,EmoCon_Pilot_120Hz,2020.2.4,119.97600483979348,
,,,,0,0,0,0,33,0,33,0,,,,,,,,,,,,,,,,,,,,,,,,,,,,,,,,,,,,,,,,,,,,,,,33,4.0,m,016_y_m_n_a.jpg,neutral,s,17,1,148.92128010001034,149.21721920990385,149.44726179982536,149.60580700999125,149.60920309997164,149.64974440997466,149.65498110000044,150.18254940994083,s,1,0.5156702001113445,515.6702001113445,149.65498110000044,150.18254940994083,150.19214940001257,152.17558581000193,EMOCONPILOT018,2021_Jan_04_1305,EmoCon_Pilot_120Hz,2020.2.4,119.97600483979348,
,,,,0,0,0,0,34,0,34,0,,,,,,,,,,,,,,,,,,,,,,,,,,,,,,,,,,,,,,,,,,,,,,,34,11.0,f,030_o_f_n_a.jpg,neutral,s,3,1,152.17936909990385,152.47570930994115,152.68269719998352,152.70990340984426,152.71320499991998,152.75072530996985,152.75255249999464,153.18394550997763,s,1,0.4181381000671536,418.1381000671536,152.75255249999464,153.18394550997763,153.1922159998212,154.5006586098112,EMOCONPILOT018,2021_Jan_04_1305,EmoCon_Pilot_120Hz,2020.2.4,119.97600483979348,
,,,,0,0,0,0,35,0,35,0,,,,,,,,,,,,,,,,,,,,,,,,,,,,,,,,,,,,,,,,,,,,,,,35,9.0,f,021_o_f_h_a.jpg,happy,d,17,1,154.5036805998534,154.80067210984416,155.01584129990079,155.184127709968,155.18890239996836,155.22993590999394,155.23442190000787,155.60116670993156,d,1,0.3523581000044942,352.3581000044942,155.23442190000787,155.60116670993156,155.61250809999183,157.49247660990804,EMOCONPILOT018,2021_Jan_04_1305,EmoCon_Pilot_120Hz,2020.2.4,119.97600483979348,
,,,,0,0,0,0,36,0,36,0,,,,,,,,,,,,,,,,,,,,,,,,,,,,,,,,,,,,,,,,,,,,,,,36,11.0,f,030_o_f_s_a.jpg,sad,a,3,1,157.49769179988652,157.7924381100107,157.99545939988457,158.02145440983585,158.0216276999563,158.05800700993277,158.05838499986567,158.74567590993829,s,0,0.6804523998871446,680.4523998871446,158.05838499986567,158.74567590993829,158.75304009998217,159.92591810985468,EMOCONPILOT018,2021_Jan_04_1305,EmoCon_Pilot_120Hz,2020.2.4,119.97600483979348,
,,,,0,0,0,0,37,0,37,0,,,,,,,,,,,,,,,,,,,,,,,,,,,,,,,,,,,,,,,,,,,,,,,37,12.0,f,040_y_f_n_a.jpg,neutral,s,3,1,159.93137549981475,160.22582521000876,160.453927999828,160.48041030988097,160.48348869988695,160.52418120987713,160.52939039980993,161.05053430995903,s,1,0.5055807000026107,505.5807000026107,160.52939039980993,161.05053430995903,161.06200959999114,162.1008362098597,EMOCONPILOT018,2021_Jan_04_1305,EmoCon_Pilot_120Hz,2020.2.4,119.97600483979348,
,,,,0,0,0,0,38,0,38,0,,,,,,,,,,,,,,,,,,,,,,,,,,,,,,,,,,,,,,,,,,,,,,,38,9.0,f,021_o_f_s_a.jpg,sad,a,3,1,162.10400649998337,162.4007947099395,162.422986399848,162.44512501000426,162.4456453998573,162.48540270994417,162.48683269997127,162.95411310987546,d,0,0.45987469982355833,459.87469982355833,162.48683269997127,162.95411310987546,162.9606890999712,164.29265990983694,EMOCONPILOT018,2021_Jan_04_1305,EmoCon_Pilot_120Hz,2020.2.4,119.97600483979348,
,,,,0,0,0,0,39,0,39,0,,,,,,,,,,,,,,,,,,,,,,,,,,,,,,,,,,,,,,,,,,,,,,,39,4.0,m,016_y_m_n_a.jpg,neutral,s,17,1,164.29654040001333,164.59263910995796,164.84071589983068,164.99756140997633,165.00140299997292,165.04272310985252,165.04784939996898,165.38578230994753,s,1,0.32292880001477897,322.928800014779,165.04784939996898,165.38578230994753,165.39625709992833,166.69272320987656,EMOCONPILOT018,2021_Jan_04_1305,EmoCon_Pilot_120Hz,2020.2.4,119.97600483979348,
,,,,0,0,0,0,40,0,40,0,,,,,,,,,,,,,,,,,,,,,,,,,,,,,,,,,,,,,,,,,,,,,,,40,9.0,f,021_o_f_s_a.jpg,sad,a,17,1,166.69820819981396,166.99262590999714,167.01689570001327,167.15263740988448,167.1577696998138,167.19680000995285,167.2014719999861,168.2187634100206,a,1,1.0092982000205666,1009.2982000205666,167.2014719999861,168.2187634100206,168.2239059000276,169.75933650988154,EMOCONPILOT018,2021_Jan_04_1305,EmoCon_Pilot_120Hz,2020.2.4,119.97600483979348,
,,,,0,0,0,0,41,0,41,0,,,,,,,,,,,,,,,,,,,,,,,,,,,,,,,,,,,,,,,,,,,,,,,41,11.0,f,030_o_f_h_a.jpg,happy,d,17,1,169.7625057999976,170.05925380988046,170.2692998999264,170.42937830989248,170.43313069990836,170.47400300987064,170.4789763998706,171.13748681000433,d,1,0.6516578998416662,651.6578998416662,170.4789763998706,171.13748681000433,171.14396279980429,172.5343327099923,EMOCONPILOT018,2021_Jan_04_1305,EmoCon_Pilot_120Hz,2020.2.4,119.97600483979348,
,,,,0,0,0,0,42,0,42,0,,,,,,,,,,,,,,,,,,,,,,,,,,,,,,,,,,,,,,,,,,,,,,,42,4.0,m,016_y_m_h_a.jpg,happy,d,17,1,172.5373030998744,172.83441940988413,172.85675709997304,172.99441970991901,172.99753870000131,173.03574211001396,173.03920200001448,173.82609720984473,d,1,0.7794586000964046,779.4586000964046,173.03920200001448,173.82609720984473,173.8346903999336,175.37613200992345,EMOCONPILOT018,2021_Jan_04_1305,EmoCon_Pilot_120Hz,2020.2.4,119.97600483979348,
,,,,0,0,0,0,43,0,43,0,,,,,,,,,,,,,,,,,,,,,,,,,,,,,,,,,,,,,,,,,,,,,,,43,1.0,m,004_o_m_s_a.jpg,sad,a,17,1,175.37909079995006,175.67614200981333,175.69767549983226,175.82828110982663,175.83177449996583,175.86951500982977,175.8729492998682,176.34320860998704,a,1,0.45800470001995564,458.00470001995564,175.8729492998682,176.34320860998704,176.35290209995583,177.7678402100224,EMOCONPILOT018,2021_Jan_04_1305,EmoCon_Pilot_120Hz,2020.2.4,119.97600483979348,
,,,,0,0,0,0,44,0,44,0,,,,,,,,,,,,,,,,,,,,,,,,,,,,,,,,,,,,,,,,,,,,,,,44,4.0,m,016_y_m_h_a.jpg,happy,d,3,1,177.77094189985655,178.067756209895,178.083242099965,178.10503840995952,178.10603939997964,178.14414610983803,178.14549799985252,179.31414510998874,d,1,1.1532760001718998,1153.2760001718998,178.14549799985252,179.31414510998874,179.32338820002042,181.11799970981664,EMOCONPILOT018,2021_Jan_04_1305,EmoCon_Pilot_120Hz,2020.2.4,119.97600483979348,
,,,,0,0,0,0,45,0,45,0,,,,,,,,,,,,,,,,,,,,,,,,,,,,,,,,,,,,,,,,,,,,,,,45,7.0,f,012_o_f_s_a.jpg,sad,a,3,1,181.1224250998348,181.41791760982014,181.44116519996896,181.46384550994262,181.46421299991198,181.50253040986135,181.5025710000191,182.40572720989584,s,0,0.8922407999634743,892.2407999634743,181.5025710000191,182.40572720989584,182.41675459989347,183.97643040996044,EMOCONPILOT018,2021_Jan_04_1305,EmoCon_Pilot_120Hz,2020.2.4,119.97600483979348,
,,,,0,0,0,0,46,0,46,0,,,,,,,,,,,,,,,,,,,,,,,,,,,,,,,,,,,,,,,,,,,,,,,46,8.0,f,019_m_f_n_a.jpg,neutral,s,17,1,183.98180509987287,184.2764053099323,184.5401928999927,184.69734950982965,184.7012843999546,184.74226930984295,184.74721880001016,185.78884681002236,s,1,1.0315523999743164,1031.5523999743164,184.74721880001016,185.78884681002236,185.8002011999488,187.3097424098756,EMOCONPILOT018,2021_Jan_04_1305,EmoCon_Pilot_120Hz,2020.2.4,119.97600483979348,
,,,,0,0,0,0,47,0,47,0,,,,,,,,,,,,,,,,,,,,,,,,,,,,,,,,,,,,,,,,,,,,,,,47,2.0,m,008_y_m_h_a.jpg,happy,d,3,1,187.3151940999087,187.60983411003835,187.62716489983723,187.6493223099038,187.64990739990026,187.6859439098276,187.6860256998334,188.47052620993927,d,1,0.7726740001235157,772.6740001235157,187.6860256998334,188.47052620993927,188.47919330000877,189.86812290982343,EMOCONPILOT018,2021_Jan_04_1305,EmoCon_Pilot_120Hz,2020.2.4,119.97600483979348,
,,,,0,0,0,0,48,0,48,0,,,,,,,,,,,,,,,,,,,,,,,,,,,,,,,,,,,,,,,,,,,,,,,48,12.0,f,040_y_f_n_a.jpg,neutral,s,17,1,189.87345449998975,190.1681283099111,190.39051509997807,190.5483528099954,190.55176109983586,190.5924046099186,190.59658110002056,191.05646470994688,s,1,0.4465193999931216,446.5193999931216,190.59658110002056,191.05646470994688,191.06765499990433,192.56812631003558,EMOCONPILOT018,2021_Jan_04_1305,EmoCon_Pilot_120Hz,2020.2.4,119.97600483979348,
,,,,0,0,0,0,49,0,49,0,,,,,,,,,,,,,,,,,,,,,,,,,,,,,,,,,,,,,,,,,,,,,,,49,11.0,f,030_o_f_n_a.jpg,neutral,s,3,1,192.57222229987383,192.86814671000465,193.07598129985854,193.10250570988282,193.10324899991974,193.13809230984188,193.13787259999663,193.69914380987174,s,1,0.5528618998359889,552.8618998359889,193.13787259999663,193.69914380987174,193.70675339992158,194.97657480989582,EMOCONPILOT018,2021_Jan_04_1305,EmoCon_Pilot_120Hz,2020.2.4,119.97600483979348,
,,,,0,0,0,0,50,0,50,0,,,,,,,,,,,,,,,,,,,,,,,,,,,,,,,,,,,,,,,,,,,,,,,50,8.0,f,019_m_f_h_a.jpg,happy,d,3,1,194.98272259999067,195.27654250981286,195.30400999984704,195.32666400996968,195.32730140001513,195.36329400995746,195.36373099987395,196.37066850988194,d,1,0.9909699000418186,990.9699000418186,195.36373099987395,196.37066850988194,196.37714679981582,197.41836730986833,EMOCONPILOT018,2021_Jan_04_1305,EmoCon_Pilot_120Hz,2020.2.4,119.97600483979348,
,,,,0,0,0,0,51,0,51,0,,,,,,,,,,,,,,,,,,,,,,,,,,,,,,,,,,,,,,,,,,,,,,,51,8.0,f,019_m_f_n_a.jpg,neutral,s,3,1,197.42393219983205,197.71828370997682,197.97062229993753,197.9969449098222,197.99721980001777,198.0323568099644,198.03225649986416,199.0776114099659,s,1,1.0345133999362588,1034.5133999362588,198.03225649986416,199.0776114099659,199.08510909997858,200.8850659098476,EMOCONPILOT018,2021_Jan_04_1305,EmoCon_Pilot_120Hz,2020.2.4,119.97600483979348,
,,,,0,0,0,0,52,0,52,0,,,,,,,,,,,,,,,,,,,,,,,,,,,,,,,,,,,,,,,,,,,,,,,52,12.0,f,040_y_f_n_a.jpg,neutral,s,17,1,200.8891087998636,201.1850172098726,201.40501370001584,201.57033580997958,201.5750098999124,201.6158250099048,201.62099449988455,202.80330620999447,s,1,1.1739656999707222,1173.9656999707222,201.62099449988455,202.80330620999447,202.810850400012,203.83518940992653,EMOCONPILOT018,2021_Jan_04_1305,EmoCon_Pilot_120Hz,2020.2.4,119.97600483979348,
,,,,0,0,0,0,53,0,53,0,,,,,,,,,,,,,,,,,,,,,,,,,,,,,,,,,,,,,,,,,,,,,,,53,9.0,f,021_o_f_h_a.jpg,happy,d,17,1,203.8383386998903,204.1352135100402,204.35431909980252,204.51524190991185,204.51896399981342,204.55653331000357,204.56093789986335,205.1760283099953,d,1,0.6017521999310702,601.7521999310702,204.56093789986335,205.1760283099953,205.18323759990744,206.5185501099564,EMOCONPILOT018,2021_Jan_04_1305,EmoCon_Pilot_120Hz,2020.2.4,119.97600483979348,
,,,,0,0,0,0,54,0,54,0,,,,,,,,,,,,,,,,,,,,,,,,,,,,,,,,,,,,,,,,,,,,,,,54,2.0,m,008_y_m_n_a.jpg,neutral,s,17,1,206.5240555999335,206.81849200990982,207.05798339983448,207.214144109888,207.21754270000383,207.25755291003733,207.26272149989381,207.88946291003376,s,1,0.6118495999835432,611.8495999835432,207.26272149989381,207.88946291003376,207.89234329992905,209.81847970993257,EMOCONPILOT018,2021_Jan_04_1305,EmoCon_Pilot_120Hz,2020.2.4,119.97600483979348,
,,,,0,0,0,0,55,0,55,0,,,,,,,,,,,,,,,,,,,,,,,,,,,,,,,,,,,,,,,,,,,,,,,55,10.0,f,028_y_f_n_a.jpg,neutral,s,17,1,209.81890559988096,210.11860851002857,210.32005569990724,210.47750080996192,210.48229079996236,210.52305780993774,210.52835759986192,211.00219951001927,s,1,0.4663738999515772,466.3738999515772,210.52835759986192,211.00219951001927,211.01067029987462,212.6769556099549,EMOCONPILOT018,2021_Jan_04_1305,EmoCon_Pilot_120Hz,2020.2.4,119.97600483979348,
,,,,0,0,0,0,56,0,56,0,,,,,,,,,,,,,,,,,,,,,,,,,,,,,,,,,,,,,,,,,,,,,,,56,12.0,f,040_y_f_h_a.jpg,happy,d,17,1,212.68094819993712,212.97699480983428,213.00324969994836,213.1372447099071,213.14188569993712,213.182609009929,213.18805280001834,214.04543960993178,d,1,0.8466762998141348,846.6762998141348,213.18805280001834,214.04543960993178,214.05301859998144,215.91031030998565,EMOCONPILOT018,2021_Jan_04_1305,EmoCon_Pilot_120Hz,2020.2.4,119.97600483979348,
,,,,0,0,0,0,57,0,57,0,,,,,,,,,,,,,,,,,,,,,,,,,,,,,,,,,,,,,,,,,,,,,,,57,2.0,m,008_y_m_n_a.jpg,neutral,s,3,1,215.91436819988303,216.21034850985743,216.45085549983196,216.47648140988312,216.47642419999465,216.51212700982578,216.5117217998486,217.5744536099024,s,1,1.0512155001051724,1051.2155001051724,216.5117217998486,217.5744536099024,217.58412289991975,218.6188203100115,EMOCONPILOT018,2021_Jan_04_1305,EmoCon_Pilot_120Hz,2020.2.4,119.97600483979348,
,,,,0,0,0,0,58,0,58,0,,,,,,,,,,,,,,,,,,,,,,,,,,,,,,,,,,,,,,,,,,,,,,,58,9.0,f,021_o_f_n_a.jpg,neutral,s,3,1,218.62455619988032,218.91874350993893,219.13383219996467,219.15965000996366,219.16063349996693,219.19549501002766,219.19512169994414,220.0077250098344,s,1,0.7995621999725699,799.5621999725699,219.19512169994414,220.0077250098344,220.01341130002402,221.0771025099326,EMOCONPILOT018,2021_Jan_04_1305,EmoCon_Pilot_120Hz,2020.2.4,119.97600483979348,
,,,,0,0,0,0,59,0,59,0,,,,,,,,,,,,,,,,,,,,,,,,,,,,,,,,,,,,,,,,,,,,,,,59,4.0,m,016_y_m_n_a.jpg,neutral,s,3,1,221.08059019991197,221.37717211004346,221.61130039999261,221.6373692100402,221.63816039985977,221.6726296098437,221.6731632000301,222.41960210995748,s,1,0.7298758001998067,729.8758001998067,221.6731632000301,222.41960210995748,222.43089149985462,223.48555350992828,EMOCONPILOT018,2021_Jan_04_1305,EmoCon_Pilot_120Hz,2020.2.4,119.97600483979348,
,,,,0,0,0,0,60,0,60,0,,,,,,,,,,,,,,,,,,,,,,,,,,,,,,,,,,,,,,,,,,,,,,,60,6.0,m,033_o_m_s_a.jpg,sad,a,17,1,223.48984329984523,223.78555791000835,223.8017625999637,223.93715210994705,223.94068509992212,223.97831700989045,223.98098349990323,224.5861998099368,s,0,0.5899185999296606,589.9185999296606,223.98098349990323,224.5861998099368,224.59474789979868,225.7688865099568,EMOCONPILOT018,2021_Jan_04_1305,EmoCon_Pilot_120Hz,2020.2.4,119.97600483979348,
,,,,0,0,0,0,61,0,61,0,,,,,,,,,,,,,,,,,,,,,,,,,,,,,,,,,,,,,,,,,,,,,,,61,7.0,f,012_o_f_n_a.jpg,neutral,s,17,1,225.77403429988772,226.0689029098954,226.2912090998143,226.4529273099266,226.45646799984388,226.4965803098399,226.50160129996948,227.14711830988526,s,1,0.6370763001032174,637.0763001032174,226.50160129996948,227.14711830988526,227.15070809982717,228.677298410004,EMOCONPILOT018,2021_Jan_04_1305,EmoCon_Pilot_120Hz,2020.2.4,119.97600483979348,
,,,,0,0,0,0,62,0,62,0,,,,,,,,,,,,,,,,,,,,,,,,,,,,,,,,,,,,,,,,,,,,,,,62,2.0,m,008_y_m_h_a.jpg,happy,d,3,1,228.6827600998804,228.9772990098223,229.00298559991643,229.02549030994996,229.02626209985465,229.06179760992526,229.06166929984465,229.98974910997785,d,1,0.917089199880138,917.089199880138,229.06166929984465,229.98974910997785,229.9974193999078,231.5107818098273,EMOCONPILOT018,2021_Jan_04_1305,EmoCon_Pilot_120Hz,2020.2.4,119.97600483979348,
,,,,0,0,0,0,63,0,63,0,,,,,,,,,,,,,,,,,,,,,,,,,,,,,,,,,,,,,,,,,,,,,,,63,10.0,f,028_y_f_h_a.jpg,happy,d,3,1,231.5149095999077,231.81065200981683,231.8328050998971,231.85447380985133,231.85466159996577,231.89525290988385,231.89535219990648,232.54538480998016,d,1,0.6354515000712126,635.4515000712126,231.89535219990648,232.54538480998016,232.55010629980825,233.72747541000135,EMOCONPILOT018,2021_Jan_04_1305,EmoCon_Pilot_120Hz,2020.2.4,119.97600483979348,
,,,,0,0,0,0,64,0,64,0,,,,,,,,,,,,,,,,,,,,,,,,,,,,,,,,,,,,,,,,,,,,,,,64,4.0,m,016_y_m_h_a.jpg,happy,d,17,1,233.73290199995972,234.0272317099385,234.03971459995955,234.17073951000347,234.17250250000507,234.21194370989687,234.21351449983194,234.76092020994983,d,1,0.5334369000047445,533.4369000047445,234.21351449983194,234.76092020994983,234.77053259988315,236.5774197100196,EMOCONPILOT018,2021_Jan_04_1305,EmoCon_Pilot_120Hz,2020.2.4,119.97600483979348,
,,,,0,0,0,0,65,0,65,0,,,,,,,,,,,,,,,,,,,,,,,,,,,,,,,,,,,,,,,,,,,,,,,65,9.0,f,021_o_f_s_a.jpg,sad,a,3,1,236.5815799999982,236.87741810982115,236.89702829997987,236.92032560999505,236.92098969989456,236.95532810981385,236.95637529995292,238.46931790993548,None,0,,,236.95637529995292,238.46931790993548,238.47335230000317,239.52745800991542,EMOCONPILOT018,2021_Jan_04_1305,EmoCon_Pilot_120Hz,2020.2.4,119.97600483979348,
,,,,0,0,0,0,66,0,66,0,,,,,,,,,,,,,,,,,,,,,,,,,,,,,,,,,,,,,,,,,,,,,,,66,7.0,f,012_o_f_h_a.jpg,happy,d,3,1,239.5274975998327,239.82749230987392,239.84674740000628,239.86961471000686,239.87028289982118,239.90707000987604,239.9074775998015,241.4090059098322,None,0,,,239.9074775998015,241.4090059098322,241.4119160999544,243.30265650982037,EMOCONPILOT018,2021_Jan_04_1305,EmoCon_Pilot_120Hz,2020.2.4,119.97600483979348,
,,,,0,0,0,0,67,0,67,0,,,,,,,,,,,,,,,,,,,,,,,,,,,,,,,,,,,,,,,,,,,,,,,67,9.0,f,021_o_f_h_a.jpg,happy,d,3,1,243.3068770999089,243.6026644100435,243.83837189991027,243.86643891003914,243.8664735998027,243.9036270099692,243.9035692999605,244.97958340998738,d,1,1.0672029999550432,1067.2029999550432,243.9035692999605,244.97958340998738,244.98600719985552,246.21941220983862,EMOCONPILOT018,2021_Jan_04_1305,EmoCon_Pilot_120Hz,2020.2.4,119.97600483979348,
,,,,0,0,0,0,68,0,68,0,,,,,,,,,,,,,,,,,,,,,,,,,,,,,,,,,,,,,,,,,,,,,,,68,8.0,f,019_m_f_h_a.jpg,happy,d,17,1,246.2250085999258,246.51928790998645,246.5496973998379,246.68769601001404,246.6893601999618,246.72894130987115,246.7305426998064,247.36831861003301,d,1,0.6243825999554247,624.3825999554247,246.7305426998064,247.36831861003301,247.3739330000244,248.8943532099016,EMOCONPILOT018,2021_Jan_04_1305,EmoCon_Pilot_120Hz,2020.2.4,119.97600483979348,
,,,,0,0,0,0,69,0,69,0,,,,,,,,,,,,,,,,,,,,,,,,,,,,,,,,,,,,,,,,,,,,,,,69,9.0,f,021_o_f_s_a.jpg,sad,a,3,1,248.8972008000128,249.19443270997144,249.2135122998152,249.23621490984223,249.23668630002066,249.2727493100334,249.2732573999092,250.8762418098282,None,0,,,249.2732573999092,250.8762418098282,250.88121959986165,252.427777009923,EMOCONPILOT018,2021_Jan_04_1305,EmoCon_Pilot_120Hz,2020.2.4,119.97600483979348,
,,,,0,0,0,0,70,0,70,0,,,,,,,,,,,,,,,,,,,,,,,,,,,,,,,,,,,,,,,,,,,,,,,70,2.0,m,008_y_m_h_a.jpg,happy,d,3,1,252.43193049984984,252.72773640989325,252.74923239997588,252.77185230995528,252.77189460000955,252.80636310987174,252.80634170002304,253.85229381001554,d,1,1.036430599866435,1036.430599866435,252.80634170002304,253.85229381001554,253.86043769982643,254.86960170990787,EMOCONPILOT018,2021_Jan_04_1305,EmoCon_Pilot_120Hz,2020.2.4,119.97600483979348,
,,,,0,0,0,0,71,0,71,0,,,,,,,,,,,,,,,,,,,,,,,,,,,,,,,,,,,,,,,,,,,,,,,71,1.0,m,004_o_m_h_a.jpg,happy,d,3,1,254.87438689987175,255.16950330990366,255.38044159999117,255.40654760985635,255.40672519989312,255.44214270999655,255.4436110998504,256.09415690987373,d,1,0.6392029998824,639.2029998824,255.4436110998504,256.09415690987373,256.1016596998088,257.5029560098425,EMOCONPILOT018,2021_Jan_04_1305,EmoCon_Pilot_120Hz,2020.2.4,119.97600483979348,
,,,,0,0,0,0,72,0,72,0,,,,,,,,,,,,,,,,,,,,,,,,,,,,,,,,,,,,,,,,,,,,,,,72,11.0,f,030_o_f_h_a.jpg,happy,d,17,1,257.50699449982494,257.8029696099926,258.0034560000058,258.1601932099089,258.1630410000216,258.20293420986275,258.2079824998509,258.8287625099998,d,1,0.6109899000730366,610.9899000730366,258.2079824998509,258.8287625099998,258.83929479983635,260.3779801099096,EMOCONPILOT018,2021_Jan_04_1305,EmoCon_Pilot_120Hz,2020.2.4,119.97600483979348,
,,,,0,0,0,0,73,0,73,0,,,,,,,,,,,,,,,,,,,,,,,,,,,,,,,,,,,,,,,,,,,,,,,73,8.0,f,019_m_f_s_a.jpg,sad,a,17,1,260.3822574999649,260.6779020099435,260.91842599981464,261.08793920991013,261.0926377000287,261.1324013098143,261.1375615999568,261.65882840999404,a,1,0.5055472999811172,505.54729998111725,261.1375615999568,261.65882840999404,261.6703916999977,263.00302950982007,EMOCONPILOT018,2021_Jan_04_1305,EmoCon_Pilot_120Hz,2020.2.4,119.97600483979348,
,,,,0,0,0,0,74,0,74,0,,,,,,,,,,,,,,,,,,,,,,,,,,,,,,,,,,,,,,,,,,,,,,,74,5.0,m,027_o_m_h_a.jpg,happy,d,3,1,263.008417399833,263.3029973098543,263.5135132998694,263.54035991001876,263.54143769992515,263.5792085099034,263.5812140000053,264.2920051099733,d,1,0.7015953999944031,701.5953999944031,263.5812140000053,264.2920051099733,264.2954679999966,265.37796900994147,EMOCONPILOT018,2021_Jan_04_1305,EmoCon_Pilot_120Hz,2020.2.4,119.97600483979348,
,,,,0,0,0,0,75,0,75,0,,,,,,,,,,,,,,,,,,,,,,,,,,,,,,,,,,,,,,,,,,,,,,,75,8.0,f,019_m_f_s_a.jpg,sad,a,3,1,265.3795290000271,265.678060609987,265.9188600999769,265.94551340993496,265.9456888998393,265.97988780997696,265.9808678999543,266.71483460990714,a,1,0.7260483000427485,726.0483000427485,265.9808678999543,266.71483460990714,266.7211341999937,267.8281771099661,EMOCONPILOT018,2021_Jan_04_1305,EmoCon_Pilot_120Hz,2020.2.4,119.97600483979348,
,,,,0,0,0,0,76,0,76,0,,,,,,,,,,,,,,,,,,,,,,,,,,,,,,,,,,,,,,,,,,,,,,,76,7.0,f,012_o_f_n_a.jpg,neutral,s,3,1,267.8323648998048,268.1280724100303,268.3396886999253,268.3667423100211,268.3701045999769,268.41134440982717,268.4163281999063,269.05988830993886,s,1,0.634584000101313,634.584000101313,268.4163281999063,269.05988830993886,269.0716923000291,270.26149380989375,EMOCONPILOT018,2021_Jan_04_1305,EmoCon_Pilot_120Hz,2020.2.4,119.97600483979348,
,,,,0,0,0,0,77,0,77,0,,,,,,,,,,,,,,,,,,,,,,,,,,,,,,,,,,,,,,,,,,,,,,,77,6.0,m,033_o_m_s_a.jpg,sad,a,17,1,270.26455209986307,270.56149940998296,270.5823369999416,270.71304570990617,270.7152261999436,270.7543644098565,270.7570310998708,271.73852020981724,a,1,0.9660146001260728,966.0146001260728,270.7570310998708,271.73852020981724,271.746408799896,273.28652840983125,EMOCONPILOT018,2021_Jan_04_1305,EmoCon_Pilot_120Hz,2020.2.4,119.97600483979348,
,,,,0,0,0,0,78,0,78,0,,,,,,,,,,,,,,,,,,,,,,,,,,,,,,,,,,,,,,,,,,,,,,,78,1.0,m,004_o_m_h_a.jpg,happy,d,3,1,273.2897848999128,273.58653431003916,273.7932686000131,273.81904020989316,273.8191998000257,273.8543418100104,273.85584479989484,274.4714667099994,d,1,0.6034385000821203,603.4385000821203,273.85584479989484,274.4714667099994,274.4812586000189,275.5533095099032,EMOCONPILOT018,2021_Jan_04_1305,EmoCon_Pilot_120Hz,2020.2.4,119.97600483979348,
,,,,0,0,0,0,79,0,79,0,,,,,,,,,,,,,,,,,,,,,,,,,,,,,,,,,,,,,,,,,,,,,,,79,5.0,m,027_o_m_s_a.jpg,sad,a,3,1,275.5564386998303,275.8533019098919,275.874751499854,275.89768891003916,275.89761230000295,275.9341467098799,275.9336849998217,277.17609140989373,s,0,1.229112699860707,1229.112699860707,275.9336849998217,277.17609140989373,277.18433479988016,278.77831440991724,EMOCONPILOT018,2021_Jan_04_1305,EmoCon_Pilot_120Hz,2020.2.4,119.97600483979348,
,,,,0,0,0,0,80,0,80,0,,,,,,,,,,,,,,,,,,,,,,,,,,,,,,,,,,,,,,,,,,,,,,,80,9.0,f,021_o_f_s_a.jpg,sad,a,17,1,278.782567899907,279.0783279099502,279.1004547998309,279.23823740999217,279.2410461998079,279.27957570985893,279.2823494998738,280.8958371099085,None,0,,,279.2823494998738,280.8958371099085,280.8998741998803,282.3868243099656,EMOCONPILOT018,2021_Jan_04_1305,EmoCon_Pilot_120Hz,2020.2.4,119.97600483979348,
,,,,0,0,0,0,81,0,81,0,,,,,,,,,,,,,,,,,,,,,,,,,,,,,,,,,,,,,,,,,,,,,,,81,5.0,m,027_o_m_s_a.jpg,sad,a,17,1,282.3928530998528,282.68675940986725,282.7116268998943,282.8466773099732,282.8502218998037,282.8880864099134,282.8902759999037,284.4857354100328,None,0,,,282.8902759999037,284.4857354100328,284.4895406998694,285.8535015100148,EMOCONPILOT018,2021_Jan_04_1305,EmoCon_Pilot_120Hz,2020.2.4,119.97600483979348,
,,,,0,0,0,0,82,0,82,0,,,,,,,,,,,,,,,,,,,,,,,,,,,,,,,,,,,,,,,,,,,,,,,82,7.0,f,012_o_f_h_a.jpg,happy,d,17,1,285.8566109999083,286.15344450986015,286.17499359999783,286.3050994099118,286.3085323998239,286.3466341098771,286.3496699000243,287.0130113099236,d,1,0.6531121998559684,653.1121998559684,286.3496699000243,287.0130113099236,287.01971039990894,288.12022250997836,EMOCONPILOT018,2021_Jan_04_1305,EmoCon_Pilot_120Hz,2020.2.4,119.97600483979348,
,,,,0,0,0,0,83,0,83,0,,,,,,,,,,,,,,,,,,,,,,,,,,,,,,,,,,,,,,,,,,,,,,,83,3.0,m,013_y_m_s_a.jpg,sad,a,3,1,288.1256250999868,288.4201858098619,288.4354538999032,288.45771680995824,288.45856639998965,288.4964373099152,288.4982048999518,289.9883964100387,a,1,1.48065169993788,1480.65169993788,288.4982048999518,289.9883964100387,289.9951523998752,291.7119695098605,EMOCONPILOT018,2021_Jan_04_1305,EmoCon_Pilot_120Hz,2020.2.4,119.97600483979348,
,,,,0,0,0,0,84,0,84,0,,,,,,,,,,,,,,,,,,,,,,,,,,,,,,,,,,,,,,,,,,,,,,,84,5.0,m,027_o_m_s_a.jpg,sad,a,17,1,291.71746549988165,292.01196320997553,292.027415700024,292.1636659099255,292.1671472999733,292.20667930985803,292.21035289997235,292.92827530987563,a,1,0.7044983999803662,704.4983999803662,292.21035289997235,292.92827530987563,292.9381848999765,293.97861410994085,EMOCONPILOT018,2021_Jan_04_1305,EmoCon_Pilot_120Hz,2020.2.4,119.97600483979348,
,,,,0,0,0,0,85,0,85,0,,,,,,,,,,,,,,,,,,,,,,,,,,,,,,,,,,,,,,,,,,,,,,,85,4.0,m,016_y_m_s_a.jpg,sad,a,3,1,293.9790479999501,294.2785590099171,294.3009058998432,294.32351961000825,294.32408769987524,294.36321050990375,294.36444459995255,295.88568661003376,a,1,1.5104023001622409,1510.4023001622409,294.36444459995255,295.88568661003376,295.89290269999765,297.162108109938,EMOCONPILOT018,2021_Jan_04_1305,EmoCon_Pilot_120Hz,2020.2.4,119.97600483979348,
,,,,0,0,0,0,86,0,86,0,,,,,,,,,,,,,,,,,,,,,,,,,,,,,,,,,,,,,,,,,,,,,,,86,5.0,m,027_o_m_n_a.jpg,neutral,s,17,1,297.16650269995444,297.46211331002417,297.684323299909,297.8472100099549,297.85180759988725,297.89238630994225,297.89770619990304,298.53068090989257,s,1,0.6171192999463528,617.1192999463528,297.89770619990304,298.53068090989257,298.5363735000137,299.6538449098822,EMOCONPILOT018,2021_Jan_04_1305,EmoCon_Pilot_120Hz,2020.2.4,119.97600483979348,
,,,,0,0,0,0,87,0,87,0,,,,,,,,,,,,,,,,,,,,,,,,,,,,,,,,,,,,,,,,,,,,,,,87,3.0,m,013_y_m_h_a.jpg,happy,d,17,1,299.65959289995953,299.95388971003706,300.19211909989826,300.34678470985966,300.3516646998469,300.3925564099569,300.39802700001746,301.16335581000897,d,1,0.7568795999977738,756.8795999977738,300.39802700001746,301.16335581000897,301.16949869995005,302.7538238099311,EMOCONPILOT018,2021_Jan_04_1305,EmoCon_Pilot_120Hz,2020.2.4,119.97600483979348,
,,,,0,0,0,0,88,0,88,0,,,,,,,,,,,,,,,,,,,,,,,,,,,,,,,,,,,,,,,,,,,,,,,88,5.0,m,027_o_m_s_a.jpg,sad,a,17,1,302.7577578998171,303.0538935099263,303.07543769991025,303.2139890099876,303.21739509981126,303.25513920993546,303.25901229982264,304.25842021000574,a,1,0.9839341999031603,983.9341999031603,303.25901229982264,304.25842021000574,304.27022699988447,305.29557680981236,EMOCONPILOT018,2021_Jan_04_1305,EmoCon_Pilot_120Hz,2020.2.4,119.97600483979348,
,,,,0,0,0,0,89,0,89,0,,,,,,,,,,,,,,,,,,,,,,,,,,,,,,,,,,,,,,,,,,,,,,,89,5.0,m,027_o_m_s_a.jpg,sad,a,3,1,305.2989301998168,305.5956146099139,305.615780999884,305.63818020992915,305.6390288998373,305.67363530993464,305.67326519987546,306.64946970986205,s,0,0.9615889000706375,961.5889000706375,305.67326519987546,306.64946970986205,306.65813769982196,308.61225550984966,EMOCONPILOT018,2021_Jan_04_1305,EmoCon_Pilot_120Hz,2020.2.4,119.97600483979348,
,,,,0,0,0,0,90,0,90,0,,,,,,,,,,,,,,,,,,,,,,,,,,,,,,,,,,,,,,,,,,,,,,,90,12.0,f,040_y_f_s_a.jpg,sad,a,3,1,308.6152695999481,308.91229890999386,308.9337597999256,308.9561777099967,308.95655300002545,308.9913870099932,308.99170299991965,309.67312320987696,s,0,0.6672712001018226,667.2712001018226,308.99170299991965,309.67312320987696,309.6798425000161,311.27902350984516,EMOCONPILOT018,2021_Jan_04_1305,EmoCon_Pilot_120Hz,2020.2.4,119.97600483979348,
,,,,0,0,0,0,91,0,91,0,,,,,,,,,,,,,,,,,,,,,,,,,,,,,,,,,,,,,,,,,,,,,,,91,3.0,m,013_y_m_n_a.jpg,neutral,s,17,1,311.2823673998937,311.57908170986923,311.8266820998397,311.9792157098651,311.98341049999,312.0210978099145,312.02322799991816,312.6192690098193,s,1,0.5877963998354971,587.7963998354971,312.02322799991816,312.6192690098193,312.62944109993987,314.27080821003767,EMOCONPILOT018,2021_Jan_04_1305,EmoCon_Pilot_120Hz,2020.2.4,119.97600483979348,
,,,,0,0,0,0,92,0,92,0,,,,,,,,,,,,,,,,,,,,,,,,,,,,,,,,,,,,,,,,,,,,,,,92,12.0,f,040_y_f_s_a.jpg,sad,a,17,1,314.2757145999931,314.5708217098378,314.5918303998187,314.72241580989214,314.7247213998344,314.76388410981747,314.76610250002705,315.53622700986455,a,1,0.7567091998644173,756.7091998644173,314.76610250002705,315.53622700986455,315.543554399861,317.39587470996196,EMOCONPILOT018,2021_Jan_04_1305,EmoCon_Pilot_120Hz,2020.2.4,119.97600483979348,
,,,,0,0,0,0,93,0,93,0,,,,,,,,,,,,,,,,,,,,,,,,,,,,,,,,,,,,,,,,,,,,,,,93,6.0,m,033_o_m_s_a.jpg,sad,a,3,1,317.40131719992496,317.6959752099589,317.70865769986995,317.73132580998356,317.7320719999261,317.76848021000626,317.77011809987016,318.7786883098539,a,1,1.0008010000456125,1000.8010000456125,317.77011809987016,318.7786883098539,318.78727269987576,320.52918401001955,EMOCONPILOT018,2021_Jan_04_1305,EmoCon_Pilot_120Hz,2020.2.4,119.97600483979348,
,,,,0,0,0,0,94,0,94,0,,,,,,,,,,,,,,,,,,,,,,,,,,,,,,,,,,,,,,,,,,,,,,,94,2.0,m,008_y_m_s_a.jpg,sad,a,17,1,320.53193519986235,320.8292316099629,321.06873749988154,321.2235002100002,321.22646529995836,321.2636698099319,321.266190599883,322.23595540984536,a,1,0.9606340997852385,960.6340997852385,321.266190599883,322.23595540984536,322.23833870003,324.2210669099819,EMOCONPILOT018,2021_Jan_04_1305,EmoCon_Pilot_120Hz,2020.2.4,119.97600483979348,
,,,,0,0,0,0,95,0,95,0,,,,,,,,,,,,,,,,,,,,,,,,,,,,,,,,,,,,,,,,,,,,,,,95,8.0,f,019_m_f_s_a.jpg,sad,a,3,1,324.22563839983195,324.5209690098651,324.75157939991914,324.77656971002,324.7769072998781,324.81386730996894,324.8135891999118,325.97287500989626,a,1,1.1492516999132931,1149.2516999132931,324.8135891999118,325.97287500989626,325.979996799957,327.8960865099449,EMOCONPILOT018,2021_Jan_04_1305,EmoCon_Pilot_120Hz,2020.2.4,119.97600483979348,
,,,,0,0,0,0,96,0,96,0,,,,,,,,,,,,,,,,,,,,,,,,,,,,,,,,,,,,,,,,,,,,,,,96,9.0,f,021_o_f_n_a.jpg,neutral,s,3,1,327.8990827000234,328.19602290997284,328.41635389998555,328.44291060990656,328.443207899807,328.4806150099263,328.48181959986687,329.1381482099183,s,1,0.6488341002259403,648.8341002259403,328.48181959986687,329.1381482099183,329.14123409986496,330.75437750983986,EMOCONPILOT018,2021_Jan_04_1305,EmoCon_Pilot_120Hz,2020.2.4,119.97600483979348,
,,,,0,0,0,0,97,0,97,0,,,,,,,,,,,,,,,,,,,,,,,,,,,,,,,,,,,,,,,,,,,,,,,97,11.0,f,030_o_f_h_a.jpg,happy,d,3,1,330.7561384998262,331.0543887099717,331.24031279981136,331.26759330988864,331.27054299996234,331.30911210984925,331.3124582997989,332.01871530981737,d,1,0.690568899968639,690.568899968639,331.3124582997989,332.01871530981737,332.0303360999096,333.0712256100029,EMOCONPILOT018,2021_Jan_04_1305,EmoCon_Pilot_120Hz,2020.2.4,119.97600483979348,
,,,,0,0,0,0,98,0,98,0,,,,,,,,,,,,,,,,,,,,,,,,,,,,,,,,,,,,,,,,,,,,,,,98,12.0,f,040_y_f_n_a.jpg,neutral,s,17,1,333.07428930001333,333.3712453098502,333.58876519999467,333.75490200999195,333.75900989980437,333.8001846099738,333.8042607998941,334.4460276098922,s,1,0.6306920999195427,630.6920999195427,333.8042607998941,334.4460276098922,334.45782050001435,335.5963340100367,EMOCONPILOT018,2021_Jan_04_1305,EmoCon_Pilot_120Hz,2020.2.4,119.97600483979348,
,,,,0,0,0,0,99,0,99,0,,,,,,,,,,,,,,,,,,,,,,,,,,,,,,,,,,,,,,,,,,,,,,,99,12.0,f,040_y_f_s_a.jpg,sad,a,3,1,335.60178539995104,335.8962561098393,335.91327119991183,335.93762331004257,335.9410053999163,335.98157630991193,335.9866579999216,336.7743624098599,s,0,0.7762390000279993,776.2390000279993,335.9866579999216,336.7743624098599,336.78285699989647,337.8879306098912,EMOCONPILOT018,2021_Jan_04_1305,EmoCon_Pilot_120Hz,2020.2.4,119.97600483979348,
,,,,0,0,0,0,100,0,100,0,,,,,,,,,,,,,,,,,,,,,,,,,,,,,,,,,,,,,,,,,,,,,,,100,4.0,m,016_y_m_n_a.jpg,neutral,s,17,1,337.89210810000077,338.18801660989413,338.4251641998999,338.5813759098761,338.5861056998838,338.62560610999356,338.6309958000202,339.11264311000707,s,1,0.46792560000903904,467.92560000903904,338.6309958000202,339.11264311000707,339.12276569986716,340.8714227100369,EMOCONPILOT018,2021_Jan_04_1305,EmoCon_Pilot_120Hz,2020.2.4,119.97600483979348,
,,,,0,0,0,0,101,0,101,0,,,,,,,,,,,,,,,,,,,,,,,,,,,,,,,,,,,,,,,,,,,,,,,101,11.0,f,030_o_f_s_a.jpg,sad,a,3,1,340.8771740999073,341.1714306100272,341.37274499982595,341.3990698099602,341.3995804998558,341.4343580099754,341.43463419983163,342.0934717100114,s,0,0.6482688998803496,648.2688998803496,341.43463419983163,342.0934717100114,342.1030252999626,343.2879620100372,EMOCONPILOT018,2021_Jan_04_1305,EmoCon_Pilot_120Hz,2020.2.4,119.97600483979348,
,,,,0,0,0,0,102,0,102,0,,,,,,,,,,,,,,,,,,,,,,,,,,,,,,,,,,,,,,,,,,,,,,,102,3.0,m,013_y_m_h_a.jpg,happy,d,3,1,343.290928900009,343.5879620098509,343.8209320998285,343.84664840986954,343.8501042998396,343.8902475099545,343.8954063998535,344.51605031001384,d,1,0.6117211999371648,611.7211999371648,343.8954063998535,344.51605031001384,344.52393929986283,345.6464474100154,EMOCONPILOT018,2021_Jan_04_1305,EmoCon_Pilot_120Hz,2020.2.4,119.97600483979348,
,,,,0,0,0,0,103,0,103,0,,,,,,,,,,,,,,,,,,,,,,,,,,,,,,,,,,,,,,,,,,,,,,,103,2.0,m,008_y_m_s_a.jpg,sad,a,3,1,345.65206799982116,345.94650201001207,346.17477879999205,346.20095930984246,346.201212399872,346.2358322098386,346.2361728998367,346.94875940997156,a,1,0.7026787998620421,702.6787998620421,346.2361728998367,346.94875940997156,346.95624789991416,348.09659620993773,EMOCONPILOT018,2021_Jan_04_1305,EmoCon_Pilot_120Hz,2020.2.4,119.97600483979348,
,,,,0,0,0,0,104,0,104,0,,,,,,,,,,,,,,,,,,,,,,,,,,,,,,,,,,,,,,,,,,,,,,,104,11.0,f,030_o_f_s_a.jpg,sad,a,17,1,348.1022267998196,348.39651970998386,348.6155646999832,348.77650640988725,348.7810851999093,348.82215680987576,348.8271296999883,349.8674858099781,a,1,1.0240383001510054,1024.0383001510054,348.8271296999883,349.8674858099781,349.8792396998033,351.13819570993076,EMOCONPILOT018,2021_Jan_04_1305,EmoCon_Pilot_120Hz,2020.2.4,119.97600483979348,
,,,,0,0,0,0,105,0,105,0,,,,,,,,,,,,,,,,,,,,,,,,,,,,,,,,,,,,,,,,,,,,,,,105,4.0,m,016_y_m_h_a.jpg,happy,d,3,1,351.14246879983693,351.4382203099318,351.4551098998636,351.4774769098964,351.4780935999006,351.51442960989664,351.51594439987093,352.57658880986276,d,1,1.0469827998895198,1046.9827998895198,351.51594439987093,352.57658880986276,352.5867288999725,354.2131558099296,EMOCONPILOT018,2021_Jan_04_1305,EmoCon_Pilot_120Hz,2020.2.4,119.97600483979348,
,,,,0,0,0,0,106,0,106,0,,,,,,,,,,,,,,,,,,,,,,,,,,,,,,,,,,,,,,,,,,,,,,,106,7.0,f,012_o_f_n_a.jpg,neutral,s,17,1,354.2158834999427,354.51329070995564,354.7291996998247,354.892385409819,354.8957402999513,354.9354384098202,354.9399233998265,355.73839650992306,s,1,0.7909061000682414,790.9061000682414,354.9399233998265,355.73839650992306,355.74692439986393,356.76335771000015,EMOCONPILOT018,2021_Jan_04_1305,EmoCon_Pilot_120Hz,2020.2.4,119.97600483979348,
,,,,0,0,0,0,107,0,107,0,,,,,,,,,,,,,,,,,,,,,,,,,,,,,,,,,,,,,,,,,,,,,,,107,11.0,f,030_o_f_h_a.jpg,happy,d,17,1,356.7664339998737,357.0634385099635,357.2564269998111,357.41438331003303,357.4193076000083,357.4602257098537,357.4653153999243,358.4956563100219,d,1,1.0179693000391126,1017.9693000391126,357.4653153999243,358.4956563100219,358.50702709984034,360.1467921099626,EMOCONPILOT018,2021_Jan_04_1305,EmoCon_Pilot_120Hz,2020.2.4,119.97600483979348,
,,,,0,0,0,0,108,0,108,0,,,,,,,,,,,,,,,,,,,,,,,,,,,,,,,,,,,,,,,,,,,,,,,108,1.0,m,004_o_m_s_a.jpg,sad,a,3,1,360.15104499994777,360.4468035098631,360.47038959991187,360.49293251000347,360.4935315998737,360.53130130996,360.5313484999351,361.436210109992,a,1,0.8955631998833269,895.5631998833269,360.5313484999351,361.436210109992,361.44249609997496,362.446773309866,EMOCONPILOT018,2021_Jan_04_1305,EmoCon_Pilot_120Hz,2020.2.4,119.97600483979348,
,,,,0,0,0,0,109,0,109,0,,,,,,,,,,,,,,,,,,,,,,,,,,,,,,,,,,,,,,,,,,,,,,,109,3.0,m,013_y_m_n_a.jpg,neutral,s,17,1,362.45092420000583,362.7467910099309,362.9924945998937,363.1518572099973,363.1560729998164,363.19665441000836,363.20078959991224,363.7109305098653,s,1,0.49823020002804697,498.23020002804697,363.20078959991224,363.7109305098653,363.72255289996974,364.94687101002785,EMOCONPILOT018,2021_Jan_04_1305,EmoCon_Pilot_120Hz,2020.2.4,119.97600483979348,
,,,,0,0,0,0,110,0,110,0,,,,,,,,,,,,,,,,,,,,,,,,,,,,,,,,,,,,,,,,,,,,,,,110,10.0,f,028_y_f_s_a.jpg,sad,a,3,1,364.9510077999439,365.24691590983423,365.26727399998344,365.29060950982387,365.29116809996776,365.3261494100094,365.3262105998583,366.39557591001505,s,0,1.0607197999488562,1060.7197999488562,365.3262105998583,366.39557591001505,366.4036326999776,367.438549409993,EMOCONPILOT018,2021_Jan_04_1305,EmoCon_Pilot_120Hz,2020.2.4,119.97600483979348,
,,,,0,0,0,0,111,0,111,0,,,,,,,,,,,,,,,,,,,,,,,,,,,,,,,,,,,,,,,,,,,,,,,111,11.0,f,030_o_f_h_a.jpg,happy,d,3,1,367.4426465998404,367.73866120995956,367.9319275999442,367.95790850990454,367.95874879998155,367.99416040992367,367.9955342998728,368.787597009819,d,1,0.7754725001286715,775.4725001286715,367.9955342998728,368.787597009819,368.7970312999096,369.8719913099427,EMOCONPILOT018,2021_Jan_04_1305,EmoCon_Pilot_120Hz,2020.2.4,119.97600483979348,
,,,,0,0,0,0,112,0,112,0,,,,,,,,,,,,,,,,,,,,,,,,,,,,,,,,,,,,,,,,,,,,,,,112,7.0,f,012_o_f_n_a.jpg,neutral,s,3,1,369.87597649986856,370.17192500983367,370.3875652998686,370.41390530988576,370.4147801999934,370.44867740981283,370.4501097998582,371.5701352098491,s,1,1.104945900151506,1104.945900151506,370.4501097998582,371.5701352098491,371.5806293999776,373.2554721100256,EMOCONPILOT018,2021_Jan_04_1305,EmoCon_Pilot_120Hz,2020.2.4,119.97600483979348,
,,,,0,0,0,0,113,0,113,0,,,,,,,,,,,,,,,,,,,,,,,,,,,,,,,,,,,,,,,,,,,,,,,113,2.0,m,008_y_m_s_a.jpg,sad,a,17,1,373.2611483000219,373.55548580982725,373.7856858000159,373.9449144100305,373.9498124998063,373.99068650989796,373.9956125000026,375.15580441001805,a,1,1.1512283999472857,1151.2283999472857,373.9956125000026,375.15580441001805,375.1603985999245,376.9471844098531,EMOCONPILOT018,2021_Jan_04_1305,EmoCon_Pilot_120Hz,2020.2.4,119.97600483979348,
,,,,0,0,0,0,114,0,114,0,,,,,,,,,,,,,,,,,,,,,,,,,,,,,,,,,,,,,,,,,,,,,,,114,11.0,f,030_o_f_h_a.jpg,happy,d,17,1,376.9529031999409,377.24718160987834,377.4447054998018,377.6043364099693,377.6082007000223,377.6491992100142,377.65420669992454,378.7642287098803,d,1,1.100859999889508,1100.859999889508,377.65420669992454,378.7642287098803,378.77599949995056,380.15547860986555,EMOCONPILOT018,2021_Jan_04_1305,EmoCon_Pilot_120Hz,2020.2.4,119.97600483979348,
,,,,0,0,0,0,115,0,115,0,,,,,,,,,,,,,,,,,,,,,,,,,,,,,,,,,,,,,,,,,,,,,,,115,3.0,m,013_y_m_h_a.jpg,happy,d,17,1,380.1594161998946,380.4554923099,380.6856970998924,380.837276209984,380.8407587998081,380.88191260993483,380.88569839997217,382.48319120998497,d,1,1.5812639999203384,1581.2639999203384,380.88569839997217,382.48319120998497,382.4914420999121,384.1972729099449,EMOCONPILOT018,2021_Jan_04_1305,EmoCon_Pilot_120Hz,2020.2.4,119.97600483979348,
,,,,0,0,0,0,116,0,116,0,,,,,,,,,,,,,,,,,,,,,,,,,,,,,,,,,,,,,,,,,,,,,,,116,2.0,m,008_y_m_s_a.jpg,sad,a,17,1,384.2005399998743,384.4972678098362,384.7315167998895,384.89925320995974,384.90401469985954,384.9448106099386,384.94984549982473,386.2033762099687,a,1,1.2451929999515414,1245.1929999515414,384.94984549982473,386.2033762099687,386.2161195999943,387.99723460981625,EMOCONPILOT018,2021_Jan_04_1305,EmoCon_Pilot_120Hz,2020.2.4,119.97600483979348,
,,,,0,0,0,0,117,0,117,0,,,,,,,,,,,,,,,,,,,,,,,,,,,,,,,,,,,,,,,,,,,,,,,117,3.0,m,013_y_m_n_a.jpg,neutral,s,17,1,388.0000760999974,388.29739930983635,388.53437989996746,388.69763730992565,388.70172929996625,388.7407824098133,388.74595459993,389.381624509953,s,1,0.6249875000212342,624.9875000212342,388.74595459993,389.381624509953,389.39003909984604,390.42241900986994,EMOCONPILOT018,2021_Jan_04_1305,EmoCon_Pilot_120Hz,2020.2.4,119.97600483979348,
,,,,0,0,0,0,118,0,118,0,,,,,,,,,,,,,,,,,,,,,,,,,,,,,,,,,,,,,,,,,,,,,,,118,6.0,m,033_o_m_n_a.jpg,neutral,s,17,1,390.42773889983073,390.72249661004173,390.9215946998447,391.08243480990643,391.0872481998522,391.12778560994195,391.1318882999476,392.79050480984154,a,0,1.6472823000513017,1647.2823000513017,391.1318882999476,392.79050480984154,392.7974103000015,393.83091730987655,EMOCONPILOT018,2021_Jan_04_1305,EmoCon_Pilot_120Hz,2020.2.4,119.97600483979348,
,,,,0,0,0,0,119,0,119,0,,,,,,,,,,,,,,,,,,,,,,,,,,,,,,,,,,,,,,,,,,,,,,,119,6.0,m,033_o_m_n_a.jpg,neutral,s,17,1,393.83646099991165,394.1308359100018,394.3264811998233,394.4857510099188,394.4905574999284,394.53184661003763,394.53711409983225,395.202424409939,s,1,0.649823599960655,649.823599960655,394.53711409983225,395.202424409939,395.21002999995835,396.44756100992674,EMOCONPILOT018,2021_Jan_04_1305,EmoCon_Pilot_120Hz,2020.2.4,119.97600483979348,
,,,,1,0,1,0,0,0,0,0,,,,,,,,,,,,,,,,,,,,,,,,,,,,,,,,,,,,,,,,396.54010089999065,399.48136081001724,s,2.9269630999770015,2926.9630999770015,396.54010089999065,399.48136081001724,0,1.0,m,004_o_m_s_a.jpg,sad,a,17,2,399.487081799889,399.7809750099201,399.8071490000002,399.9409310099669,399.94531959993765,399.9854712098837,399.9857578999363,401.09129510996866,d,0,1.0970946000888944,1097.0946000888944,399.9857578999363,401.09129510996866,401.09943619999103,402.63107660985554,EMOCONPILOT018,2021_Jan_04_1305,EmoCon_Pilot_120Hz,2020.2.4,119.97600483979348,
,,,,1,0,1,0,1,0,1,0,,,,,,,,,,,,,,,,,,,,,,,,,,,,,,,,,,,,,,,,,,,,,,,1,9.0,f,021_o_f_n_a.jpg,neutral,s,17,2,402.63635579985566,402.93108090981843,403.152258799877,403.31223080996426,403.3154271999374,403.3540778098628,403.35714049986564,403.92435271004217,s,1,0.5580010998528451,558.0010998528451,403.35714049986564,403.92435271004217,403.93610689998604,405.68949340996335,EMOCONPILOT018,2021_Jan_04_1305,EmoCon_Pilot_120Hz,2020.2.4,119.97600483979348,
,,,,1,0,1,0,2,0,2,0,,,,,,,,,,,,,,,,,,,,,,,,,,,,,,,,,,,,,,,,,,,,,,,2,11.0,f,030_o_f_s_a.jpg,sad,a,17,2,405.6952043999918,405.98937940984035,406.1854697999079,406.3482444099151,406.3520408999175,406.3914257098455,406.39545809989795,407.2336609099526,s,0,0.8235133998095989,823.5133998095989,406.39545809989795,407.2336609099526,407.24509799992666,408.89785241000357,EMOCONPILOT018,2021_Jan_04_1305,EmoCon_Pilot_120Hz,2020.2.4,119.97600483979348,
,,,,1,0,1,0,3,0,3,0,,,,,,,,,,,,,,,,,,,,,,,,,,,,,,,,,,,,,,,,,,,,,,,3,10.0,f,028_y_f_s_a.jpg,sad,a,17,2,408.9032179999631,409.19781710989776,409.2150781999808,409.34947470985355,409.35247949999757,409.3906755099539,409.3942222998012,410.0453146099113,a,1,0.6406098001170903,640.6098001170903,409.3942222998012,410.0453146099113,410.0498494999483,411.3229681098834,EMOCONPILOT018,2021_Jan_04_1305,EmoCon_Pilot_120Hz,2020.2.4,119.97600483979348,
,,,,1,0,1,0,4,0,4,0,,,,,,,,,,,,,,,,,,,,,,,,,,,,,,,,,,,,,,,,,,,,,,,4,6.0,m,033_o_m_n_a.jpg,neutral,s,17,2,411.3285856998991,411.62295250981117,411.82680689985864,411.9885116099846,411.9932686998509,412.0336378099397,412.0390088998247,412.5575268100016,s,1,0.508060900028795,508.060900028795,412.0390088998247,412.5575268100016,412.56827960000373,414.53959851004186,EMOCONPILOT018,2021_Jan_04_1305,EmoCon_Pilot_120Hz,2020.2.4,119.97600483979348,
,,,,1,0,1,0,5,0,5,0,,,,,,,,,,,,,,,,,,,,,,,,,,,,,,,,,,,,,,,,,,,,,,,5,1.0,m,004_o_m_n_a.jpg,neutral,s,17,2,414.5451075998135,414.83960381001236,415.04309399984777,415.20390960983934,415.2088132998906,415.24957630983556,415.2539514999371,415.8893953099847,s,1,0.6208079000934958,620.8079000934958,415.2539514999371,415.8893953099847,415.89329469995573,417.5896458098665,EMOCONPILOT018,2021_Jan_04_1305,EmoCon_Pilot_120Hz,2020.2.4,119.97600483979348,
,,,,1,0,1,0,6,0,6,0,,,,,,,,,,,,,,,,,,,,,,,,,,,,,,,,,,,,,,,,,,,,,,,6,12.0,f,040_y_f_s_a.jpg,sad,a,17,2,417.5927391999867,417.88964970982636,417.9115312998183,418.04964970997537,418.05297249997966,418.09200920993464,418.0954121998511,419.0336239099503,a,1,0.9235834002029151,923.5834002029151,418.0954121998511,419.0336239099503,419.04403999983333,420.46477431003007,EMOCONPILOT018,2021_Jan_04_1305,EmoCon_Pilot_120Hz,2020.2.4,119.97600483979348,
,,,,1,0,1,0,7,0,7,0,,,,,,,,,,,,,,,,,,,,,,,,,,,,,,,,,,,,,,,,,,,,,,,7,9.0,f,021_o_f_n_a.jpg,neutral,s,2,2,420.4707211998757,420.76483240993696,420.9749226998538,420.99242280996407,420.9926150999963,421.02705550999383,421.0278727998957,421.89012350994165,s,1,0.847226400161162,847.226400161162,421.0278727998957,421.89012350994165,421.89945799997076,423.056442209892,EMOCONPILOT018,2021_Jan_04_1305,EmoCon_Pilot_120Hz,2020.2.4,119.97600483979348,
,,,,1,0,1,0,8,0,8,0,,,,,,,,,,,,,,,,,,,,,,,,,,,,,,,,,,,,,,,,,,,,,,,8,9.0,f,021_o_f_s_a.jpg,sad,a,2,2,423.0618557999842,423.35645210989753,423.36892469995655,423.3843736098148,423.38438259996474,423.4197526098229,423.4214006999973,424.5577327098232,a,1,1.1255952001083642,1125.5952001083642,423.4214006999973,424.5577327098232,424.5613235998899,425.5898228098173,EMOCONPILOT018,2021_Jan_04_1305,EmoCon_Pilot_120Hz,2020.2.4,119.97600483979348,
,,,,1,0,1,0,9,0,9,0,,,,,,,,,,,,,,,,,,,,,,,,,,,,,,,,,,,,,,,,,,,,,,,9,4.0,m,016_y_m_s_a.jpg,sad,a,17,2,425.5953108998947,425.88988280985507,425.913957899902,426.04978091004307,426.052966499934,426.09111860990527,426.09445199999027,427.518758709915,a,1,1.4124646000564098,1412.4646000564098,426.09445199999027,427.518758709915,427.52926719980314,428.6648327099625,EMOCONPILOT018,2021_Jan_04_1305,EmoCon_Pilot_120Hz,2020.2.4,119.97600483979348,
,,,,1,0,1,0,10,0,10,0,,,,,,,,,,,,,,,,,,,,,,,,,,,,,,,,,,,,,,,,,,,,,,,10,7.0,f,012_o_f_n_a.jpg,neutral,s,17,2,428.6691132998094,428.9649609098211,429.1896615999285,429.3522732098587,429.3556288999971,429.39658751003446,429.4007790000178,430.0527010100428,s,1,0.6423880998045206,642.3880998045206,429.4007790000178,430.0527010100428,430.0631967999507,431.73166990992615,EMOCONPILOT018,2021_Jan_04_1305,EmoCon_Pilot_120Hz,2020.2.4,119.97600483979348,
,,,,1,0,1,0,11,0,11,0,,,,,,,,,,,,,,,,,,,,,,,,,,,,,,,,,,,,,,,,,,,,,,,11,2.0,m,008_y_m_n_a.jpg,neutral,s,2,2,431.7349431999028,432.03164210999387,432.2693125999067,432.28617320992055,432.28823309997097,432.325395409856,432.32841049996205,433.02826030985455,s,1,0.6905247999820858,690.5247999820858,432.32841049996205,433.02826030985455,433.0368784999009,434.8234586100094,EMOCONPILOT018,2021_Jan_04_1305,EmoCon_Pilot_120Hz,2020.2.4,119.97600483979348,
,,,,1,0,1,0,12,0,12,0,,,,,,,,,,,,,,,,,,,,,,,,,,,,,,,,,,,,,,,,,,,,,,,12,1.0,m,004_o_m_s_a.jpg,sad,a,2,2,434.8288884998765,435.1234784099739,435.13668289990164,435.1516322099138,435.15222139982507,435.19130421001466,435.1925572999753,435.91475600996057,a,1,0.7064628999214619,706.4628999214619,435.1925572999753,435.91475600996057,435.9252758999355,437.190044809971,EMOCONPILOT018,2021_Jan_04_1305,EmoCon_Pilot_120Hz,2020.2.4,119.97600483979348,
,,,,1,0,1,0,13,0,13,0,,,,,,,,,,,,,,,,,,,,,,,,,,,,,,,,,,,,,,,,,,,,,,,13,7.0,f,012_o_f_h_a.jpg,happy,d,17,2,437.1942039998248,437.49004521002064,437.5121620998252,437.6501470100135,437.6517793999519,437.6914262100123,437.6932403999381,438.2929853099864,d,1,0.5897379999514669,589.7379999514669,437.6932403999381,438.2929853099864,438.301897399826,440.1567921099719,EMOCONPILOT018,2021_Jan_04_1305,EmoCon_Pilot_120Hz,2020.2.4,119.97600483979348,
,,,,1,0,1,0,14,0,14,0,,,,,,,,,,,,,,,,,,,,,,,,,,,,,,,,,,,,,,,,,,,,,,,14,3.0,m,013_y_m_h_a.jpg,happy,d,2,2,440.15982419997454,440.4567828098312,440.6966021999251,440.7136565099005,440.7142825999763,440.7503252098337,440.7499779998325,441.7629765098915,d,1,1.0052068000659347,1005.2068000659347,440.7499779998325,441.7629765098915,441.77325959992595,443.6819495099131,EMOCONPILOT018,2021_Jan_04_1305,EmoCon_Pilot_120Hz,2020.2.4,119.97600483979348,
,,,,1,0,1,0,15,0,15,0,,,,,,,,,,,,,,,,,,,,,,,,,,,,,,,,,,,,,,,,,,,,,,,15,11.0,f,030_o_f_n_a.jpg,neutral,s,17,2,443.6880693999119,443.98198740989903,444.1787820998579,444.3378788099159,444.3427150999196,444.3826291099191,444.3875916998368,444.8762469099835,s,1,0.47167990007437766,471.67990007437766,444.3875916998368,444.8762469099835,444.88401979999617,446.3402436099947,EMOCONPILOT018,2021_Jan_04_1305,EmoCon_Pilot_120Hz,2020.2.4,119.97600483979348,
,,,,1,0,1,0,16,0,16,0,,,,,,,,,,,,,,,,,,,,,,,,,,,,,,,,,,,,,,,,,,,,,,,16,3.0,m,013_y_m_n_a.jpg,neutral,s,17,2,446.34451849991456,446.6402517099865,446.8679124999326,447.0307933098171,447.0349832000211,447.0753919099458,447.0804474998731,447.86552270981485,s,1,0.7705564999487251,770.5564999487251,447.0804474998731,447.86552270981485,447.8704117999878,449.83198590986433,EMOCONPILOT018,2021_Jan_04_1305,EmoCon_Pilot_120Hz,2020.2.4,119.97600483979348,
,,,,1,0,1,0,17,0,17,0,,,,,,,,,,,,,,,,,,,,,,,,,,,,,,,,,,,,,,,,,,,,,,,17,9.0,f,021_o_f_h_a.jpg,happy,d,2,2,449.8360756000038,450.13207400999966,450.33353869989514,450.3507568099536,450.35125469998457,450.3909581100103,450.396185599966,451.0502429098357,d,1,0.638927899999544,638.927899999544,450.396185599966,451.0502429098357,451.0605876999907,452.2320695099421,EMOCONPILOT018,2021_Jan_04_1305,EmoCon_Pilot_120Hz,2020.2.4,119.97600483979348,
,,,,1,0,1,0,18,0,18,0,,,,,,,,,,,,,,,,,,,,,,,,,,,,,,,,,,,,,,,,,,,,,,,18,3.0,m,013_y_m_s_a.jpg,sad,a,2,2,452.2376074998174,452.53216060986745,452.5582399999257,452.57376510989855,452.57428819988854,452.6083849099465,452.6083074999042,453.49904911001215,s,0,0.8827680998947471,882.7680998947471,452.6083074999042,453.49904911001215,453.5072214999236,455.2654284098186,EMOCONPILOT018,2021_Jan_04_1305,EmoCon_Pilot_120Hz,2020.2.4,119.97600483979348,
,,,,1,0,1,0,19,0,19,0,,,,,,,,,,,,,,,,,,,,,,,,,,,,,,,,,,,,,,,,,,,,,,,19,10.0,f,028_y_f_h_a.jpg,happy,d,2,2,455.268518100027,455.5654084099457,455.5856106998399,455.60100720999765,455.6014264000114,455.63565730992707,455.63616149988957,456.3128512100317,d,1,0.6629536000546068,662.9536000546068,455.63616149988957,456.3128512100317,456.3183389999904,458.26556620993654,EMOCONPILOT018,2021_Jan_04_1305,EmoCon_Pilot_120Hz,2020.2.4,119.97600483979348,
,,,,1,0,1,0,20,0,20,0,,,,,,,,,,,,,,,,,,,,,,,,,,,,,,,,,,,,,,,,,,,,,,,20,4.0,m,016_y_m_h_a.jpg,happy,d,2,2,458.2700374999549,458.56547910990196,458.58674039994366,458.601927909907,458.6034762999043,458.6393081100192,458.63968459982425,459.33310560989196,d,1,0.6832526000216603,683.2526000216603,458.63968459982425,459.33310560989196,459.3405238999985,460.4238682099618,EMOCONPILOT018,2021_Jan_04_1305,EmoCon_Pilot_120Hz,2020.2.4,119.97600483979348,
,,,,1,0,1,0,21,0,21,0,,,,,,,,,,,,,,,,,,,,,,,,,,,,,,,,,,,,,,,,,,,,,,,21,6.0,m,033_o_m_h_a.jpg,happy,d,2,2,460.42864489997737,460.72397560989486,460.746327099856,460.7611671098508,460.7623973998707,460.80013720984573,460.80148539994843,461.45921110981146,d,1,0.6496013000141829,649.6013000141829,460.80148539994843,461.45921110981146,461.4656550998334,462.93230211003686,EMOCONPILOT018,2021_Jan_04_1305,EmoCon_Pilot_120Hz,2020.2.4,119.97600483979348,
,,,,1,0,1,0,22,0,22,0,,,,,,,,,,,,,,,,,,,,,,,,,,,,,,,,,,,,,,,,,,,,,,,22,5.0,m,027_o_m_s_a.jpg,sad,a,2,2,462.9360673998017,463.2322481099051,463.25456039980054,463.26935551003555,463.27023869985715,463.30846580993386,463.30971509986557,464.13261780994947,s,0,0.8132726000621915,813.2726000621915,463.30971509986557,464.13261780994947,464.13740270002745,465.5406578098424,EMOCONPILOT018,2021_Jan_04_1305,EmoCon_Pilot_120Hz,2020.2.4,119.97600483979348,
,,,,1,0,1,0,23,0,23,0,,,,,,,,,,,,,,,,,,,,,,,,,,,,,,,,,,,,,,,,,,,,,,,23,10.0,f,028_y_f_n_a.jpg,neutral,s,2,2,465.54383659991436,465.840671209991,466.05411119991913,466.0707430098206,466.0714294000063,466.1085411099717,466.1086440999061,467.2463412099984,s,1,1.1261652000248432,1126.1652000248432,466.1086440999061,467.2463412099984,467.24980969983153,468.94079240984286,EMOCONPILOT018,2021_Jan_04_1305,EmoCon_Pilot_120Hz,2020.2.4,119.97600483979348,
,,,,1,0,1,0,24,0,24,0,,,,,,,,,,,,,,,,,,,,,,,,,,,,,,,,,,,,,,,,,,,,,,,24,9.0,f,021_o_f_n_a.jpg,neutral,s,2,2,468.94398640003055,469.2408486098517,469.44381889980286,469.46145610990936,469.46157329995185,469.4968997099437,469.49650309979916,470.28529640999625,s,1,0.7784216997679323,778.4216997679323,469.49650309979916,470.28529640999625,470.2917396998964,471.29069420988674,EMOCONPILOT018,2021_Jan_04_1305,EmoCon_Pilot_120Hz,2020.2.4,119.97600483979348,
,,,,1,0,1,0,25,0,25,0,,,,,,,,,,,,,,,,,,,,,,,,,,,,,,,,,,,,,,,,,,,,,,,25,8.0,f,019_m_f_h_a.jpg,happy,d,17,2,471.29514870001003,471.590733810002,471.61527789989486,471.7507289099973,471.7537804997992,471.79197900989095,471.7954958998598,472.3131253099069,d,1,0.5034559001214802,503.4559001214802,471.7954958998598,472.3131253099069,472.32201599981636,473.50752700995656,EMOCONPILOT018,2021_Jan_04_1305,EmoCon_Pilot_120Hz,2020.2.4,119.97600483979348,
,,,,1,0,1,0,26,0,26,0,,,,,,,,,,,,,,,,,,,,,,,,,,,,,,,,,,,,,,,,,,,,,,,26,4.0,m,016_y_m_n_a.jpg,neutral,s,17,2,473.5126702999696,473.8075206099544,474.0524960998446,474.2194421099499,474.22425039997324,474.2651497099083,474.27008819999173,476.1092485100031,None,0,,,474.27008819999173,476.1092485100031,476.11463209986687,477.37426900994035,EMOCONPILOT018,2021_Jan_04_1305,EmoCon_Pilot_120Hz,2020.2.4,119.97600483979348,
,,,,1,0,1,0,27,0,27,0,,,,,,,,,,,,,,,,,,,,,,,,,,,,,,,,,,,,,,,,,,,,,,,27,1.0,m,004_o_m_h_a.jpg,happy,d,2,2,477.37910579983145,477.6743107099552,477.8822435999755,477.8987211099826,477.89925639983267,477.93377400995234,477.93371140002273,478.74461580989885,d,1,0.7973363001365215,797.3363001365215,477.93371140002273,478.74461580989885,478.7561904999893,480.44100850997495,EMOCONPILOT018,2021_Jan_04_1305,EmoCon_Pilot_120Hz,2020.2.4,119.97600483979348,
,,,,1,0,1,0,28,0,28,0,,,,,,,,,,,,,,,,,,,,,,,,,,,,,,,,,,,,,,,,,,,,,,,28,10.0,f,028_y_f_s_a.jpg,sad,a,17,2,480.44639279996045,480.7410134099424,480.76301899994723,480.9010087099392,480.9042212998029,480.94353060997094,480.94839039980434,481.5289566099178,a,1,0.5670100999996066,567.0100999996066,480.94839039980434,481.5289566099178,481.5375775999855,483.25773331001403,EMOCONPILOT018,2021_Jan_04_1305,EmoCon_Pilot_120Hz,2020.2.4,119.97600483979348,
,,,,1,0,1,0,29,0,29,0,,,,,,,,,,,,,,,,,,,,,,,,,,,,,,,,,,,,,,,,,,,,,,,29,5.0,m,027_o_m_h_a.jpg,happy,d,2,2,483.26304839993827,483.55782340993176,483.77331879991107,483.78967430992054,483.79003899986856,483.8266034099739,483.83062589983456,484.51581560997295,d,1,0.6765572000294924,676.5572000294924,483.83062589983456,484.51581560997295,484.5275260999333,485.91622820999476,EMOCONPILOT018,2021_Jan_04_1305,EmoCon_Pilot_120Hz,2020.2.4,119.97600483979348,
,,,,1,0,1,0,30,0,30,0,,,,,,,,,,,,,,,,,,,,,,,,,,,,,,,,,,,,,,,,,,,,,,,30,10.0,f,028_y_f_h_a.jpg,happy,d,17,2,485.9218079999555,486.21611060984435,486.22933249990456,486.36789260981607,486.3716423998121,486.4122025099583,486.41762709990144,487.2023825099692,d,1,0.7774022000376135,777.4022000376135,486.41762709990144,487.2023825099692,487.21424689982086,488.99953110995705,EMOCONPILOT018,2021_Jan_04_1305,EmoCon_Pilot_120Hz,2020.2.4,119.97600483979348,
,,,,1,0,1,0,31,0,31,0,,,,,,,,,,,,,,,,,,,,,,,,,,,,,,,,,,,,,,,,,,,,,,,31,5.0,m,027_o_m_h_a.jpg,happy,d,2,2,489.0056851999834,489.29951930991376,489.522532499861,489.53915401003326,489.53970870003104,489.57582090995277,489.5757881999016,490.18561710990036,d,1,0.595240900060162,595.240900060162,489.5757881999016,490.18561710990036,490.19136389996856,491.39950770991857,EMOCONPILOT018,2021_Jan_04_1305,EmoCon_Pilot_120Hz,2020.2.4,119.97600483979348,
,,,,1,0,1,0,32,0,32,0,,,,,,,,,,,,,,,,,,,,,,,,,,,,,,,,,,,,,,,,,,,,,,,32,9.0,f,021_o_f_n_a.jpg,neutral,s,2,2,491.40266779996455,491.69962640982124,491.91888289991766,491.93629010990264,491.9406643998809,491.9810191098601,491.9858965999447,492.72110890983606,s,1,0.7211390000302345,721.1390000302345,491.9858965999447,492.72110890983606,492.7326272998471,494.474544010032,EMOCONPILOT018,2021_Jan_04_1305,EmoCon_Pilot_120Hz,2020.2.4,119.97600483979348,
,,,,1,0,1,0,33,0,33,0,,,,,,,,,,,,,,,,,,,,,,,,,,,,,,,,,,,,,,,,,,,,,,,33,3.0,m,013_y_m_s_a.jpg,sad,a,17,2,494.477391500026,494.7746210099664,494.7971100998111,494.93457601000557,494.93794719991274,494.9758324098308,494.97932629985735,495.51330080991613,a,1,0.5196773998904973,519.6773998904973,494.97932629985735,495.51330080991613,495.5221247000154,497.0330694100354,EMOCONPILOT018,2021_Jan_04_1305,EmoCon_Pilot_120Hz,2020.2.4,119.97600483979348,
,,,,1,0,1,0,34,0,34,0,,,,,,,,,,,,,,,,,,,,,,,,,,,,,,,,,,,,,,,,,,,,,,,34,1.0,m,004_o_m_n_a.jpg,neutral,s,2,2,497.0360658999998,497.33296150984245,497.54574219998904,497.56264090994375,497.5635651999619,497.6008453098126,497.6005855000112,499.1002541099675,None,0,,,497.6005855000112,499.1002541099675,499.1017465000041,500.0998037100304,EMOCONPILOT018,2021_Jan_04_1305,EmoCon_Pilot_120Hz,2020.2.4,119.97600483979348,
,,,,1,0,1,0,35,0,35,0,,,,,,,,,,,,,,,,,,,,,,,,,,,,,,,,,,,,,,,,,,,,,,,35,12.0,f,040_y_f_h_a.jpg,happy,d,2,2,500.10388569999486,500.3997154099867,500.4209098999854,500.4361419099383,500.4369296999648,500.4717712098733,500.47155779995956,501.44116680989976,s,0,0.9554992001503706,955.4992001503706,500.47155779995956,501.44116680989976,501.4493873999454,503.0165491098538,EMOCONPILOT018,2021_Jan_04_1305,EmoCon_Pilot_120Hz,2020.2.4,119.97600483979348,
,,,,1,0,1,0,36,0,36,0,,,,,,,,,,,,,,,,,,,,,,,,,,,,,,,,,,,,,,,,,,,,,,,36,10.0,f,028_y_f_n_a.jpg,neutral,s,17,2,503.0204781999346,503.316468809871,503.5188986998983,503.67523010997104,503.6800273999106,503.72024090997877,503.72442679991946,504.898317409819,s,1,1.1587052999529988,1158.7052999529988,503.72442679991946,504.898317409819,504.9087584000081,506.09990660999904,EMOCONPILOT018,2021_Jan_04_1305,EmoCon_Pilot_120Hz,2020.2.4,119.97600483979348,
,,,,1,0,1,0,37,0,37,0,,,,,,,,,,,,,,,,,,,,,,,,,,,,,,,,,,,,,,,,,,,,,,,37,11.0,f,030_o_f_n_a.jpg,neutral,s,17,2,506.10430659982376,506.3999221098144,506.5981653998606,506.7670020099264,506.77175750001334,506.8128346099053,506.81721000000834,507.47353710993195,s,1,0.6418969999067485,641.8969999067485,506.81721000000834,507.47353710993195,507.483070399845,509.09158700997943,EMOCONPILOT018,2021_Jan_04_1305,EmoCon_Pilot_120Hz,2020.2.4,119.97600483979348,
,,,,1,0,1,0,38,0,38,0,,,,,,,,,,,,,,,,,,,,,,,,,,,,,,,,,,,,,,,,,,,,,,,38,1.0,m,004_o_m_h_a.jpg,happy,d,2,2,509.09629439981654,509.39168490995655,509.59275329997763,509.60918450998145,509.6092898999341,509.64339770996014,509.6428660999518,510.5931401098147,d,1,0.9362184000201523,936.2184000201523,509.6428660999518,510.5931401098147,510.5956476998981,512.0166757098865,EMOCONPILOT018,2021_Jan_04_1305,EmoCon_Pilot_120Hz,2020.2.4,119.97600483979348,
,,,,1,0,1,0,39,0,39,0,,,,,,,,,,,,,,,,,,,,,,,,,,,,,,,,,,,,,,,,,,,,,,,39,6.0,m,033_o_m_h_a.jpg,happy,d,2,2,512.022064599907,512.3167696098332,512.3416538999882,512.3570800099056,512.3577056999784,512.3928669098765,512.3928898000158,513.210930409981,s,0,0.810041300021112,810.041300021112,512.3928898000158,513.210930409981,513.218336599879,514.4414375099819,EMOCONPILOT018,2021_Jan_04_1305,EmoCon_Pilot_120Hz,2020.2.4,119.97600483979348,
,,,,1,0,1,0,40,0,40,0,,,,,,,,,,,,,,,,,,,,,,,,,,,,,,,,,,,,,,,,,,,,,,,40,7.0,f,012_o_f_h_a.jpg,happy,d,17,2,514.4413848998956,514.7414154099766,514.751848799875,514.8848584100139,514.8854351998307,514.9261743099429,514.9256576998159,515.9440899099224,d,1,1.005143400048837,1005.1434000488371,514.9256576998159,515.9440899099224,515.9475645998027,517.9167619099841,EMOCONPILOT018,2021_Jan_04_1305,EmoCon_Pilot_120Hz,2020.2.4,119.97600483979348,
,,,,1,0,1,0,41,0,41,0,,,,,,,,,,,,,,,,,,,,,,,,,,,,,,,,,,,,,,,,,,,,,,,41,6.0,m,033_o_m_n_a.jpg,neutral,s,17,2,517.917351000011,518.2163979098201,518.4180638999678,518.5698561099358,518.5701526999474,518.6065880098846,518.6066560000181,519.1919366099406,s,1,0.5721780001185834,572.1780001185834,518.6066560000181,519.1919366099406,519.194198000012,520.7914784100373,EMOCONPILOT018,2021_Jan_04_1305,EmoCon_Pilot_120Hz,2020.2.4,119.97600483979348,
,,,,1,0,1,0,42,0,42,0,,,,,,,,,,,,,,,,,,,,,,,,,,,,,,,,,,,,,,,,,,,,,,,42,7.0,f,012_o_f_h_a.jpg,happy,d,2,2,520.7919366999995,521.0915039099287,521.1017812998034,521.117662510043,521.1186153998133,521.1547346100211,521.1546302000061,522.3591361098457,d,1,1.1922887999098748,1192.2887999098748,521.1546302000061,522.3591361098457,522.3618320999667,523.8415053099394,EMOCONPILOT018,2021_Jan_04_1305,EmoCon_Pilot_120Hz,2020.2.4,119.97600483979348,
,,,,1,0,1,0,43,0,43,0,,,,,,,,,,,,,,,,,,,,,,,,,,,,,,,,,,,,,,,,,,,,,,,43,5.0,m,027_o_m_h_a.jpg,happy,d,2,2,523.8417999998201,524.1416443098802,524.3468485998455,524.3635151098948,524.3638102998957,524.4014198099263,524.4009799999185,525.8171345099341,d,1,1.4019575999118388,1401.9575999118388,524.4009799999185,525.8171345099341,525.8204041998833,527.1916017098353,EMOCONPILOT018,2021_Jan_04_1305,EmoCon_Pilot_120Hz,2020.2.4,119.97600483979348,
,,,,1,0,1,0,44,0,44,0,,,,,,,,,,,,,,,,,,,,,,,,,,,,,,,,,,,,,,,,,,,,,,,44,10.0,f,028_y_f_s_a.jpg,sad,a,17,2,527.1917638999876,527.4916669099126,527.5013311000075,527.6351123099681,527.6364674998913,527.6763366098982,527.6761699998751,529.1757280099206,None,0,,,527.6761699998751,529.1757280099206,529.1755578999873,530.291700009862,EMOCONPILOT018,2021_Jan_04_1305,EmoCon_Pilot_120Hz,2020.2.4,119.97600483979348,
,,,,1,0,1,0,45,0,45,0,,,,,,,,,,,,,,,,,,,,,,,,,,,,,,,,,,,,,,,,,,,,,,,45,7.0,f,012_o_f_n_a.jpg,neutral,s,17,2,530.2916619000025,530.5917087098584,530.8091346998699,530.9718338098843,530.9722247999161,531.0098748099059,531.0091521998402,532.2339109099936,s,1,1.2176930999848992,1217.6930999848992,531.0091521998402,532.2339109099936,532.2368768998422,533.4505564099178,EMOCONPILOT018,2021_Jan_04_1305,EmoCon_Pilot_120Hz,2020.2.4,119.97600483979348,
,,,,1,0,1,0,46,0,46,0,,,,,,,,,,,,,,,,,,,,,,,,,,,,,,,,,,,,,,,,,,,,,,,46,1.0,m,004_o_m_n_a.jpg,neutral,s,17,2,533.4505983998533,533.7501665099059,533.9461632999592,534.0997958098538,534.0999211999588,534.1361643098295,534.1361981998198,534.9264482098166,s,1,0.7789461000356823,778.9461000356823,534.1361981998198,534.9264482098166,534.9351162000094,536.2505052100402,EMOCONPILOT018,2021_Jan_04_1305,EmoCon_Pilot_120Hz,2020.2.4,119.97600483979348,
,,,,1,0,1,0,47,0,47,0,,,,,,,,,,,,,,,,,,,,,,,,,,,,,,,,,,,,,,,,,,,,,,,47,9.0,f,021_o_f_h_a.jpg,happy,d,2,2,536.2536282998044,536.5504035098944,536.7583172998857,536.7755223099608,536.7759838998318,536.8099249099847,536.8099695998244,537.4344885099214,d,1,0.6092002000659704,609.2002000659704,536.8099695998244,537.4344885099214,537.4394270998891,539.1588853098452,EMOCONPILOT018,2021_Jan_04_1305,EmoCon_Pilot_120Hz,2020.2.4,119.97600483979348,
,,,,1,0,1,0,48,0,48,0,,,,,,,,,,,,,,,,,,,,,,,,,,,,,,,,,,,,,,,,,,,,,,,48,10.0,f,028_y_f_n_a.jpg,neutral,s,2,2,539.1629323998932,539.4589134099893,539.6681764998939,539.6850478098728,539.6856005999725,539.7215446100105,539.7221644998062,540.3266360099893,s,1,0.5928922998718917,592.8922998718917,539.7221644998062,540.3266360099893,540.3340090999845,541.6339791099541,EMOCONPILOT018,2021_Jan_04_1305,EmoCon_Pilot_120Hz,2020.2.4,119.97600483979348,
,,,,1,0,1,0,49,0,49,0,,,,,,,,,,,,,,,,,,,,,,,,,,,,,,,,,,,,,,,,,,,,,,,49,7.0,f,012_o_f_h_a.jpg,happy,d,17,2,541.6402660999447,541.9339846099261,541.9510003998876,542.0910146098119,542.0953941999469,542.1365877100267,542.1414709999226,542.7320326100104,d,1,0.581664799945429,581.664799945429,542.1414709999226,542.7320326100104,542.7437306998763,544.6758110098541,EMOCONPILOT018,2021_Jan_04_1305,EmoCon_Pilot_120Hz,2020.2.4,119.97600483979348,
,,,,1,0,1,0,50,0,50,0,,,,,,,,,,,,,,,,,,,,,,,,,,,,,,,,,,,,,,,,,,,,,,,50,5.0,m,027_o_m_h_a.jpg,happy,d,2,2,544.6811247000005,544.9758459098172,545.1908470999915,545.2073145100381,545.2081174999475,545.2434064100031,545.2436971999705,546.1587683098857,d,1,0.903410900151357,903.410900151357,545.2436971999705,546.1587683098857,546.1654574000277,548.0424398099073,EMOCONPILOT018,2021_Jan_04_1305,EmoCon_Pilot_120Hz,2020.2.4,119.97600483979348,
,,,,1,0,1,0,51,0,51,0,,,,,,,,,,,,,,,,,,,,,,,,,,,,,,,,,,,,,,,,,,,,,,,51,12.0,f,040_y_f_n_a.jpg,neutral,s,2,2,548.0466477998998,548.342520409869,548.5525918998756,548.5696404100396,548.5697359999176,548.6045166099444,548.6048798998818,549.5242816099432,s,1,0.9101966999005526,910.1966999005526,548.6048798998818,549.5242816099432,549.5339313999284,551.2509199098218,EMOCONPILOT018,2021_Jan_04_1305,EmoCon_Pilot_120Hz,2020.2.4,119.97600483979348,
,,,,1,0,1,0,52,0,52,0,,,,,,,,,,,,,,,,,,,,,,,,,,,,,,,,,,,,,,,,,,,,,,,52,2.0,m,008_y_m_h_a.jpg,happy,d,17,2,551.2562561000232,551.5508483100217,551.567877399968,551.7025295099244,551.706910799956,551.7477341100108,551.7525285999291,552.5580022098962,d,1,0.7946789001580328,794.6789001580328,551.7525285999291,552.5580022098962,552.5697625998873,554.2426604099106,EMOCONPILOT018,2021_Jan_04_1305,EmoCon_Pilot_120Hz,2020.2.4,119.97600483979348,
,,,,1,0,1,0,53,0,53,0,,,,,,,,,,,,,,,,,,,,,,,,,,,,,,,,,,,,,,,,,,,,,,,53,6.0,m,033_o_m_h_a.jpg,happy,d,17,2,554.2483873998281,554.5425758100115,554.5643754999619,554.7026499099098,554.7075620999094,554.7482537100092,554.753494199831,555.2429822100327,d,1,0.47391780000180006,473.91780000180006,554.753494199831,555.2429822100327,555.250737400027,556.5592986099888,EMOCONPILOT018,2021_Jan_04_1305,EmoCon_Pilot_120Hz,2020.2.4,119.97600483979348,
,,,,1,0,1,0,54,0,54,0,,,,,,,,,,,,,,,,,,,,,,,,,,,,,,,,,,,,,,,,,,,,,,,54,2.0,m,008_y_m_h_a.jpg,happy,d,2,2,556.5648185999598,556.8592798098922,556.8716791998595,556.8877056100406,556.8878575998824,556.9219785098918,556.9227042000275,557.68231781004,d,1,0.7525351999793202,752.5351999793202,556.9227042000275,557.68231781004,557.6938219999429,559.2009864099324,EMOCONPILOT018,2021_Jan_04_1305,EmoCon_Pilot_120Hz,2020.2.4,119.97600483979348,
,,,,1,0,1,0,55,0,55,0,,,,,,,,,,,,,,,,,,,,,,,,,,,,,,,,,,,,,,,,,,,,,,,55,12.0,f,040_y_f_h_a.jpg,happy,d,17,2,559.2065309998579,559.5010855099187,559.5244658999145,559.6610124098603,559.6653545999434,559.7062565098983,559.7119449998718,560.2145673098508,d,1,0.4910609000362456,491.0609000362456,559.7119449998718,560.2145673098508,560.2220740998164,561.5510072099511,EMOCONPILOT018,2021_Jan_04_1305,EmoCon_Pilot_120Hz,2020.2.4,119.97600483979348,
,,,,1,0,1,0,56,0,56,0,,,,,,,,,,,,,,,,,,,,,,,,,,,,,,,,,,,,,,,,,,,,,,,56,10.0,f,028_y_f_n_a.jpg,neutral,s,17,2,561.5540501999203,561.8510328099597,562.0643070999067,562.224122209847,562.2276413999498,562.268237709906,562.2734193999786,563.464660109859,s,1,1.1776755000464618,1177.6755000464618,562.2734193999786,563.464660109859,563.4754919998813,564.9677829098888,EMOCONPILOT018,2021_Jan_04_1305,EmoCon_Pilot_120Hz,2020.2.4,119.97600483979348,
,,,,1,0,1,0,57,0,57,0,,,,,,,,,,,,,,,,,,,,,,,,,,,,,,,,,,,,,,,,,,,,,,,57,12.0,f,040_y_f_s_a.jpg,sad,a,2,2,564.9710746000055,565.267920909822,565.2923890999518,565.3076239099261,565.3084590998478,565.3445515098516,565.3450366000179,566.8750739098992,s,0,1.5221559999044985,1522.1559999044985,565.3450366000179,566.8750739098992,566.8827727998141,568.7595410099253,EMOCONPILOT018,2021_Jan_04_1305,EmoCon_Pilot_120Hz,2020.2.4,119.97600483979348,
,,,,1,0,1,0,58,0,58,0,,,,,,,,,,,,,,,,,,,,,,,,,,,,,,,,,,,,,,,,,,,,,,,58,5.0,m,027_o_m_n_a.jpg,neutral,s,2,2,568.7653292999603,569.0595096099656,569.2776036998257,569.2949038100429,569.2950084998738,569.3306627100334,569.3303464998025,570.0293441099581,d,0,0.6886835999321193,688.6835999321193,569.3303464998025,570.0293441099581,570.0368813998066,571.5678746098653,EMOCONPILOT018,2021_Jan_04_1305,EmoCon_Pilot_120Hz,2020.2.4,119.97600483979348,
,,,,1,0,1,0,59,0,59,0,,,,,,,,,,,,,,,,,,,,,,,,,,,,,,,,,,,,,,,,,,,,,,,59,4.0,m,016_y_m_s_a.jpg,sad,a,2,2,571.571761299856,571.8679249099456,571.8844160998706,571.9001079098322,571.9002787999343,571.9363413098268,571.9382091998123,572.5730418098625,s,0,0.6248554000630975,624.8554000630975,571.9382091998123,572.5730418098625,572.5812708998565,573.9346467099618,EMOCONPILOT018,2021_Jan_04_1305,EmoCon_Pilot_120Hz,2020.2.4,119.97600483979348,
,,,,1,0,1,0,60,0,60,0,,,,,,,,,,,,,,,,,,,,,,,,,,,,,,,,,,,,,,,,,,,,,,,60,5.0,m,027_o_m_n_a.jpg,neutral,s,17,2,573.9375606998801,574.2345593100414,574.44293309981,574.6022138098721,574.6058635998052,574.6454322099686,574.6505785000045,575.1936782099307,s,1,0.5284635999705642,528.4635999705642,574.6505785000045,575.1936782099307,575.1989325999748,576.5263546098955,EMOCONPILOT018,2021_Jan_04_1305,EmoCon_Pilot_120Hz,2020.2.4,119.97600483979348,
,,,,1,0,1,0,61,0,61,0,,,,,,,,,,,,,,,,,,,,,,,,,,,,,,,,,,,,,,,,,,,,,,,61,10.0,f,028_y_f_s_a.jpg,sad,a,17,2,576.5294889998622,576.8263555098325,576.8419305998832,576.978254609881,576.982035699999,577.0232712099329,577.0283272999804,577.7535480099265,a,1,0.7107583000324667,710.7583000324667,577.0283272999804,577.7535480099265,577.7643138999119,579.6181787100155,EMOCONPILOT018,2021_Jan_04_1305,EmoCon_Pilot_120Hz,2020.2.4,119.97600483979348,
,,,,1,0,1,0,62,0,62,0,,,,,,,,,,,,,,,,,,,,,,,,,,,,,,,,,,,,,,,,,,,,,,,62,3.0,m,013_y_m_n_a.jpg,neutral,s,2,2,579.622026699828,579.9180932099931,580.1559202999342,580.1733032098506,580.173429499846,580.2109924099874,580.2110470999032,580.9093584098388,s,1,0.6880748998373747,688.0748998373747,580.2110470999032,580.9093584098388,580.9178686998785,582.3431464099791,EMOCONPILOT018,2021_Jan_04_1305,EmoCon_Pilot_120Hz,2020.2.4,119.97600483979348,
,,,,1,0,1,0,63,0,63,0,,,,,,,,,,,,,,,,,,,,,,,,,,,,,,,,,,,,,,,,,,,,,,,63,4.0,m,016_y_m_s_a.jpg,sad,a,17,2,582.3459397000261,582.6431202098262,582.6650914999191,582.8032785099,582.8051328000147,582.8444845100399,582.8463760998566,583.5566149099265,a,1,0.7006230999249965,700.6230999249965,582.8463760998566,583.5566149099265,583.5628357999958,585.1766681099776,EMOCONPILOT018,2021_Jan_04_1305,EmoCon_Pilot_120Hz,2020.2.4,119.97600483979348,
,,,,1,0,1,0,64,0,64,0,,,,,,,,,,,,,,,,,,,,,,,,,,,,,,,,,,,,,,,,,,,,,,,64,12.0,f,040_y_f_h_a.jpg,happy,d,2,2,585.1799842999317,585.4765500099398,585.4992231999058,585.5142570099794,585.5152652999386,585.5528254098259,585.5529903999995,586.3939935098402,s,0,0.8261513998731971,826.1513998731971,585.5529903999995,586.3939935098402,586.3987435998861,587.868320809817,EMOCONPILOT018,2021_Jan_04_1305,EmoCon_Pilot_120Hz,2020.2.4,119.97600483979348,
,,,,1,0,1,0,65,0,65,0,,,,,,,,,,,,,,,,,,,,,,,,,,,,,,,,,,,,,,,,,,,,,,,65,5.0,m,027_o_m_n_a.jpg,neutral,s,2,2,587.8725735999178,588.1682658099104,588.3894038000144,588.4066896100063,588.4085154999048,588.447529409919,588.4528641998768,589.3091355100274,d,0,0.8462086000945419,846.2086000945419,588.4528641998768,589.3091355100274,589.3199444999918,590.5100698099938,EMOCONPILOT018,2021_Jan_04_1305,EmoCon_Pilot_120Hz,2020.2.4,119.97600483979348,
,,,,1,0,1,0,66,0,66,0,,,,,,,,,,,,,,,,,,,,,,,,,,,,,,,,,,,,,,,,,,,,,,,66,6.0,m,033_o_m_s_a.jpg,sad,a,2,2,590.5145729999058,590.8100471099839,590.8338699999731,590.849202009989,590.850193799939,590.8862602099776,590.8863659999333,591.550954109896,s,0,0.6527347001247108,652.7347001247108,590.8863659999333,591.550954109896,591.5583979999647,593.060178809939,EMOCONPILOT018,2021_Jan_04_1305,EmoCon_Pilot_120Hz,2020.2.4,119.97600483979348,
,,,,1,0,1,0,67,0,67,0,,,,,,,,,,,,,,,,,,,,,,,,,,,,,,,,,,,,,,,,,,,,,,,67,6.0,m,033_o_m_h_a.jpg,happy,d,17,2,593.0656361000147,593.360146509856,593.3839267999865,593.5200439099223,593.5230510998517,593.5613592098467,593.5643125998322,594.2471305098385,d,1,0.6708558001555502,670.8558001555502,593.5643125998322,594.2471305098385,594.2565440000035,595.6601452100091,EMOCONPILOT018,2021_Jan_04_1305,EmoCon_Pilot_120Hz,2020.2.4,119.97600483979348,
,,,,1,0,1,0,68,0,68,0,,,,,,,,,,,,,,,,,,,,,,,,,,,,,,,,,,,,,,,,,,,,,,,68,2.0,m,008_y_m_s_a.jpg,sad,a,2,2,595.6643246000167,595.960160909826,596.1977804999333,596.2147214099765,596.2152821999043,596.253060809942,596.2531638999935,597.3369531099685,a,1,1.0699134001042694,1069.9134001042694,596.2531638999935,597.3369531099685,597.3443612998817,599.185294110002,EMOCONPILOT018,2021_Jan_04_1305,EmoCon_Pilot_120Hz,2020.2.4,119.97600483979348,
,,,,1,0,1,0,69,0,69,0,,,,,,,,,,,,,,,,,,,,,,,,,,,,,,,,,,,,,,,,,,,,,,,69,1.0,m,004_o_m_n_a.jpg,neutral,s,2,2,599.1906421999447,599.4852046099492,599.6914289998822,599.707652209932,599.7083270999137,599.744625409972,599.7446325998753,600.9971658099909,d,0,1.2424237998202443,1242.4237998202443,599.7446325998753,600.9971658099909,601.004747999832,602.6852816100233,EMOCONPILOT018,2021_Jan_04_1305,EmoCon_Pilot_120Hz,2020.2.4,119.97600483979348,
,,,,1,0,1,0,70,0,70,0,,,,,,,,,,,,,,,,,,,,,,,,,,,,,,,,,,,,,,,,,,,,,,,70,2.0,m,008_y_m_s_a.jpg,sad,a,2,2,602.6909379998688,602.98528200984,603.220872099977,603.2377458099742,603.2386417000089,603.273230409855,603.2728951999452,604.6336125099566,a,1,1.3464277000166476,1346.4277000166476,603.2728951999452,604.6336125099566,604.6429614999797,605.6937162099872,EMOCONPILOT018,2021_Jan_04_1305,EmoCon_Pilot_120Hz,2020.2.4,119.97600483979348,
,,,,1,0,1,0,71,0,71,0,,,,,,,,,,,,,,,,,,,,,,,,,,,,,,,,,,,,,,,,,,,,,,,71,11.0,f,030_o_f_n_a.jpg,neutral,s,2,2,605.6999774000142,605.9937694099732,606.19684530003,606.2143469100353,606.2145888998639,606.2494904099964,606.2495722998865,607.0682134098839,s,1,0.8016832999419421,801.6832999419421,606.2495722998865,607.0682134098839,607.0769127998501,608.5688202098478,EMOCONPILOT018,2021_Jan_04_1305,EmoCon_Pilot_120Hz,2020.2.4,119.97600483979348,
,,,,1,0,1,0,72,0,72,0,,,,,,,,,,,,,,,,,,,,,,,,,,,,,,,,,,,,,,,,,,,,,,,72,11.0,f,030_o_f_n_a.jpg,neutral,s,17,2,608.5745941000059,608.8687988099642,609.0615757999476,609.2201968099922,609.2249088999815,609.2658724099398,609.2709539998323,610.297707609972,s,1,1.0121562001295388,1012.1562001295388,609.2709539998323,610.297707609972,610.3026419000234,612.1271904098336,EMOCONPILOT018,2021_Jan_04_1305,EmoCon_Pilot_120Hz,2020.2.4,119.97600483979348,
,,,,1,0,1,0,73,0,73,0,,,,,,,,,,,,,,,,,,,,,,,,,,,,,,,,,,,,,,,,,,,,,,,73,2.0,m,008_y_m_s_a.jpg,sad,a,2,2,612.1303786998615,612.4271816098131,612.6509241999593,612.6674595099408,612.6676282000262,612.7032770099119,612.7031882998999,613.5729971098714,a,1,0.8597860999871045,859.7860999871045,612.7031882998999,613.5729971098714,613.5796045998577,615.1356089100242,EMOCONPILOT018,2021_Jan_04_1305,EmoCon_Pilot_120Hz,2020.2.4,119.97600483979348,
,,,,1,0,1,0,74,0,74,0,,,,,,,,,,,,,,,,,,,,,,,,,,,,,,,,,,,,,,,,,,,,,,,74,11.0,f,030_o_f_n_a.jpg,neutral,s,17,2,615.1398687998299,615.4356218098197,615.6455915998667,615.8039516100195,615.8086430998519,615.8492836099118,615.854562799912,616.5140165098943,s,1,0.6526069999672472,652.6069999672472,615.854562799912,616.5140165098943,616.52589239995,618.143998409994,EMOCONPILOT018,2021_Jan_04_1305,EmoCon_Pilot_120Hz,2020.2.4,119.97600483979348,
,,,,1,0,1,0,75,0,75,0,,,,,,,,,,,,,,,,,,,,,,,,,,,,,,,,,,,,,,,,,,,,,,,75,1.0,m,004_o_m_s_a.jpg,sad,a,2,2,618.1493110000156,618.4440186099615,618.4679606999271,618.4832678098697,618.4841179000214,618.5201345099136,618.5202314998023,619.9170493098442,d,0,1.3868737001903355,1386.8737001903355,618.5202314998023,619.9170493098442,619.9281194999348,621.8940499100369,EMOCONPILOT018,2021_Jan_04_1305,EmoCon_Pilot_120Hz,2020.2.4,119.97600483979348,
,,,,1,0,1,0,76,0,76,0,,,,,,,,,,,,,,,,,,,,,,,,,,,,,,,,,,,,,,,,,,,,,,,76,3.0,m,013_y_m_n_a.jpg,neutral,s,2,2,621.8979756999761,622.1940273099113,622.4413260000292,622.4582176098135,622.4590356999543,622.4950505098328,622.4951402000152,623.1956589099951,s,1,0.6919108999427408,691.9108999427408,622.4951402000152,623.1956589099951,623.2011145998258,624.7441648099572,EMOCONPILOT018,2021_Jan_04_1305,EmoCon_Pilot_120Hz,2020.2.4,119.97600483979348,
,,,,1,0,1,0,77,0,77,0,,,,,,,,,,,,,,,,,,,,,,,,,,,,,,,,,,,,,,,,,,,,,,,77,7.0,f,012_o_f_s_a.jpg,sad,a,17,2,624.748393899994,625.044110309938,625.0650978998747,625.1957281098236,625.1986000998877,625.237050309917,625.2402743999846,625.9267062099185,a,1,0.6748558999970555,674.8558999970555,625.2402743999846,625.9267062099185,625.9357031998225,627.7358832099941,EMOCONPILOT018,2021_Jan_04_1305,EmoCon_Pilot_120Hz,2020.2.4,119.97600483979348,
,,,,1,0,1,0,78,0,78,0,,,,,,,,,,,,,,,,,,,,,,,,,,,,,,,,,,,,,,,,,,,,,,,78,12.0,f,040_y_f_n_a.jpg,neutral,s,2,2,627.7401736997999,628.0358010098804,628.2590456998441,628.2756447099615,628.2760719999205,628.3119889098685,628.3116863998584,629.1006343098358,s,1,0.7715139000210911,771.5139000210911,628.3116863998584,629.1006343098358,629.1120670998935,630.9358413099777,EMOCONPILOT018,2021_Jan_04_1305,EmoCon_Pilot_120Hz,2020.2.4,119.97600483979348,
,,,,1,0,1,0,79,0,79,0,,,,,,,,,,,,,,,,,,,,,,,,,,,,,,,,,,,,,,,,,,,,,,,79,6.0,m,033_o_m_h_a.jpg,happy,d,17,2,630.9398368999828,631.2358581099194,631.2588625999633,631.3957827099599,631.3989203998353,631.4370917099528,631.440486599924,631.94705690993,d,1,0.49087810004130006,490.87810004130006,631.440486599924,631.94705690993,631.9559202999808,633.6275392099284,EMOCONPILOT018,2021_Jan_04_1305,EmoCon_Pilot_120Hz,2020.2.4,119.97600483979348,
,,,,1,0,1,0,80,0,80,0,,,,,,,,,,,,,,,,,,,,,,,,,,,,,,,,,,,,,,,,,,,,,,,80,2.0,m,008_y_m_n_a.jpg,neutral,s,17,2,633.6304981999565,633.9276479099877,634.1741508999839,634.3325601098128,634.3373876998667,634.378263509972,634.3834048998542,634.8625593098346,s,1,0.4678010998759419,467.8010998759419,634.3834048998542,634.8625593098346,634.8742638998665,636.6442903100047,EMOCONPILOT018,2021_Jan_04_1305,EmoCon_Pilot_120Hz,2020.2.4,119.97600483979348,
,,,,1,0,1,0,81,0,81,0,,,,,,,,,,,,,,,,,,,,,,,,,,,,,,,,,,,,,,,,,,,,,,,81,12.0,f,040_y_f_h_a.jpg,happy,d,2,2,636.6483117998578,636.9442819099874,636.9685897999443,636.9834594099317,636.9845381998457,637.0205141100101,637.0210793998558,637.9164188098163,d,1,0.8860877000261098,886.0877000261098,637.0210793998558,637.9164188098163,637.9257010000292,639.7944203099702,EMOCONPILOT018,2021_Jan_04_1305,EmoCon_Pilot_120Hz,2020.2.4,119.97600483979348,
,,,,1,0,1,0,82,0,82,0,,,,,,,,,,,,,,,,,,,,,,,,,,,,,,,,,,,,,,,,,,,,,,,82,9.0,f,021_o_f_h_a.jpg,happy,d,17,2,639.7984678000212,640.0944614099805,640.3208538999315,640.4914128099568,640.4955140999518,640.5362610098906,640.5412140998524,641.5210362099111,d,1,0.9662500000558794,966.2500000558794,640.5412140998524,641.5210362099111,641.532074399991,642.5861861099489,EMOCONPILOT018,2021_Jan_04_1305,EmoCon_Pilot_120Hz,2020.2.4,119.97600483979348,
,,,,1,0,1,0,83,0,83,0,,,,,,,,,,,,,,,,,,,,,,,,,,,,,,,,,,,,,,,,,,,,,,,83,6.0,m,033_o_m_h_a.jpg,happy,d,17,2,642.5922566999216,642.8861367098522,642.911646099994,643.0461191098672,643.0476546999998,643.0873299100436,643.0902242998127,643.9430494100321,d,1,0.8409178999718279,840.9178999718279,643.0902242998127,643.9430494100321,643.9529790999368,645.894544609962,EMOCONPILOT018,2021_Jan_04_1305,EmoCon_Pilot_120Hz,2020.2.4,119.97600483979348,
,,,,1,0,1,0,84,0,84,0,,,,,,,,,,,,,,,,,,,,,,,,,,,,,,,,,,,,,,,,,,,,,,,84,2.0,m,008_y_m_n_a.jpg,neutral,s,2,2,645.8997474999633,646.1945524098352,646.4348319999408,646.45125651001,646.4519773998763,646.4874187099282,646.4874179998878,647.5434972100426,s,1,1.0437795999459922,1043.7795999459922,646.4874179998878,647.5434972100426,647.5507622000296,649.2612862099428,EMOCONPILOT018,2021_Jan_04_1305,EmoCon_Pilot_120Hz,2020.2.4,119.97600483979348,
,,,,1,0,1,0,85,0,85,0,,,,,,,,,,,,,,,,,,,,,,,,,,,,,,,,,,,,,,,,,,,,,,,85,10.0,f,028_y_f_n_a.jpg,neutral,s,2,2,649.2673289999366,649.561284909863,649.763129199855,649.7800632099621,649.7836009999737,649.8208857098595,649.8260422998574,650.8754485099577,s,1,1.0410677001345903,1041.0677001345903,649.8260422998574,650.8754485099577,650.8829698998015,652.5447409098502,EMOCONPILOT018,2021_Jan_04_1305,EmoCon_Pilot_120Hz,2020.2.4,119.97600483979348,
,,,,1,0,1,0,86,0,86,0,,,,,,,,,,,,,,,,,,,,,,,,,,,,,,,,,,,,,,,,,,,,,,,86,6.0,m,033_o_m_h_a.jpg,happy,d,17,2,652.5490535998251,652.8447647098452,652.8609938998707,652.9963304099161,652.998915999895,653.0375440098811,653.0402693999931,653.4516729099211,d,1,0.4031148999929428,403.1148999929428,653.0402693999931,653.4516729099211,653.4631185999606,654.6447356100194,EMOCONPILOT018,2021_Jan_04_1305,EmoCon_Pilot_120Hz,2020.2.4,119.97600483979348,
,,,,1,0,1,0,87,0,87,0,,,,,,,,,,,,,,,,,,,,,,,,,,,,,,,,,,,,,,,,,,,,,,,87,5.0,m,027_o_m_s_a.jpg,sad,a,2,2,654.648554999847,654.9448273099493,654.9682419998571,654.983210310014,654.9836799998302,655.020822809916,655.0209528999403,656.0072271098849,d,0,0.9744017000775784,974.4017000775784,655.0209528999403,656.0072271098849,656.0181177998893,657.294800009951,EMOCONPILOT018,2021_Jan_04_1305,EmoCon_Pilot_120Hz,2020.2.4,119.97600483979348,
,,,,1,0,1,0,88,0,88,0,,,,,,,,,,,,,,,,,,,,,,,,,,,,,,,,,,,,,,,,,,,,,,,88,7.0,f,012_o_f_s_a.jpg,sad,a,17,2,657.2979214999359,657.5948252099566,657.6153378998861,657.7464343098924,657.7499596998096,657.7909121100325,657.7954167998396,658.3166198098567,a,1,0.5039616001304239,503.9616001304239,657.7954167998396,658.3166198098567,658.3270397000015,659.8447571100202,EMOCONPILOT018,2021_Jan_04_1305,EmoCon_Pilot_120Hz,2020.2.4,119.97600483979348,
,,,,1,0,1,0,89,0,89,0,,,,,,,,,,,,,,,,,,,,,,,,,,,,,,,,,,,,,,,,,,,,,,,89,2.0,m,008_y_m_h_a.jpg,happy,d,2,2,659.8454468999989,660.1448795098346,660.1695208000019,660.1853650099598,660.1872030999511,660.2234392100014,660.2237169998698,661.3802192098461,d,1,1.1396363000385463,1139.6363000385463,660.2237169998698,661.3802192098461,661.3891555999871,663.2448681098409,EMOCONPILOT018,2021_Jan_04_1305,EmoCon_Pilot_120Hz,2020.2.4,119.97600483979348,
,,,,1,0,1,0,90,0,90,0,,,,,,,,,,,,,,,,,,,,,,,,,,,,,,,,,,,,,,,,,,,,,,,90,7.0,f,012_o_f_h_a.jpg,happy,d,2,2,663.248907199828,663.5448804098647,663.5694057999644,663.5852981099393,663.5859224998858,663.6230251098983,663.6235479000024,664.4487502099015,s,0,0.811556400032714,811.556400032714,663.6235479000024,664.4487502099015,664.4560830998234,665.678303309856,EMOCONPILOT018,2021_Jan_04_1305,EmoCon_Pilot_120Hz,2020.2.4,119.97600483979348,
,,,,1,0,1,0,91,0,91,0,,,,,,,,,,,,,,,,,,,,,,,,,,,,,,,,,,,,,,,,,,,,,,,91,10.0,f,028_y_f_s_a.jpg,sad,a,2,2,665.683926000027,665.9784001099412,665.9988620998338,666.0143388099037,666.0146985999309,666.0499435098842,666.049544399837,666.8513727098704,s,0,0.7857588999904692,785.7588999904692,666.049544399837,666.8513727098704,666.8582083999645,668.1948927099817,EMOCONPILOT018,2021_Jan_04_1305,EmoCon_Pilot_120Hz,2020.2.4,119.97600483979348,
,,,,1,0,1,0,92,0,92,0,,,,,,,,,,,,,,,,,,,,,,,,,,,,,,,,,,,,,,,,,,,,,,,92,12.0,f,040_y_f_s_a.jpg,sad,a,17,2,668.1980200000107,668.4950971099548,668.5161627000198,668.6465317098424,668.6496643000282,668.687811609963,668.6909739000257,669.5540168098174,a,1,0.8482279002200812,848.2279002200812,668.6909739000257,669.5540168098174,669.562336999923,670.8867150099483,EMOCONPILOT018,2021_Jan_04_1305,EmoCon_Pilot_120Hz,2020.2.4,119.97600483979348,
,,,,1,0,1,0,93,0,93,0,,,,,,,,,,,,,,,,,,,,,,,,,,,,,,,,,,,,,,,,,,,,,,,93,2.0,m,008_y_m_n_a.jpg,neutral,s,2,2,670.8899747999385,671.186692909943,671.4315229998901,671.4495263098739,671.4534795999061,671.494467409933,671.4996269999538,672.1941439098679,s,1,0.6876404001377523,687.6404001377523,671.4996269999538,672.1941439098679,672.2038042999338,674.0951307098381,EMOCONPILOT018,2021_Jan_04_1305,EmoCon_Pilot_120Hz,2020.2.4,119.97600483979348,
