trials_example.thisRepN,trials_example.thisTrialN,trials_example.thisN,trials_example.thisIndex,block.thisRepN,block.thisTrialN,block.thisN,block.thisIndex,trials_study.thisRepN,trials_study.thisTrialN,trials_study.thisN,trials_study.thisIndex,text_welcome.started,text_welcome.stopped,text_intro.started,text_intro.stopped,key_resp_intro.keys,key_resp_intro.started,key_resp_intro.stopped,text_intro2.started,text_intro2.stopped,key_resp_intro2.keys,key_resp_intro2.rt,key_resp_intro2.started,key_resp_intro2.stopped,example trial,personPrimeExample,genderPrimeExample,primeExample,emotionPrimeExample,corrAnsPrimeExample,example mask time,fix300_example.started,fix300_example.stopped,image_primer_example.started,image_primer_example.stopped,scrambled.started,scrambled.stopped,text_response_example.started,text_response_example.stopped,key_resp_example.keys,key_resp_example.corr,key_resp_example.rt,key_resp_example.rt in ms,key_resp_example.started,key_resp_example.stopped,Jitter_example.started,Jitter_example.stopped,text_start.started,text_start.stopped,text_pause.started,text_pause.stopped,key_resp_pause.keys,key_resp_pause.rt,key_resp_pause.rt in ms,key_resp_pause.started,key_resp_pause.stopped,study trial,personPrimeStudy,genderPrimeStudy,primeStudy,emotionPrimeStudy,corrAnsPrimeStudy,study mask time,Block,fix300_study.started,fix300_study.stopped,image_primer_study.started,image_primer_study.stopped,scrambled_study.started,scrambled_study.stopped,text_response_study.started,text_response_study.stopped,key_resp_study.keys,key_resp_study.corr,key_resp_study.started,key_resp_study.stopped,Jitter_study.started,Jitter_study.stopped,key_resp_study.rt,key_resp_study.rt in ms,participant,date,expName,psychopyVersion,frameRate,
,,,,,,,,,,,,27.793641500175,30.78582738006953,30.78737280005589,36.610578080103735,None,30.78737280005589,36.610578080103735,,,,,,,,,,,,,,,,,,,,,,,,,,,,,,,,,,,,,,,,,,,,,,,,,,,,,,,,,,,,,,,EMOCONPILOT016,2021_Jan_04_1202,EmoCon_Pilot_120Hz,2020.2.4,120.03476222004338,
,,,,,,,,,,,,,,,,,,,36.61390650016256,39.03506358007435,s,2.4056501002050936,36.61390650016256,39.03506358007435,,,,,,,,,,,,,,,,,,,,,,,,,,,,,,,,,,,,,,,,,,,,,,,,,,,,,,,,,EMOCONPILOT016,2021_Jan_04_1202,EmoCon_Pilot_120Hz,2020.2.4,120.03476222004338,
0,0,0,0,,,,,,,,,,,,,,,,,,,,,,0,3.0,f,1113_y_f_s_a.jpg,sad,a,17,39.04244320001453,39.33606498006266,39.58507709996775,39.73817277995404,39.74542640009895,39.779854579991664,39.78069830010645,41.02142547995318,a,1,1.2307459998410195,1230.7459998410195,39.78069830010645,41.02142547995318,41.02590850018896,42.34450288016815,,,,,,,,,,,,,,,,,,,,,,,,,,,,,,,,,,EMOCONPILOT016,2021_Jan_04_1202,EmoCon_Pilot_120Hz,2020.2.4,120.03476222004338,
1,0,1,0,,,,,,,,,,,,,,,,,,,,,,1,1.0,m,1111_m_m_s_a.jpg,sad,a,17,42.34652899997309,42.644474479998465,42.84455390018411,43.00423778004479,43.006912800017744,43.046233880030925,43.04928530007601,43.891829780000265,a,1,0.8340288000181317,834.0288000181317,43.04928530007601,43.891829780000265,43.8953790999949,45.75291738000233,,,,,,,,,,,,,,,,,,,,,,,,,,,,,,,,,,EMOCONPILOT016,2021_Jan_04_1202,EmoCon_Pilot_120Hz,2020.2.4,120.03476222004338,
2,0,2,0,,,,,,,,,,,,,,,,,,,,,,2,3.0,f,1113_y_f_n_a.jpg,neutral,s,3,45.75441140006296,46.05291328013409,46.2573383001145,46.28349938003812,46.28373210015707,46.32075938016642,46.321314700180665,47.36227918013465,d,0,1.026281900005415,1026.281900005415,46.321314700180665,47.36227918013465,47.36661530006677,48.561316480091776,,,,,,,,,,,,,,,,,,,,,,,,,,,,,,,,,,EMOCONPILOT016,2021_Jan_04_1202,EmoCon_Pilot_120Hz,2020.2.4,120.03476222004338,
3,0,3,0,,,,,,,,,,,,,,,,,,,,,,3,2.0,f,1112_m_f_h_a.jpg,happy,d,3,48.56257940013893,48.861264279973696,49.06699190009385,49.092202880117114,49.09314989997074,49.128940079989846,49.12921230006032,50.03635698014405,d,1,0.8982134000398219,898.2134000398219,49.12921230006032,50.03635698014405,50.03976620011963,51.77786028005649,,,,,,,,,,,,,,,,,,,,,,,,,,,,,,,,,,EMOCONPILOT016,2021_Jan_04_1202,EmoCon_Pilot_120Hz,2020.2.4,120.03476222004338,
4,0,4,0,,,,,,,,,,,,,,,,,,,,,,4,2.0,f,1112_m_f_n_a.jpg,neutral,s,17,51.77776379999705,52.077998980111445,52.3120817001909,52.474191780132244,52.476793700130656,52.517788780084814,52.520606599980965,53.172562180017124,s,1,0.6427472000941634,642.7472000941634,52.520606599980965,53.172562180017124,53.174002200132236,54.486449780105616,,,,,,,,,,,,,,,,,,,,,,,,,,,,,,,,,,EMOCONPILOT016,2021_Jan_04_1202,EmoCon_Pilot_120Hz,2020.2.4,120.03476222004338,
,,,,0,0,0,0,0,0,0,0,,,,,,,,,,,,,,,,,,,,,,,,,,,,,,,,,,,,,54.53679689997807,57.5279383800691,57.52897940017283,59.281836680066775,s,1.738431999925524,1738.431999925524,57.52897940017283,59.281836680066775,0,8.0,f,019_m_f_s_a.jpg,sad,a,3,1,59.28556039999239,59.57779218016658,59.827272000024095,59.853290280024524,59.853494100039825,59.888073580036874,59.89048729999922,61.488224479998465,None,0,59.89048729999922,61.488224479998465,61.496395900147036,62.61162568016444,,,EMOCONPILOT016,2021_Jan_04_1202,EmoCon_Pilot_120Hz,2020.2.4,120.03476222004338,
,,,,0,0,0,0,1,0,1,0,,,,,,,,,,,,,,,,,,,,,,,,,,,,,,,,,,,,,,,,,,,,,,1,6.0,m,033_o_m_n_a.jpg,neutral,s,17,1,62.61479929997586,62.91169948007446,63.1178377000615,63.27895628002007,63.2836896001827,63.32451528001111,63.32977040018886,64.08962897995953,s,1,63.32977040018886,64.08962897995953,64.09567080019042,66.05341138008517,0.7455325999762863,745.5325999762863,EMOCONPILOT016,2021_Jan_04_1202,EmoCon_Pilot_120Hz,2020.2.4,120.03476222004338,
,,,,0,0,0,0,2,0,2,0,,,,,,,,,,,,,,,,,,,,,,,,,,,,,,,,,,,,,,,,,,,,,,2,2.0,m,008_y_m_s_a.jpg,sad,a,3,1,66.0575716001913,66.35344968007412,66.5898875000421,66.61737987997476,66.62036560010165,66.66033288014587,66.66516249999404,68.29762638004031,None,0,66.66516249999404,68.29762638004031,68.30289300018921,70.10330288012047,,,EMOCONPILOT016,2021_Jan_04_1202,EmoCon_Pilot_120Hz,2020.2.4,120.03476222004338,
,,,,0,0,0,0,3,0,3,0,,,,,,,,,,,,,,,,,,,,,,,,,,,,,,,,,,,,,,,,,,,,,,3,11.0,f,030_o_f_h_a.jpg,happy,d,17,1,70.10632909997366,70.40338568009902,70.6055780001916,70.76157987995539,70.76651530014351,70.80593118018005,70.81100230012089,71.36152048006188,d,1,70.81100230012089,71.36152048006188,71.37399270012975,72.76177997996565,0.5364887001924217,536.4887001924217,EMOCONPILOT016,2021_Jan_04_1202,EmoCon_Pilot_120Hz,2020.2.4,120.03476222004338,
,,,,0,0,0,0,4,0,4,0,,,,,,,,,,,,,,,,,,,,,,,,,,,,,,,,,,,,,,,,,,,,,,4,11.0,f,030_o_f_s_a.jpg,sad,a,17,1,72.76592130004428,73.06186768009793,73.28986480017193,73.44662738002371,73.45163100003265,73.4924046801636,73.49781020008959,74.36390108002816,s,0,73.49781020008959,74.36390108002816,74.37222330016084,75.54520328009967,0.8576056999154389,857.6056999154389,EMOCONPILOT016,2021_Jan_04_1202,EmoCon_Pilot_120Hz,2020.2.4,120.03476222004338,
,,,,0,0,0,0,5,0,5,0,,,,,,,,,,,,,,,,,,,,,,,,,,,,,,,,,,,,,,,,,,,,,,5,11.0,f,030_o_f_s_a.jpg,sad,a,3,1,75.54813080001622,75.84519748010207,76.04943090002052,76.0771982799517,76.08159980014898,76.12264788004104,76.12762340018526,76.94342558009085,s,0,76.12762340018526,76.94342558009085,76.95525550004095,78.47859448001255,0.8039114000275731,803.9114000275731,EMOCONPILOT016,2021_Jan_04_1202,EmoCon_Pilot_120Hz,2020.2.4,120.03476222004338,
,,,,0,0,0,0,6,0,6,0,,,,,,,,,,,,,,,,,,,,,,,,,,,,,,,,,,,,,,,,,,,,,,6,5.0,m,027_o_m_n_a.jpg,neutral,s,3,1,78.48290790012106,78.77858018006664,79.01562339998782,79.04256398014259,79.04310670006089,79.07976418004837,79.0812890001107,79.83416108011734,s,1,79.0812890001107,79.83416108011734,79.8374744001776,81.01194508017507,0.7380526000633836,738.0526000633836,EMOCONPILOT016,2021_Jan_04_1202,EmoCon_Pilot_120Hz,2020.2.4,120.03476222004338,
,,,,0,0,0,0,7,0,7,0,,,,,,,,,,,,,,,,,,,,,,,,,,,,,,,,,,,,,,,,,,,,,,7,8.0,f,019_m_f_n_a.jpg,neutral,s,3,1,81.01633330015466,81.31205498001073,81.5585407000035,81.58461357995402,81.58927130000666,81.63005157995504,81.63530170009471,82.22662378002424,s,1,81.63530170009471,82.22662378002424,82.23831930011511,83.77872428011615,0.576440499862656,576.440499862656,EMOCONPILOT016,2021_Jan_04_1202,EmoCon_Pilot_120Hz,2020.2.4,120.03476222004338,
,,,,0,0,0,0,8,0,8,0,,,,,,,,,,,,,,,,,,,,,,,,,,,,,,,,,,,,,,,,,,,,,,8,5.0,m,027_o_m_h_a.jpg,happy,d,17,1,83.78357350011356,84.07867598014418,84.29357820004225,84.45523578014691,84.45995070016943,84.50083257996012,84.50486350012943,85.06690348002594,d,1,84.50486350012943,85.06690348002594,85.07857030001469,86.80386138001923,0.5547529000323266,554.7529000323266,EMOCONPILOT016,2021_Jan_04_1202,EmoCon_Pilot_120Hz,2020.2.4,120.03476222004338,
,,,,0,0,0,0,9,0,9,0,,,,,,,,,,,,,,,,,,,,,,,,,,,,,,,,,,,,,,,,,,,,,,9,8.0,f,019_m_f_n_a.jpg,neutral,s,17,1,86.8093604000751,87.10386908000801,87.34942640014924,87.51709738017526,87.52177430014126,87.56282178002876,87.56787400017492,88.08617457996588,s,1,87.56787400017492,88.08617457996588,88.09664660017006,89.22054038003553,0.5077366998884827,507.7366998884827,EMOCONPILOT016,2021_Jan_04_1202,EmoCon_Pilot_120Hz,2020.2.4,120.03476222004338,
,,,,0,0,0,0,10,0,10,0,,,,,,,,,,,,,,,,,,,,,,,,,,,,,,,,,,,,,,,,,,,,,,10,11.0,f,030_o_f_h_a.jpg,happy,d,3,1,89.22592570004053,89.52059878006112,89.7232753999997,89.7497379800072,89.74998200009577,89.7855239800876,89.78585500014015,91.35514758008067,d,1,89.78585500014015,91.35514758008067,91.36458020005375,93.13729758018162,1.561647400027141,1561.647400027141,EMOCONPILOT016,2021_Jan_04_1202,EmoCon_Pilot_120Hz,2020.2.4,120.03476222004338,
,,,,0,0,0,0,11,0,11,0,,,,,,,,,,,,,,,,,,,,,,,,,,,,,,,,,,,,,,,,,,,,,,11,3.0,m,013_y_m_s_a.jpg,sad,a,17,1,93.14168020011857,93.43718807997648,93.53513480001129,93.6721627800027,93.67542660003528,93.71344858005178,93.71696780016646,94.73846498008352,a,1,93.71696780016646,94.73846498008352,94.74315200001001,95.82903098005336,1.0064655998721719,1006.4655998721719,EMOCONPILOT016,2021_Jan_04_1202,EmoCon_Pilot_120Hz,2020.2.4,120.03476222004338,
,,,,0,0,0,0,12,0,12,0,,,,,,,,,,,,,,,,,,,,,,,,,,,,,,,,,,,,,,,,,,,,,,12,12.0,f,040_y_f_n_a.jpg,neutral,s,17,1,95.83228520001285,96.12894528002944,96.3592234000098,96.51396398006473,96.51868350012228,96.55956408001948,96.56487310002558,97.58912698009517,s,1,96.56487310002558,97.58912698009517,97.60084019997157,98.94565947998781,1.014620800036937,1014.620800036937,EMOCONPILOT016,2021_Jan_04_1202,EmoCon_Pilot_120Hz,2020.2.4,120.03476222004338,
,,,,0,0,0,0,13,0,13,0,,,,,,,,,,,,,,,,,,,,,,,,,,,,,,,,,,,,,,,,,,,,,,13,12.0,f,040_y_f_h_a.jpg,happy,d,3,1,98.95114690018818,99.24567288013641,99.29331880016252,99.31525088001509,99.31715410016477,99.35510457998608,99.35514620016329,100.27474958000239,d,1,99.35514620016329,100.27474958000239,100.27770490013063,101.3123843799578,0.9123422999400645,912.3422999400645,EMOCONPILOT016,2021_Jan_04_1202,EmoCon_Pilot_120Hz,2020.2.4,120.03476222004338,
,,,,0,0,0,0,14,0,14,0,,,,,,,,,,,,,,,,,,,,,,,,,,,,,,,,,,,,,,,,,,,,,,14,7.0,f,012_o_f_h_a.jpg,happy,d,17,1,101.31646720017307,101.61239758010488,101.6367683999706,101.77240698009264,101.77520889998414,101.81369628005196,101.81682540010661,102.5873685799772,d,1,101.81682540010661,102.5873685799772,102.59386810008436,104.17068008000497,0.754814499989152,754.814499989152,EMOCONPILOT016,2021_Jan_04_1202,EmoCon_Pilot_120Hz,2020.2.4,120.03476222004338,
,,,,0,0,0,0,15,0,15,0,,,,,,,,,,,,,,,,,,,,,,,,,,,,,,,,,,,,,,,,,,,,,,15,9.0,f,021_o_f_n_a.jpg,neutral,s,17,1,104.17061999998987,104.47075388014783,104.69273960008286,104.84903158007656,104.8519717999734,104.88927758012433,104.89194510015659,105.55865448007826,s,1,104.89194510015659,105.55865448007826,105.56068590003997,106.99582708014641,0.6554545999970287,655.4545999970287,EMOCONPILOT016,2021_Jan_04_1202,EmoCon_Pilot_120Hz,2020.2.4,120.03476222004338,
,,,,0,0,0,0,16,0,16,0,,,,,,,,,,,,,,,,,,,,,,,,,,,,,,,,,,,,,,,,,,,,,,16,10.0,f,028_y_f_s_a.jpg,sad,a,3,1,107.00103839999065,107.29594138001558,107.32056390005164,107.34261838013772,107.34352550003678,107.38018008011859,107.38050070009194,108.11991248016712,a,1,107.38050070009194,108.11991248016712,108.12821720005013,109.3292427800363,0.7272316000889987,727.2316000889987,EMOCONPILOT016,2021_Jan_04_1202,EmoCon_Pilot_120Hz,2020.2.4,120.03476222004338,
,,,,0,0,0,0,17,0,17,0,,,,,,,,,,,,,,,,,,,,,,,,,,,,,,,,,,,,,,,,,,,,,,17,10.0,f,028_y_f_h_a.jpg,happy,d,3,1,109.33343160012737,109.62922028002795,109.65280649997294,109.67562767995987,109.6765585001558,109.71393898006063,109.71654599998146,110.7042194799753,d,1,109.71654599998146,110.7042194799753,110.70780039997771,112.45437127996702,0.9747412002179772,974.7412002179772,EMOCONPILOT016,2021_Jan_04_1202,EmoCon_Pilot_120Hz,2020.2.4,120.03476222004338,
,,,,0,0,0,0,18,0,18,0,,,,,,,,,,,,,,,,,,,,,,,,,,,,,,,,,,,,,,,,,,,,,,18,9.0,f,021_o_f_h_a.jpg,happy,d,3,1,112.4614713001065,112.75436518008355,113.01050760014914,113.03619038003963,113.03640300012194,113.07254157999996,113.07286920002662,114.59803118014243,None,0,113.07286920002662,114.59803118014243,114.60226500011049,116.4042488801526,,,EMOCONPILOT016,2021_Jan_04_1202,EmoCon_Pilot_120Hz,2020.2.4,120.03476222004338,
,,,,0,0,0,0,19,0,19,0,,,,,,,,,,,,,,,,,,,,,,,,,,,,,,,,,,,,,,,,,,,,,,19,6.0,m,033_o_m_h_a.jpg,happy,d,3,1,116.40724970004521,116.70436368014198,116.74438110017218,116.76867128016893,116.77292440016754,116.8134304801235,116.81857560016215,118.52907307997812,None,0,116.81857560016215,118.52907307997812,118.53403680003248,119.97117648010608,,,EMOCONPILOT016,2021_Jan_04_1202,EmoCon_Pilot_120Hz,2020.2.4,120.03476222004338,
,,,,0,0,0,0,20,0,20,0,,,,,,,,,,,,,,,,,,,,,,,,,,,,,,,,,,,,,,,,,,,,,,20,1.0,m,004_o_m_h_a.jpg,happy,d,3,1,119.97434179997072,120.27116548006889,120.510576199973,120.53800798014272,120.54147729999386,120.5804398799548,120.58576130005531,121.6810339800315,d,1,120.58576130005531,121.6810339800315,121.68678870005533,123.34622948004399,1.0816478999331594,1081.6478999331594,EMOCONPILOT016,2021_Jan_04_1202,EmoCon_Pilot_120Hz,2020.2.4,120.03476222004338,
,,,,0,0,0,0,21,0,21,0,,,,,,,,,,,,,,,,,,,,,,,,,,,,,,,,,,,,,,,,,,,,,,21,2.0,m,008_y_m_s_a.jpg,sad,a,3,1,123.35166200017557,123.64626958004665,123.88442700006999,123.90991407998372,123.91026560007595,123.94745108012576,123.9485629000701,124.78223158016336,a,1,123.9485629000701,124.78223158016336,124.78872240008786,125.9046247801045,0.8229130001273006,822.9130001273006,EMOCONPILOT016,2021_Jan_04_1202,EmoCon_Pilot_120Hz,2020.2.4,120.03476222004338,
,,,,0,0,0,0,22,0,22,0,,,,,,,,,,,,,,,,,,,,,,,,,,,,,,,,,,,,,,,,,,,,,,22,4.0,m,016_y_m_s_a.jpg,sad,a,3,1,125.9099219001364,126.20460998003837,126.23201460018754,126.25482627998572,126.25543370004743,126.29167078009341,126.29197040013969,127.15451357995626,a,1,126.29197040013969,127.15451357995626,127.16280390019529,128.74641307995188,0.847531900042668,847.531900042668,EMOCONPILOT016,2021_Jan_04_1202,EmoCon_Pilot_120Hz,2020.2.4,120.03476222004338,
,,,,0,0,0,0,23,0,23,0,,,,,,,,,,,,,,,,,,,,,,,,,,,,,,,,,,,,,,,,,,,,,,23,8.0,f,019_m_f_h_a.jpg,happy,d,17,1,128.75062890001573,129.04639497997704,129.07270859996788,129.2062664799625,129.20799050014466,129.24752828006166,129.25073540001176,129.84891358010935,d,1,129.25073540001176,129.84891358010935,129.85831130016595,130.89636318006086,0.5847506001591682,584.7506001591682,EMOCONPILOT016,2021_Jan_04_1202,EmoCon_Pilot_120Hz,2020.2.4,120.03476222004338,
,,,,0,0,0,0,24,0,24,0,,,,,,,,,,,,,,,,,,,,,,,,,,,,,,,,,,,,,,,,,,,,,,24,8.0,f,019_m_f_h_a.jpg,happy,d,17,1,130.90184740000404,131.196465680073,131.2198522000108,131.35637238009366,131.35986460000277,131.39767648016567,131.40058720018715,132.09479068003128,d,1,131.40058720018715,132.09479068003128,132.10575089999475,133.71316557999234,0.6829230000730604,682.9230000730604,EMOCONPILOT016,2021_Jan_04_1202,EmoCon_Pilot_120Hz,2020.2.4,120.03476222004338,
,,,,0,0,0,0,25,0,25,0,,,,,,,,,,,,,,,,,,,,,,,,,,,,,,,,,,,,,,,,,,,,,,25,4.0,m,016_y_m_n_a.jpg,neutral,s,3,1,133.7174383001402,134.01306998000945,134.2687179001514,134.29468938002827,134.2992701001931,134.3392968801083,134.34427330014296,135.22811757999006,s,1,134.34427330014296,135.22811757999006,135.23569110012613,136.67146658005657,0.8751688001211733,875.1688001211733,EMOCONPILOT016,2021_Jan_04_1202,EmoCon_Pilot_120Hz,2020.2.4,120.03476222004338,
,,,,0,0,0,0,26,0,26,0,,,,,,,,,,,,,,,,,,,,,,,,,,,,,,,,,,,,,,,,,,,,,,26,4.0,m,016_y_m_h_a.jpg,happy,d,3,1,136.67572319996543,136.97147478016558,137.00088659999892,137.02359847996848,137.02434790018015,137.05936418001073,137.0596499000676,138.0056963799754,d,1,137.0596499000676,138.0056963799754,138.0081301999744,139.77988297997507,0.9358085999265313,935.8085999265313,EMOCONPILOT016,2021_Jan_04_1202,EmoCon_Pilot_120Hz,2020.2.4,120.03476222004338,
,,,,0,0,0,0,27,0,27,0,,,,,,,,,,,,,,,,,,,,,,,,,,,,,,,,,,,,,,,,,,,,,,27,8.0,f,019_m_f_h_a.jpg,happy,d,17,1,139.7841553001199,140.07986998015548,140.10508860019036,140.23987258009146,140.24306210014038,140.28122018014545,140.2846564000938,140.6199398801429,d,1,140.2846564000938,140.6199398801429,140.63101130002178,142.154952080152,0.3269994000438601,326.9994000438601,EMOCONPILOT016,2021_Jan_04_1202,EmoCon_Pilot_120Hz,2020.2.4,120.03476222004338,
,,,,0,0,0,0,28,0,28,0,,,,,,,,,,,,,,,,,,,,,,,,,,,,,,,,,,,,,,,,,,,,,,28,8.0,f,019_m_f_s_a.jpg,sad,a,17,1,142.16050200001337,142.45497978006023,142.7066949000582,142.86567047999705,142.86920010019094,142.90623958006034,142.9091990001034,143.6198534801835,a,1,142.9091990001034,143.6198534801835,143.6283420000691,145.0300927801756,0.7023493000306189,702.3493000306189,EMOCONPILOT016,2021_Jan_04_1202,EmoCon_Pilot_120Hz,2020.2.4,120.03476222004338,
,,,,0,0,0,0,29,0,29,0,,,,,,,,,,,,,,,,,,,,,,,,,,,,,,,,,,,,,,,,,,,,,,29,10.0,f,028_y_f_n_a.jpg,neutral,s,3,1,145.03544300002977,145.33009418,145.53666860004887,145.5621618800098,145.56279220012948,145.59789138000923,145.59933570004068,146.29912528016138,s,1,145.59933570004068,146.29912528016138,146.30780940013938,147.8968158801319,0.6922152999322861,692.2152999322861,EMOCONPILOT016,2021_Jan_04_1202,EmoCon_Pilot_120Hz,2020.2.4,120.03476222004338,
,,,,0,0,0,0,30,0,30,0,,,,,,,,,,,,,,,,,,,,,,,,,,,,,,,,,,,,,,,,,,,,,,30,12.0,f,040_y_f_n_a.jpg,neutral,s,3,1,147.9020746999886,148.1967704800656,148.4184547001496,148.44359617999288,148.4438903001137,148.48132868011015,148.48248810018413,149.15548167999367,s,1,148.48248810018413,149.15548167999367,149.16709910007194,150.6218740799697,0.6653295001015067,665.3295001015067,EMOCONPILOT016,2021_Jan_04_1202,EmoCon_Pilot_120Hz,2020.2.4,120.03476222004338,
,,,,0,0,0,0,31,0,31,0,,,,,,,,,,,,,,,,,,,,,,,,,,,,,,,,,,,,,,,,,,,,,,31,5.0,m,027_o_m_n_a.jpg,neutral,s,3,1,150.6279168999754,150.9218126800144,151.1374538000673,151.1636883799685,151.16387480008416,151.20087758002336,151.20076770009473,151.87098288016858,s,1,151.20076770009473,151.87098288016858,151.87852820008993,152.89689688005018,0.6587171000428498,658.7171000428498,EMOCONPILOT016,2021_Jan_04_1202,EmoCon_Pilot_120Hz,2020.2.4,120.03476222004338,
,,,,0,0,0,0,32,0,32,0,,,,,,,,,,,,,,,,,,,,,,,,,,,,,,,,,,,,,,,,,,,,,,32,8.0,f,019_m_f_n_a.jpg,neutral,s,3,1,152.90013460000046,153.19679258011746,153.44241780019365,153.4679520800011,153.4682828001678,153.50413688009138,153.50559790013358,154.397291080025,s,1,153.50559790013358,154.397291080025,154.4036969000008,155.58865148008334,0.8818548999261111,881.8548999261111,EMOCONPILOT016,2021_Jan_04_1202,EmoCon_Pilot_120Hz,2020.2.4,120.03476222004338,
,,,,0,0,0,0,33,0,33,0,,,,,,,,,,,,,,,,,,,,,,,,,,,,,,,,,,,,,,,,,,,,,,33,4.0,m,016_y_m_n_a.jpg,neutral,s,17,1,155.59317610017024,155.88855068006086,156.1345033000689,156.28593877998645,156.28900830005296,156.3258290800033,156.32896990003064,156.8866351800272,s,1,156.32896990003064,156.8866351800272,156.89612750010565,158.09699418016243,0.546741500031203,546.741500031203,EMOCONPILOT016,2021_Jan_04_1202,EmoCon_Pilot_120Hz,2020.2.4,120.03476222004338,
,,,,0,0,0,0,34,0,34,0,,,,,,,,,,,,,,,,,,,,,,,,,,,,,,,,,,,,,,,,,,,,,,34,11.0,f,030_o_f_n_a.jpg,neutral,s,17,1,158.10261880001053,158.39695948006118,158.6058124001138,158.76385318015235,158.76772190001793,158.80764457995537,158.81242380011827,159.81508208012673,s,1,158.81242380011827,159.81508208012673,159.82137630018406,160.91367378009016,0.991015600040555,991.015600040555,EMOCONPILOT016,2021_Jan_04_1202,EmoCon_Pilot_120Hz,2020.2.4,120.03476222004338,
,,,,0,0,0,0,35,0,35,0,,,,,,,,,,,,,,,,,,,,,,,,,,,,,,,,,,,,,,,,,,,,,,35,9.0,f,021_o_f_h_a.jpg,happy,d,17,1,160.91674820007756,161.21357258006464,161.43260920001194,161.59359387999865,161.5983272001613,161.63940997996832,161.6445124000311,162.38832327995914,d,1,161.6445124000311,162.38832327995914,162.3997868001461,164.2803905801149,0.7271771000232548,727.1771000232548,EMOCONPILOT016,2021_Jan_04_1202,EmoCon_Pilot_120Hz,2020.2.4,120.03476222004338,
,,,,0,0,0,0,36,0,36,0,,,,,,,,,,,,,,,,,,,,,,,,,,,,,,,,,,,,,,,,,,,,,,36,11.0,f,030_o_f_s_a.jpg,sad,a,3,1,164.2843828999903,164.5804274800932,164.77601360017434,164.80228848003316,164.8030328999739,164.8399612800451,164.84130130009726,165.67710778017062,a,1,164.84130130009726,165.67710778017062,165.68484090012498,167.33047938013914,0.8261748000513762,826.1748000513762,EMOCONPILOT016,2021_Jan_04_1202,EmoCon_Pilot_120Hz,2020.2.4,120.03476222004338,
,,,,0,0,0,0,37,0,37,0,,,,,,,,,,,,,,,,,,,,,,,,,,,,,,,,,,,,,,,,,,,,,,37,12.0,f,040_y_f_n_a.jpg,neutral,s,17,1,167.33359130006284,167.6304622801719,167.85594619996846,168.009336680104,168.01361210015602,168.0538148800144,168.05877600004897,168.7613821799634,s,1,168.05877600004897,168.7613821799634,168.77363020018674,170.33877748011145,0.688781299861148,688.781299861148,EMOCONPILOT016,2021_Jan_04_1202,EmoCon_Pilot_120Hz,2020.2.4,120.03476222004338,
,,,,0,0,0,0,38,0,38,0,,,,,,,,,,,,,,,,,,,,,,,,,,,,,,,,,,,,,,,,,,,,,,38,9.0,f,021_o_f_s_a.jpg,sad,a,17,1,170.34183220006526,170.63883888015988,170.6631438001059,170.7988506801659,170.80241400003433,170.84011478016618,170.8440755000338,171.672641180153,a,1,170.8440755000338,171.672641180153,171.67516440013424,172.9389509800123,0.8154623999726027,815.4623999726027,EMOCONPILOT016,2021_Jan_04_1202,EmoCon_Pilot_120Hz,2020.2.4,120.03476222004338,
,,,,0,0,0,0,39,0,39,0,,,,,,,,,,,,,,,,,,,,,,,,,,,,,,,,,,,,,,,,,,,,,,39,4.0,m,016_y_m_n_a.jpg,neutral,s,17,1,172.9444505001884,173.239054080029,173.4760174001567,173.63396008003036,173.63746630004607,173.67432897996622,173.67854019999504,174.60417648002039,s,1,173.67854019999504,174.60417648002039,174.6125858000014,176.19734267999883,0.909027999965474,909.027999965474,EMOCONPILOT016,2021_Jan_04_1202,EmoCon_Pilot_120Hz,2020.2.4,120.03476222004338,
,,,,0,0,0,0,40,0,40,0,,,,,,,,,,,,,,,,,,,,,,,,,,,,,,,,,,,,,,,,,,,,,,40,9.0,f,021_o_f_s_a.jpg,sad,a,17,1,176.20271370001137,176.4973547800211,176.52152430010028,176.65733578002545,176.66120190010406,176.69867128010372,176.70196560001932,177.43113078007008,a,1,176.70196560001932,177.43113078007008,177.4418593000155,178.75583878012839,0.7177202999591827,717.7202999591827,EMOCONPILOT016,2021_Jan_04_1202,EmoCon_Pilot_120Hz,2020.2.4,120.03476222004338,
,,,,0,0,0,0,41,0,41,0,,,,,,,,,,,,,,,,,,,,,,,,,,,,,,,,,,,,,,,,,,,,,,41,11.0,f,030_o_f_h_a.jpg,happy,d,3,1,178.76117720012553,179.0557439801516,179.25540660019033,179.28183588006067,179.28227860014886,179.31691798001992,179.31711110007018,180.1863251800416,d,1,179.31711110007018,180.1863251800416,180.19678510003723,181.28893948013427,0.8544715000316501,854.4715000316501,EMOCONPILOT016,2021_Jan_04_1202,EmoCon_Pilot_120Hz,2020.2.4,120.03476222004338,
,,,,0,0,0,0,42,0,42,0,,,,,,,,,,,,,,,,,,,,,,,,,,,,,,,,,,,,,,,,,,,,,,42,4.0,m,016_y_m_h_a.jpg,happy,d,3,1,181.28966570016928,181.589092180063,181.61432479997166,181.6376116801286,181.6393130000215,181.67566658013965,181.6766602001153,182.63332968011963,d,1,181.6766602001153,182.63332968011963,182.6401534001343,184.50595347995403,0.9428043998777866,942.8043998777866,EMOCONPILOT016,2021_Jan_04_1202,EmoCon_Pilot_120Hz,2020.2.4,120.03476222004338,
,,,,0,0,0,0,43,0,43,0,,,,,,,,,,,,,,,,,,,,,,,,,,,,,,,,,,,,,,,,,,,,,,43,1.0,m,004_o_m_s_a.jpg,sad,a,3,1,184.51115210005082,184.80585687996353,184.8312950001564,184.8540046801092,184.85485910018906,184.89023697997908,184.88992059999146,186.1894888800336,s,0,184.88992059999146,186.1894888800336,186.1942996000871,187.30588838008697,1.2896471999119967,1289.6471999119967,EMOCONPILOT016,2021_Jan_04_1202,EmoCon_Pilot_120Hz,2020.2.4,120.03476222004338,
,,,,0,0,0,0,44,0,44,0,,,,,,,,,,,,,,,,,,,,,,,,,,,,,,,,,,,,,,,,,,,,,,44,4.0,m,016_y_m_h_a.jpg,happy,d,3,1,187.31015050015412,187.60588998014572,187.62702650018036,187.64959308009128,187.65039510000497,187.68423118016216,187.68464870005846,188.22298548014368,d,1,187.68464870005846,188.22298548014368,188.22895050002262,189.83096588000188,0.5268393999431282,526.8393999431282,EMOCONPILOT016,2021_Jan_04_1202,EmoCon_Pilot_120Hz,2020.2.4,120.03476222004338,
,,,,0,0,0,0,45,0,45,0,,,,,,,,,,,,,,,,,,,,,,,,,,,,,,,,,,,,,,,,,,,,,,45,7.0,f,012_o_f_s_a.jpg,sad,a,17,1,189.83515800000168,190.13096238013821,190.15652800002135,190.29094408003147,190.29474549996667,190.333628880023,190.33877769997343,191.04142598009201,a,1,190.33877769997343,191.04142598009201,191.0481785000302,192.8477951799752,0.6888498000334948,688.8498000334948,EMOCONPILOT016,2021_Jan_04_1202,EmoCon_Pilot_120Hz,2020.2.4,120.03476222004338,
,,,,0,0,0,0,46,0,46,0,,,,,,,,,,,,,,,,,,,,,,,,,,,,,,,,,,,,,,,,,,,,,,46,8.0,f,019_m_f_n_a.jpg,neutral,s,17,1,192.8535123001784,193.14771187996956,193.40736710000783,193.563420380163,193.56736470013857,193.60740698005537,193.61228710017167,194.6519807799952,s,1,193.61228710017167,194.6519807799952,194.66062910016626,195.81443437996785,1.0312409000471234,1031.2409000471234,EMOCONPILOT016,2021_Jan_04_1202,EmoCon_Pilot_120Hz,2020.2.4,120.03476222004338,
,,,,0,0,0,0,47,0,47,0,,,,,,,,,,,,,,,,,,,,,,,,,,,,,,,,,,,,,,,,,,,,,,47,2.0,m,008_y_m_h_a.jpg,happy,d,3,1,195.8200155000668,196.11444427997338,196.15863130008802,196.1806489801267,196.18147730012424,196.21693568017798,196.2183578000404,196.8066848799819,d,1,196.2183578000404,196.8066848799819,196.81242169998586,197.85610848006326,0.5771387000568211,577.1387000568211,EMOCONPILOT016,2021_Jan_04_1202,EmoCon_Pilot_120Hz,2020.2.4,120.03476222004338,
,,,,0,0,0,0,48,0,48,0,,,,,,,,,,,,,,,,,,,,,,,,,,,,,,,,,,,,,,,,,,,,,,48,12.0,f,040_y_f_n_a.jpg,neutral,s,17,1,197.86009810003452,198.15612548000644,198.37840420007706,198.53158518013078,198.5363640000578,198.57711328000295,198.58068390004337,199.15090488006825,s,1,198.58068390004337,199.15090488006825,199.16140970005654,200.44787568009923,0.5590548000764102,559.0548000764102,EMOCONPILOT016,2021_Jan_04_1202,EmoCon_Pilot_120Hz,2020.2.4,120.03476222004338,
,,,,0,0,0,0,49,0,49,0,,,,,,,,,,,,,,,,,,,,,,,,,,,,,,,,,,,,,,,,,,,,,,49,11.0,f,030_o_f_n_a.jpg,neutral,s,3,1,200.4534073001705,200.74787768016103,200.95767659996636,200.9839496800443,200.98396089999005,201.0201001799898,201.0198800000362,201.60507128008175,s,1,201.0198800000362,201.60507128008175,201.61238960013725,203.547980080056,0.5757870001252741,575.7870001252741,EMOCONPILOT016,2021_Jan_04_1202,EmoCon_Pilot_120Hz,2020.2.4,120.03476222004338,
,,,,0,0,0,0,50,0,50,0,,,,,,,,,,,,,,,,,,,,,,,,,,,,,,,,,,,,,,,,,,,,,,50,8.0,f,019_m_f_h_a.jpg,happy,d,3,1,203.55120950005949,203.8478870800929,203.8691200001631,203.89173668010625,203.89226190000772,203.9265952801099,203.92801080015488,204.8690927800955,d,1,203.92801080015488,204.8690927800955,204.87756000016816,206.52298858009743,0.9315412999130785,931.5412999130785,EMOCONPILOT016,2021_Jan_04_1202,EmoCon_Pilot_120Hz,2020.2.4,120.03476222004338,
,,,,0,0,0,0,51,0,51,0,,,,,,,,,,,,,,,,,,,,,,,,,,,,,,,,,,,,,,,,,,,,,,51,8.0,f,019_m_f_n_a.jpg,neutral,s,3,1,206.5260587001685,206.8228948800126,207.07149600004777,207.0962707800092,207.09673109999858,207.1333403800847,207.13287560013123,207.8036275801016,s,1,207.13287560013123,207.8036275801016,207.81108959997073,208.83125938002485,0.6628173000644892,662.8173000644892,EMOCONPILOT016,2021_Jan_04_1202,EmoCon_Pilot_120Hz,2020.2.4,120.03476222004338,
,,,,0,0,0,0,52,0,52,0,,,,,,,,,,,,,,,,,,,,,,,,,,,,,,,,,,,,,,,,,,,,,,52,12.0,f,040_y_f_n_a.jpg,neutral,s,3,1,208.83440500008874,209.13137268011923,209.34982810006477,209.3753125799587,209.3758404001128,209.4102750801714,209.41185570019297,210.58001698011066,s,1,209.41185570019297,210.58001698011066,210.59233440016396,211.6898049799958,1.1520030999090523,1152.0030999090523,EMOCONPILOT016,2021_Jan_04_1202,EmoCon_Pilot_120Hz,2020.2.4,120.03476222004338,
,,,,0,0,0,0,53,0,53,0,,,,,,,,,,,,,,,,,,,,,,,,,,,,,,,,,,,,,,,,,,,,,,53,9.0,f,021_o_f_h_a.jpg,happy,d,17,1,211.69527490017936,211.98982968011404,212.20388850010931,212.37370727995875,212.37846190016717,212.41844808000604,212.42300299997441,213.1872467800742,d,1,212.42300299997441,213.1872467800742,213.1949558001943,214.76483728007878,0.7487616001162678,748.7616001162678,EMOCONPILOT016,2021_Jan_04_1202,EmoCon_Pilot_120Hz,2020.2.4,120.03476222004338,
,,,,0,0,0,0,54,0,54,0,,,,,,,,,,,,,,,,,,,,,,,,,,,,,,,,,,,,,,,,,,,,,,54,2.0,m,008_y_m_n_a.jpg,neutral,s,3,1,214.76766390004195,215.0647260799771,215.3045080001466,215.33036088005173,215.33429790008813,215.37434758006128,215.3795471000485,216.3152187801199,a,0,215.3795471000485,216.3152187801199,216.32596789998934,217.3732388801174,0.9199908000882715,919.9908000882715,EMOCONPILOT016,2021_Jan_04_1202,EmoCon_Pilot_120Hz,2020.2.4,120.03476222004338,
,,,,0,0,0,0,55,0,55,0,,,,,,,,,,,,,,,,,,,,,,,,,,,,,,,,,,,,,,,,,,,,,,55,10.0,f,028_y_f_n_a.jpg,neutral,s,3,1,217.37850820017047,217.67325488005298,217.8745902001392,217.90018778007942,217.90116380015388,217.93631988011765,217.93797420011833,219.02723238004836,a,0,217.93797420011833,219.02723238004836,219.03492800006643,220.34834188006351,1.0736686000600457,1073.6686000600457,EMOCONPILOT016,2021_Jan_04_1202,EmoCon_Pilot_120Hz,2020.2.4,120.03476222004338,
,,,,0,0,0,0,56,0,56,0,,,,,,,,,,,,,,,,,,,,,,,,,,,,,,,,,,,,,,,,,,,,,,56,12.0,f,040_y_f_h_a.jpg,happy,d,17,1,220.35246750013903,220.64825028011109,220.6731777000241,220.8082095800666,220.81105100014247,220.849490879965,220.8525949001778,221.50695257999467,d,1,220.8525949001778,221.50695257999467,221.51519950013608,222.96499238016548,0.6391160998027772,639.1160998027772,EMOCONPILOT016,2021_Jan_04_1202,EmoCon_Pilot_120Hz,2020.2.4,120.03476222004338,
,,,,0,0,0,0,57,0,57,0,,,,,,,,,,,,,,,,,,,,,,,,,,,,,,,,,,,,,,,,,,,,,,57,2.0,m,008_y_m_n_a.jpg,neutral,s,3,1,222.9702944001183,223.26497858010697,223.50893680006266,223.53483357995282,223.5348577001132,223.5702563800616,223.570311000105,224.88340928002725,s,1,223.570311000105,224.88340928002725,224.8900393000804,226.05678308003115,1.3051390000618994,1305.1390000618994,EMOCONPILOT016,2021_Jan_04_1202,EmoCon_Pilot_120Hz,2020.2.4,120.03476222004338,
,,,,0,0,0,0,58,0,58,0,,,,,,,,,,,,,,,,,,,,,,,,,,,,,,,,,,,,,,,,,,,,,,58,9.0,f,021_o_f_n_a.jpg,neutral,s,17,1,226.06199710001238,226.3568379801465,226.5668922001496,226.73517138015012,226.73988060001284,226.78065128012094,226.785778200021,227.27592398009728,s,1,226.785778200021,227.27592398009728,227.2868662001565,228.89019107997882,0.4740455001592636,474.0455001592636,EMOCONPILOT016,2021_Jan_04_1202,EmoCon_Pilot_120Hz,2020.2.4,120.03476222004338,
,,,,0,0,0,0,59,0,59,0,,,,,,,,,,,,,,,,,,,,,,,,,,,,,,,,,,,,,,,,,,,,,,59,4.0,m,016_y_m_n_a.jpg,neutral,s,3,1,228.89462000015192,229.19010708008426,229.41805590013973,229.44315518012735,229.44406930007972,229.48271028015296,229.48775280010886,230.49735658003482,s,1,229.48775280010886,230.49735658003482,230.50861140014604,231.89853088015224,0.9958740000147372,995.8740000147372,EMOCONPILOT016,2021_Jan_04_1202,EmoCon_Pilot_120Hz,2020.2.4,120.03476222004338,
,,,,0,0,0,0,60,0,60,0,,,,,,,,,,,,,,,,,,,,,,,,,,,,,,,,,,,,,,,,,,,,,,60,6.0,m,033_o_m_s_a.jpg,sad,a,3,1,231.90379010001197,232.19862587999086,232.22399300010875,232.24609757999423,232.2467791000381,232.2831056801835,232.28426380013116,233.07340188014786,s,0,232.28426380013116,233.07340188014786,233.0847148001194,234.14024927995632,0.775382700143382,775.382700143382,EMOCONPILOT016,2021_Jan_04_1202,EmoCon_Pilot_120Hz,2020.2.4,120.03476222004338,
,,,,0,0,0,0,61,0,61,0,,,,,,,,,,,,,,,,,,,,,,,,,,,,,,,,,,,,,,,,,,,,,,61,7.0,f,012_o_f_n_a.jpg,neutral,s,17,1,234.1433771001175,234.44024298007133,234.6632783000823,234.82589488003867,234.83020500000566,234.87100628011393,234.87621180014685,235.4177147801267,s,1,234.87621180014685,235.4177147801267,235.42891790019348,236.4819538799813,0.5274404999800026,527.4404999800026,EMOCONPILOT016,2021_Jan_04_1202,EmoCon_Pilot_120Hz,2020.2.4,120.03476222004338,
,,,,0,0,0,0,62,0,62,0,,,,,,,,,,,,,,,,,,,,,,,,,,,,,,,,,,,,,,,,,,,,,,62,2.0,m,008_y_m_h_a.jpg,happy,d,17,1,236.4850974001456,236.78185868000145,236.80325370002538,236.93367718013468,236.93844300019555,236.97905608003492,236.98430110001937,237.50884837999473,d,1,236.98430110001937,237.50884837999473,237.51713549997658,238.62363638000096,0.515355700161308,515.355700161308,EMOCONPILOT016,2021_Jan_04_1202,EmoCon_Pilot_120Hz,2020.2.4,120.03476222004338,
,,,,0,0,0,0,63,0,63,0,,,,,,,,,,,,,,,,,,,,,,,,,,,,,,,,,,,,,,,,,,,,,,63,10.0,f,028_y_f_h_a.jpg,happy,d,3,1,238.6261120000854,238.92360418003517,238.93490640004165,238.95789548002648,238.9586589001119,238.9937251800904,238.99557709996589,239.86674027999396,d,1,238.99557709996589,239.86674027999396,239.87394209997728,241.47381238003726,0.8640785000752658,864.0785000752658,EMOCONPILOT016,2021_Jan_04_1202,EmoCon_Pilot_120Hz,2020.2.4,120.03476222004338,
,,,,0,0,0,0,64,0,64,0,,,,,,,,,,,,,,,,,,,,,,,,,,,,,,,,,,,,,,,,,,,,,,64,4.0,m,016_y_m_h_a.jpg,happy,d,3,1,241.4780044001527,241.7738406801829,241.7972409001086,241.82048877996857,241.8211785000749,241.85814178006257,241.8583925999701,242.60122297999914,d,1,241.8583925999701,242.60122297999914,242.61240910016932,243.84048008003737,0.7293997001834214,729.3997001834214,EMOCONPILOT016,2021_Jan_04_1202,EmoCon_Pilot_120Hz,2020.2.4,120.03476222004338,
,,,,0,0,0,0,65,0,65,0,,,,,,,,,,,,,,,,,,,,,,,,,,,,,,,,,,,,,,,,,,,,,,65,9.0,f,021_o_f_s_a.jpg,sad,a,3,1,243.84601239999756,244.14047528004738,244.16565460013226,244.18809988016727,244.18867660011165,244.22493528008926,244.22476010001265,244.8174403800396,d,0,244.22476010001265,244.8174403800396,244.82423310005106,246.73188808017875,0.5789135999511927,578.9135999511927,EMOCONPILOT016,2021_Jan_04_1202,EmoCon_Pilot_120Hz,2020.2.4,120.03476222004338,
,,,,0,0,0,0,66,0,66,0,,,,,,,,,,,,,,,,,,,,,,,,,,,,,,,,,,,,,,,,,,,,,,66,7.0,f,012_o_f_h_a.jpg,happy,d,17,1,246.73193740006536,247.03219528000335,247.05314920004457,247.1838913801359,247.1874866001308,247.2251384800067,247.22816890012473,247.80997968015726,d,1,247.22816890012473,247.80997968015726,247.81913940003142,249.49066278005483,0.567548600025475,567.548600025475,EMOCONPILOT016,2021_Jan_04_1202,EmoCon_Pilot_120Hz,2020.2.4,120.03476222004338,
,,,,0,0,0,0,67,0,67,0,,,,,,,,,,,,,,,,,,,,,,,,,,,,,,,,,,,,,,,,,,,,,,67,9.0,f,021_o_f_h_a.jpg,happy,d,3,1,249.4962312001735,249.79059068013447,250.0257296001073,250.05195188003125,250.0519246000331,250.08690708007197,250.08761829999276,250.85678637998643,d,1,250.08761829999276,250.85678637998643,250.86541380011477,252.34062738011124,0.7559724999591708,755.9724999591708,EMOCONPILOT016,2021_Jan_04_1202,EmoCon_Pilot_120Hz,2020.2.4,120.03476222004338,
,,,,0,0,0,0,68,0,68,0,,,,,,,,,,,,,,,,,,,,,,,,,,,,,,,,,,,,,,,,,,,,,,68,8.0,f,019_m_f_h_a.jpg,happy,d,17,1,252.34647600003518,252.6407124799909,252.66659560007975,252.80058497998397,252.80380250001326,252.8418926800834,252.84516310016625,253.29906188014428,d,1,252.84516310016625,253.29906188014428,253.30974759999663,254.39056288001592,0.4384606000967324,438.4606000967324,EMOCONPILOT016,2021_Jan_04_1202,EmoCon_Pilot_120Hz,2020.2.4,120.03476222004338,
,,,,0,0,0,0,69,0,69,0,,,,,,,,,,,,,,,,,,,,,,,,,,,,,,,,,,,,,,,,,,,,,,69,9.0,f,021_o_f_s_a.jpg,sad,a,17,1,254.39324220013805,254.69058127996976,254.71095990017056,254.8423143801512,254.84694420010783,254.88756387999746,254.89277130016126,255.45256038003134,s,0,254.89277130016126,255.45256038003134,255.45456960005686,256.724093580083,0.5429849999491125,542.9849999491125,EMOCONPILOT016,2021_Jan_04_1202,EmoCon_Pilot_120Hz,2020.2.4,120.03476222004338,
,,,,0,0,0,0,70,0,70,0,,,,,,,,,,,,,,,,,,,,,,,,,,,,,,,,,,,,,,,,,,,,,,70,2.0,m,008_y_m_h_a.jpg,happy,d,17,1,256.7284221001901,257.02405168015974,257.04836080013774,257.1841008799849,257.18888360005803,257.22959438005927,257.23492600000463,258.0504317799816,d,1,257.23492600000463,258.0504317799816,258.06177080003545,259.64918098009656,0.8007642000447959,800.7642000447959,EMOCONPILOT016,2021_Jan_04_1202,EmoCon_Pilot_120Hz,2020.2.4,120.03476222004338,
,,,,0,0,0,0,71,0,71,0,,,,,,,,,,,,,,,,,,,,,,,,,,,,,,,,,,,,,,,,,,,,,,71,1.0,m,004_o_m_h_a.jpg,happy,d,3,1,259.65355190006085,259.94919378000776,260.15798700018786,260.18300538014154,260.1831307001412,260.2193541800836,260.2190897001419,260.90718678005504,d,1,260.2190897001419,260.90718678005504,260.9148121001199,262.3991965799825,0.6804499998688698,680.4499998688698,EMOCONPILOT016,2021_Jan_04_1202,EmoCon_Pilot_120Hz,2020.2.4,120.03476222004338,
,,,,0,0,0,0,72,0,72,0,,,,,,,,,,,,,,,,,,,,,,,,,,,,,,,,,,,,,,,,,,,,,,72,11.0,f,030_o_f_h_a.jpg,happy,d,3,1,262.4033468000125,262.699186979956,262.90481139998883,262.93098387999925,262.9311778000556,262.96705708017106,262.96695590019226,263.76493388011585,d,1,262.96695590019226,263.76493388011585,263.7686276000459,265.63265768012496,0.7885878998786211,788.5878998786211,EMOCONPILOT016,2021_Jan_04_1202,EmoCon_Pilot_120Hz,2020.2.4,120.03476222004338,
,,,,0,0,0,0,73,0,73,0,,,,,,,,,,,,,,,,,,,,,,,,,,,,,,,,,,,,,,,,,,,,,,73,8.0,f,019_m_f_s_a.jpg,sad,a,17,1,265.6369666000828,265.93268088011536,266.17747680004686,266.3389284800971,266.34381120000035,266.38487187998834,266.3899364999961,267.09216388005296,a,1,266.3899364999961,267.09216388005296,267.10361870005727,268.9660396801075,0.6937214999925345,693.7214999925345,EMOCONPILOT016,2021_Jan_04_1202,EmoCon_Pilot_120Hz,2020.2.4,120.03476222004338,
,,,,0,0,0,0,74,0,74,0,,,,,,,,,,,,,,,,,,,,,,,,,,,,,,,,,,,,,,,,,,,,,,74,5.0,m,027_o_m_h_a.jpg,happy,d,17,1,268.97026580013335,269.2660628800979,269.47739760018885,269.63910978001076,269.64377439999953,269.6848574801581,269.6896901000291,270.16738208003807,d,1,269.6896901000291,270.16738208003807,270.17195620015264,271.62431428015697,0.46583779994398355,465.83779994398355,EMOCONPILOT016,2021_Jan_04_1202,EmoCon_Pilot_120Hz,2020.2.4,120.03476222004338,
,,,,0,0,0,0,75,0,75,0,,,,,,,,,,,,,,,,,,,,,,,,,,,,,,,,,,,,,,,,,,,,,,75,8.0,f,019_m_f_s_a.jpg,sad,a,3,1,271.6261327001266,271.92443527996073,272.1662638001144,272.1928147800965,272.1960563000757,272.2344195800135,272.2398184000049,272.8424773799954,a,1,272.2398184000049,272.8424773799954,272.84786149999127,274.65780898013617,0.5957461001817137,595.7461001817137,EMOCONPILOT016,2021_Jan_04_1202,EmoCon_Pilot_120Hz,2020.2.4,120.03476222004338,
,,,,0,0,0,0,76,0,76,0,,,,,,,,,,,,,,,,,,,,,,,,,,,,,,,,,,,,,,,,,,,,,,76,7.0,f,012_o_f_n_a.jpg,neutral,s,3,1,274.6617068001069,274.9578245800687,275.1940264001023,275.22255077997687,275.2230905999895,275.25900878005194,275.2588428000454,275.8519977800781,s,1,275.2588428000454,275.8519977800781,275.8633100001607,277.38280517996753,0.5770872000139207,577.0872000139207,EMOCONPILOT016,2021_Jan_04_1202,EmoCon_Pilot_120Hz,2020.2.4,120.03476222004338,
,,,,0,0,0,0,77,0,77,0,,,,,,,,,,,,,,,,,,,,,,,,,,,,,,,,,,,,,,,,,,,,,,77,6.0,m,033_o_m_s_a.jpg,sad,a,3,1,277.3860424000304,277.682817380107,277.69915870018303,277.72109807997475,277.72174490010366,277.7590711800614,277.76111560012214,279.3652360801818,None,0,277.76111560012214,279.3652360801818,279.36568600009196,281.199571380089,,,EMOCONPILOT016,2021_Jan_04_1202,EmoCon_Pilot_120Hz,2020.2.4,120.03476222004338,
,,,,0,0,0,0,78,0,78,0,,,,,,,,,,,,,,,,,,,,,,,,,,,,,,,,,,,,,,,,,,,,,,78,1.0,m,004_o_m_h_a.jpg,happy,d,3,1,281.20340460003354,281.49958568012806,281.70945640001446,281.73459228004793,281.7353856000118,281.7711064800853,281.7714057001285,282.3773847801378,d,1,281.7714057001285,282.3773847801378,282.3845083999913,284.0663713800488,0.5922673000022769,592.2673000022769,EMOCONPILOT016,2021_Jan_04_1202,EmoCon_Pilot_120Hz,2020.2.4,120.03476222004338,
,,,,0,0,0,0,79,0,79,0,,,,,,,,,,,,,,,,,,,,,,,,,,,,,,,,,,,,,,,,,,,,,,79,5.0,m,027_o_m_s_a.jpg,sad,a,17,1,284.0702500999905,284.36640528000424,284.3888902000617,284.52643428014125,284.53117349999957,284.57092478002886,284.57533090002835,285.2372818800388,a,1,284.57533090002835,285.2372818800388,285.2474114999641,286.2664635800058,0.644569099880755,644.569099880755,EMOCONPILOT016,2021_Jan_04_1202,EmoCon_Pilot_120Hz,2020.2.4,120.03476222004338,
,,,,0,0,0,0,80,0,80,0,,,,,,,,,,,,,,,,,,,,,,,,,,,,,,,,,,,,,,,,,,,,,,80,9.0,f,021_o_f_s_a.jpg,sad,a,3,1,286.2721146000549,286.5663780799834,286.5864309000317,286.6087563800858,286.6095845999662,286.6452145801624,286.64488789997995,287.5222266800003,s,0,286.64488789997995,287.5222266800003,287.5290338001214,289.09964267995673,0.8628092999570072,862.8092999570072,EMOCONPILOT016,2021_Jan_04_1202,EmoCon_Pilot_120Hz,2020.2.4,120.03476222004338,
,,,,0,0,0,0,81,0,81,0,,,,,,,,,,,,,,,,,,,,,,,,,,,,,,,,,,,,,,,,,,,,,,81,5.0,m,027_o_m_s_a.jpg,sad,a,17,1,289.10248270002194,289.3996539799729,289.4188739999663,289.5514110801043,289.555211200146,289.59267147995996,289.59599770000204,290.02087887998204,a,1,289.59599770000204,290.02087887998204,290.0274657001719,291.89979367998893,0.41555979987606406,415.55979987606406,EMOCONPILOT016,2021_Jan_04_1202,EmoCon_Pilot_120Hz,2020.2.4,120.03476222004338,
,,,,0,0,0,0,82,0,82,0,,,,,,,,,,,,,,,,,,,,,,,,,,,,,,,,,,,,,,,,,,,,,,82,7.0,f,012_o_f_h_a.jpg,happy,d,3,1,291.90550760016777,292.19984638008754,292.2220044999849,292.24467708000446,292.2463041001465,292.28427488000597,292.2844026000239,292.97932618011254,a,0,292.2844026000239,292.97932618011254,292.9914993001148,294.74993187997023,0.6792821001727134,679.2821001727134,EMOCONPILOT016,2021_Jan_04_1202,EmoCon_Pilot_120Hz,2020.2.4,120.03476222004338,
,,,,0,0,0,0,83,0,83,0,,,,,,,,,,,,,,,,,,,,,,,,,,,,,,,,,,,,,,,,,,,,,,83,3.0,m,013_y_m_s_a.jpg,sad,a,17,1,294.75408330000937,295.0499119799817,295.07006760011427,295.2014207799686,295.2046124001499,295.24272558016236,295.24572360003367,295.9307043800829,a,1,295.24572360003367,295.9307043800829,295.93902639998123,297.37497948009985,0.66988670011051,669.88670011051,EMOCONPILOT016,2021_Jan_04_1202,EmoCon_Pilot_120Hz,2020.2.4,120.03476222004338,
,,,,0,0,0,0,84,0,84,0,,,,,,,,,,,,,,,,,,,,,,,,,,,,,,,,,,,,,,,,,,,,,,84,5.0,m,027_o_m_s_a.jpg,sad,a,3,1,297.37928880006075,297.6749175800243,297.6966592001263,297.7196304799756,297.720166800078,297.7593518799869,297.7603327999823,298.1805023801746,a,1,297.7603327999823,298.1805023801746,298.19120510015637,299.24994757997337,0.41144159995019436,411.44159995019436,EMOCONPILOT016,2021_Jan_04_1202,EmoCon_Pilot_120Hz,2020.2.4,120.03476222004338,
,,,,0,0,0,0,85,0,85,0,,,,,,,,,,,,,,,,,,,,,,,,,,,,,,,,,,,,,,,,,,,,,,85,4.0,m,016_y_m_s_a.jpg,sad,a,17,1,299.25393250002526,299.55005648003424,299.57353510009125,299.7099763801554,299.71471950015984,299.7554451801581,299.7606836000923,300.412795080035,a,1,299.7606836000923,300.412795080035,300.4253438001033,301.908371880115,0.6352182000409812,635.2182000409812,EMOCONPILOT016,2021_Jan_04_1202,EmoCon_Pilot_120Hz,2020.2.4,120.03476222004338,
,,,,0,0,0,0,86,0,86,0,,,,,,,,,,,,,,,,,,,,,,,,,,,,,,,,,,,,,,,,,,,,,,86,5.0,m,027_o_m_n_a.jpg,neutral,s,17,1,301.9126017000526,302.2084837799659,302.4426862001419,302.60553958003874,302.6102363001555,302.6503511801595,302.6552288001403,303.4114390799543,s,1,302.6552288001403,303.4114390799543,303.4173696001526,304.6917211801512,0.7482901001349092,748.2901001349092,EMOCONPILOT016,2021_Jan_04_1202,EmoCon_Pilot_120Hz,2020.2.4,120.03476222004338,
,,,,0,0,0,0,87,0,87,0,,,,,,,,,,,,,,,,,,,,,,,,,,,,,,,,,,,,,,,,,,,,,,87,3.0,m,013_y_m_h_a.jpg,happy,d,3,1,304.69459730014205,304.99173288017045,305.2325087999925,305.2570842801826,305.2575240000151,305.29283588000106,305.2939695001114,305.91802848007063,d,1,305.2939695001114,305.91802848007063,305.9242706000805,307.48357258008326,0.6136564000044018,613.6564000044018,EMOCONPILOT016,2021_Jan_04_1202,EmoCon_Pilot_120Hz,2020.2.4,120.03476222004338,
,,,,0,0,0,0,88,0,88,0,,,,,,,,,,,,,,,,,,,,,,,,,,,,,,,,,,,,,,,,,,,,,,88,5.0,m,027_o_m_s_a.jpg,sad,a,3,1,307.48934550001286,307.7835772800492,307.8090373000596,307.8315673800418,307.83226120006293,307.8679791799979,307.8677003001794,309.0376231800066,a,1,307.8677003001794,309.0376231800066,309.0502983001061,310.78364988013635,1.160175200086087,1160.175200086087,EMOCONPILOT016,2021_Jan_04_1202,EmoCon_Pilot_120Hz,2020.2.4,120.03476222004338,
,,,,0,0,0,0,89,0,89,0,,,,,,,,,,,,,,,,,,,,,,,,,,,,,,,,,,,,,,,,,,,,,,89,5.0,m,027_o_m_s_a.jpg,sad,a,3,1,310.78820320009254,311.08344147999304,311.1047604000196,311.12726428003515,311.12897830014117,311.1657980800839,311.1674027000554,311.89117338012437,a,1,311.1674027000554,311.89117338012437,311.8994766001124,313.60849968011024,0.7083491000812501,708.3491000812501,EMOCONPILOT016,2021_Jan_04_1202,EmoCon_Pilot_120Hz,2020.2.4,120.03476222004338,
,,,,0,0,0,0,90,0,90,0,,,,,,,,,,,,,,,,,,,,,,,,,,,,,,,,,,,,,,,,,,,,,,90,12.0,f,040_y_f_s_a.jpg,sad,a,17,1,313.61131020006724,313.9086305801058,313.935140500078,314.06860148014965,314.07087739999406,314.10985048015135,314.1115023000166,315.27760008017066,a,1,314.1115023000166,315.27760008017066,315.28243899997324,316.3170737800421,1.1560657999943942,1156.0657999943942,EMOCONPILOT016,2021_Jan_04_1202,EmoCon_Pilot_120Hz,2020.2.4,120.03476222004338,
,,,,0,0,0,0,91,0,91,0,,,,,,,,,,,,,,,,,,,,,,,,,,,,,,,,,,,,,,,,,,,,,,91,3.0,m,013_y_m_n_a.jpg,neutral,s,17,1,316.32126890006475,316.61708368004764,316.8697114000097,317.03028928015846,317.0343633000739,317.0712985800812,317.0732535000425,317.603077880037,s,1,317.0732535000425,317.603077880037,317.61071950010955,319.3920956800459,0.5145570000167936,514.5570000167936,EMOCONPILOT016,2021_Jan_04_1202,EmoCon_Pilot_120Hz,2020.2.4,120.03476222004338,
,,,,0,0,0,0,92,0,92,0,,,,,,,,,,,,,,,,,,,,,,,,,,,,,,,,,,,,,,,,,,,,,,92,12.0,f,040_y_f_s_a.jpg,sad,a,3,1,319.3963067000732,319.69211688002105,319.71745240013115,319.73981928003485,319.74046690016985,319.776626879978,319.77670300006866,320.5245743800653,s,0,319.77670300006866,320.5245743800653,320.536196900066,321.9754733801121,0.7391379000619054,739.1379000619054,EMOCONPILOT016,2021_Jan_04_1202,EmoCon_Pilot_120Hz,2020.2.4,120.03476222004338,
,,,,0,0,0,0,93,0,93,0,,,,,,,,,,,,,,,,,,,,,,,,,,,,,,,,,,,,,,,,,,,,,,93,6.0,m,033_o_m_s_a.jpg,sad,a,3,1,321.9808494001627,322.2755557800876,322.2978856000118,322.32066428002435,322.321617100155,322.35997338003943,322.3613978000358,323.0735313800862,s,0,322.3613978000358,323.0735313800862,323.08290040004067,324.1839015799807,0.698282599914819,698.282599914819,EMOCONPILOT016,2021_Jan_04_1202,EmoCon_Pilot_120Hz,2020.2.4,120.03476222004338,
,,,,0,0,0,0,94,0,94,0,,,,,,,,,,,,,,,,,,,,,,,,,,,,,,,,,,,,,,,,,,,,,,94,2.0,m,008_y_m_s_a.jpg,sad,a,17,1,324.18804679997265,324.4838754801778,324.72327530011535,324.87945878009776,324.884209100157,324.9228685800219,324.92814070009626,325.51091528001706,a,1,324.92814070009626,325.51091528001706,325.51679900009185,327.25889147997367,0.5713963999878615,571.3963999878615,EMOCONPILOT016,2021_Jan_04_1202,EmoCon_Pilot_120Hz,2020.2.4,120.03476222004338,
,,,,0,0,0,0,95,0,95,0,,,,,,,,,,,,,,,,,,,,,,,,,,,,,,,,,,,,,,,,,,,,,,95,8.0,f,019_m_f_s_a.jpg,sad,a,3,1,327.262989200186,327.55898428002837,327.7977152999956,327.8238586801337,327.82427219999954,327.86002477996516,327.85992910014465,328.53887428010347,s,0,327.85992910014465,328.53887428010347,328.5473007000983,329.5506309801014,0.6718419999815524,671.8419999815524,EMOCONPILOT016,2021_Jan_04_1202,EmoCon_Pilot_120Hz,2020.2.4,120.03476222004338,
,,,,0,0,0,0,96,0,96,0,,,,,,,,,,,,,,,,,,,,,,,,,,,,,,,,,,,,,,,,,,,,,,96,9.0,f,021_o_f_n_a.jpg,neutral,s,17,1,329.5536508001387,329.85061968017834,330.0646822000854,330.22431167999747,330.22901020012796,330.2698277800111,330.2748722000979,330.76422448006923,s,1,330.2748722000979,330.76422448006923,330.7750858999789,331.8839749800274,0.4809918999671936,480.9918999671936,EMOCONPILOT016,2021_Jan_04_1202,EmoCon_Pilot_120Hz,2020.2.4,120.03476222004338,
,,,,0,0,0,0,97,0,97,0,,,,,,,,,,,,,,,,,,,,,,,,,,,,,,,,,,,,,,,,,,,,,,97,11.0,f,030_o_f_h_a.jpg,happy,d,17,1,331.8871041999664,332.18398428002837,332.3858643001877,332.5424500800902,332.54615870001726,332.58658627995754,332.591736700153,333.10199907997156,d,1,332.591736700153,333.10199907997156,333.11370049999095,334.56743998003657,0.5001423000358045,500.1423000358045,EMOCONPILOT016,2021_Jan_04_1202,EmoCon_Pilot_120Hz,2020.2.4,120.03476222004338,
,,,,0,0,0,0,98,0,98,0,,,,,,,,,,,,,,,,,,,,,,,,,,,,,,,,,,,,,,,,,,,,,,98,12.0,f,040_y_f_n_a.jpg,neutral,s,3,1,334.5715528000146,334.86744668001774,335.08283780002967,335.1086754800519,335.1091575000901,335.1434440800687,335.14355370006524,335.9697973799659,s,1,335.14355370006524,335.9697973799659,335.97633550013416,337.03421518013346,0.8121792001184076,812.1792001184076,EMOCONPILOT016,2021_Jan_04_1202,EmoCon_Pilot_120Hz,2020.2.4,120.03476222004338,
,,,,0,0,0,0,99,0,99,0,,,,,,,,,,,,,,,,,,,,,,,,,,,,,,,,,,,,,,,,,,,,,,99,12.0,f,040_y_f_s_a.jpg,sad,a,17,1,337.03977000014856,337.33413118000607,337.36003540013917,337.4940919800894,337.4977055999916,337.53732378005515,337.5420338001568,338.1735769800609,s,0,337.5420338001568,338.1735769800609,338.1854642999824,340.00920878017786,0.6218183001037687,621.8183001037687,EMOCONPILOT016,2021_Jan_04_1202,EmoCon_Pilot_120Hz,2020.2.4,120.03476222004338,
,,,,0,0,0,0,100,0,100,0,,,,,,,,,,,,,,,,,,,,,,,,,,,,,,,,,,,,,,,,,,,,,,100,4.0,m,016_y_m_n_a.jpg,neutral,s,17,1,340.0134584000334,340.3091282799607,340.5568975000642,340.7161718801828,340.72080080001615,340.76175698002334,340.76742559997365,341.12483198002445,s,1,340.76742559997365,341.12483198002445,341.13596570002846,342.7175096801249,0.340416899882257,340.416899882257,EMOCONPILOT016,2021_Jan_04_1202,EmoCon_Pilot_120Hz,2020.2.4,120.03476222004338,
,,,,0,0,0,0,101,0,101,0,,,,,,,,,,,,,,,,,,,,,,,,,,,,,,,,,,,,,,,,,,,,,,101,11.0,f,030_o_f_s_a.jpg,sad,a,3,1,342.7213528000284,343.0176603800384,343.2156859000679,343.24157768015283,343.2419118999969,343.2770948800491,343.2787122000009,344.1395503801061,s,0,343.2787122000009,344.1395503801061,344.1492676001508,345.9260472801281,0.8529214998707175,852.9214998707175,EMOCONPILOT016,2021_Jan_04_1202,EmoCon_Pilot_120Hz,2020.2.4,120.03476222004338,
,,,,0,0,0,0,102,0,102,0,,,,,,,,,,,,,,,,,,,,,,,,,,,,,,,,,,,,,,,,,,,,,,102,3.0,m,013_y_m_h_a.jpg,happy,d,17,1,345.93026700010523,346.22603848010766,346.46063290000893,346.6152146800188,346.6202307001222,346.66102498017716,346.666052600136,347.18681428015697,d,1,346.666052600136,347.18681428015697,347.19847170007415,349.0511644800892,0.5138908000662923,513.8908000662923,EMOCONPILOT016,2021_Jan_04_1202,EmoCon_Pilot_120Hz,2020.2.4,120.03476222004338,
,,,,0,0,0,0,103,0,103,0,,,,,,,,,,,,,,,,,,,,,,,,,,,,,,,,,,,,,,,,,,,,,,103,2.0,m,008_y_m_s_a.jpg,sad,a,3,1,349.0569679001346,349.3511348801432,349.58628920000046,349.6129645799985,349.6176098000724,349.6580693800235,349.66305100009777,350.62043028015177,a,1,349.66305100009777,350.62043028015177,350.6257040000055,352.1677553799702,0.9407995999790728,940.7995999790728,EMOCONPILOT016,2021_Jan_04_1202,EmoCon_Pilot_120Hz,2020.2.4,120.03476222004338,
,,,,0,0,0,0,104,0,104,0,,,,,,,,,,,,,,,,,,,,,,,,,,,,,,,,,,,,,,,,,,,,,,104,11.0,f,030_o_f_s_a.jpg,sad,a,3,1,352.17316730017774,352.46779678009915,352.67180939996615,352.6980547801824,352.698457499966,352.7355912799714,352.7357209001202,353.42661398013587,s,0,352.7357209001202,353.42661398013587,353.4380189999938,354.7345418801298,0.6760231999214739,676.0231999214739,EMOCONPILOT016,2021_Jan_04_1202,EmoCon_Pilot_120Hz,2020.2.4,120.03476222004338,
,,,,0,0,0,0,105,0,105,0,,,,,,,,,,,,,,,,,,,,,,,,,,,,,,,,,,,,,,,,,,,,,,105,4.0,m,016_y_m_h_a.jpg,happy,d,17,1,354.7384331000503,355.03455228002275,355.05074850004166,355.18611567995976,355.1893364000134,355.22729308011475,355.2307078000158,355.8922097800998,d,1,355.2307078000158,355.8922097800998,355.8998126001097,357.5512862800853,0.6529836999252439,652.9836999252439,EMOCONPILOT016,2021_Jan_04_1202,EmoCon_Pilot_120Hz,2020.2.4,120.03476222004338,
,,,,0,0,0,0,106,0,106,0,,,,,,,,,,,,,,,,,,,,,,,,,,,,,,,,,,,,,,,,,,,,,,106,7.0,f,012_o_f_n_a.jpg,neutral,s,3,1,357.55553580005653,357.85131068008485,358.06600170000456,358.0927528801141,358.0933571001515,358.12806358018423,358.1283948000055,359.1802564800484,s,1,358.1283948000055,359.1802564800484,359.1877223001793,360.41793868008534,1.0432760000694543,1043.2760000694543,EMOCONPILOT016,2021_Jan_04_1202,EmoCon_Pilot_120Hz,2020.2.4,120.03476222004338,
,,,,0,0,0,0,107,0,107,0,,,,,,,,,,,,,,,,,,,,,,,,,,,,,,,,,,,,,,,,,,,,,,107,11.0,f,030_o_f_h_a.jpg,happy,d,3,1,360.42331210011616,360.71801568001973,360.9222448000219,360.9497256799834,360.95264909998514,360.99204018006566,360.9971284000203,361.8381004800787,d,1,360.9971284000203,361.8381004800787,361.8443922000006,363.1262986801332,0.8305108998902142,830.5108998902142,EMOCONPILOT016,2021_Jan_04_1202,EmoCon_Pilot_120Hz,2020.2.4,120.03476222004338,
,,,,0,0,0,0,108,0,108,0,,,,,,,,,,,,,,,,,,,,,,,,,,,,,,,,,,,,,,,,,,,,,,108,1.0,m,004_o_m_s_a.jpg,sad,a,17,1,363.12914470001124,363.42628408006857,363.4476729000453,363.5780020800186,363.5798014001921,363.6192565801786,363.6210254000034,364.6217724801274,a,1,363.6210254000034,364.6217724801274,364.63012009998783,366.3263724801829,0.9906391000840813,990.6391000840813,EMOCONPILOT016,2021_Jan_04_1202,EmoCon_Pilot_120Hz,2020.2.4,120.03476222004338,
,,,,0,0,0,0,109,0,109,0,,,,,,,,,,,,,,,,,,,,,,,,,,,,,,,,,,,,,,,,,,,,,,109,3.0,m,013_y_m_n_a.jpg,neutral,s,17,1,366.33109930017963,366.6264854801586,366.85727720009163,367.0117355800932,367.0164418001659,367.0571857799543,367.0623137000948,367.57107618001754,s,1,367.0623137000948,367.57107618001754,367.58279330004007,369.3348919799784,0.5013538999482989,501.35389994829893,EMOCONPILOT016,2021_Jan_04_1202,EmoCon_Pilot_120Hz,2020.2.4,120.03476222004338,
,,,,0,0,0,0,110,0,110,0,,,,,,,,,,,,,,,,,,,,,,,,,,,,,,,,,,,,,,,,,,,,,,110,10.0,f,028_y_f_s_a.jpg,sad,a,17,1,369.3404912999831,369.63487158010247,369.65495050000027,369.7864473801339,369.79156090016477,369.83239798008,369.8373649001587,370.2974276800407,s,0,369.8373649001587,370.2974276800407,370.3081428001169,371.5432935801102,0.44650830002501607,446.50830002501607,EMOCONPILOT016,2021_Jan_04_1202,EmoCon_Pilot_120Hz,2020.2.4,120.03476222004338,
,,,,0,0,0,0,111,0,111,0,,,,,,,,,,,,,,,,,,,,,,,,,,,,,,,,,,,,,,,,,,,,,,111,11.0,f,030_o_f_h_a.jpg,happy,d,17,1,371.5491402000189,371.8431246801512,372.05107300006784,372.20774468004237,372.2126756000798,372.2536064800108,372.25856270012446,372.70798868003766,d,1,372.25856270012446,372.70798868003766,372.719414500054,374.1765779800946,0.43338290019892156,433.38290019892156,EMOCONPILOT016,2021_Jan_04_1202,EmoCon_Pilot_120Hz,2020.2.4,120.03476222004338,
,,,,0,0,0,0,112,0,112,0,,,,,,,,,,,,,,,,,,,,,,,,,,,,,,,,,,,,,,,,,,,,,,112,7.0,f,012_o_f_n_a.jpg,neutral,s,17,1,374.1796971000731,374.47659838006365,374.68444410013035,374.85787998016457,374.8616267000325,374.9025443800958,374.9075170001015,375.3160914801294,s,1,374.9075170001015,375.3160914801294,375.32660120003857,376.8183818801073,0.40019410010427237,400.19410010427237,EMOCONPILOT016,2021_Jan_04_1202,EmoCon_Pilot_120Hz,2020.2.4,120.03476222004338,
,,,,0,0,0,0,113,0,113,0,,,,,,,,,,,,,,,,,,,,,,,,,,,,,,,,,,,,,,,,,,,,,,113,2.0,m,008_y_m_s_a.jpg,sad,a,17,1,376.82148470007814,377.1183383801719,377.35870610014535,377.51335458008106,377.5182305001654,377.55916858015115,377.5642765001394,378.083968980168,a,1,377.5642765001394,378.083968980168,378.0955908000469,380.0767027800204,0.5118222001474351,511.82220014743507,EMOCONPILOT016,2021_Jan_04_1202,EmoCon_Pilot_120Hz,2020.2.4,120.03476222004338,
,,,,0,0,0,0,114,0,114,0,,,,,,,,,,,,,,,,,,,,,,,,,,,,,,,,,,,,,,,,,,,,,,114,11.0,f,030_o_f_h_a.jpg,happy,d,17,1,380.08285240014084,380.376781379967,380.5738175001461,380.73875877999234,380.743576399982,380.78417328016366,380.78908750019036,381.77000537996645,d,1,380.78908750019036,381.77000537996645,381.7798679000698,383.6685658799717,0.9666641999501735,966.6641999501735,EMOCONPILOT016,2021_Jan_04_1202,EmoCon_Pilot_120Hz,2020.2.4,120.03476222004338,
,,,,0,0,0,0,115,0,115,0,,,,,,,,,,,,,,,,,,,,,,,,,,,,,,,,,,,,,,,,,,,,,,115,3.0,m,013_y_m_h_a.jpg,happy,d,17,1,383.67427120008506,383.9685552801704,384.1971593000926,384.3519603800261,384.35620860010386,384.3974119801307,384.4014216000214,385.2413511801744,s,0,384.4014216000214,385.2413511801744,385.25129170017317,386.5935611800989,0.8266374000813812,826.6374000813812,EMOCONPILOT016,2021_Jan_04_1202,EmoCon_Pilot_120Hz,2020.2.4,120.03476222004338,
,,,,0,0,0,0,116,0,116,0,,,,,,,,,,,,,,,,,,,,,,,,,,,,,,,,,,,,,,,,,,,,,,116,2.0,m,008_y_m_s_a.jpg,sad,a,17,1,386.59779330017045,386.893471280043,387.1207088001538,387.28926578017416,387.293154100189,387.33421118014957,387.33908349997364,387.9386857800884,s,0,387.33908349997364,387.9386857800884,387.95033540017903,389.11030397999565,0.5927687000948936,592.7687000948936,EMOCONPILOT016,2021_Jan_04_1202,EmoCon_Pilot_120Hz,2020.2.4,120.03476222004338,
,,,,0,0,0,0,117,0,117,0,,,,,,,,,,,,,,,,,,,,,,,,,,,,,,,,,,,,,,,,,,,,,,117,3.0,m,013_y_m_n_a.jpg,neutral,s,17,1,389.11387720005587,389.41018028014804,389.6438772000838,389.79700837999115,389.8001280000899,389.83756048015783,389.8406136999838,390.5160293799592,s,1,389.8406136999838,390.5160293799592,390.5254600001499,391.8103458801517,0.6672054000664502,667.2054000664502,EMOCONPILOT016,2021_Jan_04_1202,EmoCon_Pilot_120Hz,2020.2.4,120.03476222004338,
,,,,0,0,0,0,118,0,118,0,,,,,,,,,,,,,,,,,,,,,,,,,,,,,,,,,,,,,,,,,,,,,,118,6.0,m,033_o_m_n_a.jpg,neutral,s,17,1,391.81462640012614,392.11028347995597,392.3212949000299,392.47968987997154,392.48433300014585,392.5242582801031,392.5294526000507,393.6605035801651,d,0,392.5294526000507,393.6605035801651,393.66811920003965,395.58547348009887,1.1223540999926627,1122.3540999926627,EMOCONPILOT016,2021_Jan_04_1202,EmoCon_Pilot_120Hz,2020.2.4,120.03476222004338,
,,,,0,0,0,0,119,0,119,0,,,,,,,,,,,,,,,,,,,,,,,,,,,,,,,,,,,,,,,,,,,,,,119,6.0,m,033_o_m_n_a.jpg,neutral,s,17,1,395.5911992001347,395.88538698006886,396.08933580014855,396.2496908799978,396.2546437000856,396.295261779963,396.29946890007704,397.0127247801749,s,1,396.29946890007704,397.0127247801749,397.0254734000191,398.368775380007,0.7044309999328107,704.4309999328107,EMOCONPILOT016,2021_Jan_04_1202,EmoCon_Pilot_120Hz,2020.2.4,120.03476222004338,
,,,,1,0,1,0,0,0,0,0,,,,,,,,,,,,,,,,,,,,,,,,,,,,,,,,,,,,,,,398.4701316000428,403.06615678004454,s,4.581612100126222,4581.612100126222,398.4701316000428,403.06615678004454,0,1.0,m,004_o_m_s_a.jpg,sad,a,17,2,403.0681589001324,403.3605040800059,403.3858549001161,403.5203253800748,403.5218249000609,403.561782580032,403.5628438000567,404.7348992800573,a,1,403.5628438000567,404.7348992800573,404.74475480010733,406.70223878014366,1.1608768000733107,1160.8768000733107,EMOCONPILOT016,2021_Jan_04_1202,EmoCon_Pilot_120Hz,2020.2.4,120.03476222004338,
,,,,1,0,1,0,1,0,1,0,,,,,,,,,,,,,,,,,,,,,,,,,,,,,,,,,,,,,,,,,,,,,,1,9.0,f,021_o_f_n_a.jpg,neutral,s,2,2,406.7076995000243,407.0022441799985,407.213382499991,407.23135768009814,407.23521420010366,407.27454807998146,407.2788563000504,408.723750480148,s,1,407.2788563000504,408.723750480148,408.73441940010525,410.7190752801718,1.437035100068897,1437.035100068897,EMOCONPILOT016,2021_Jan_04_1202,EmoCon_Pilot_120Hz,2020.2.4,120.03476222004338,
,,,,1,0,1,0,2,0,2,0,,,,,,,,,,,,,,,,,,,,,,,,,,,,,,,,,,,,,,,,,,,,,,2,11.0,f,030_o_f_s_a.jpg,sad,a,17,2,410.7232698001899,411.01907888001296,411.22694610012695,411.39720788009,411.40189790003933,411.4426004799781,411.4475581999868,412.47360338007564,a,1,411.4475581999868,412.47360338007564,412.4813767001033,413.86074948001186,1.012178699951619,1012.1786999516189,EMOCONPILOT016,2021_Jan_04_1202,EmoCon_Pilot_120Hz,2020.2.4,120.03476222004338,
,,,,1,0,1,0,3,0,3,0,,,,,,,,,,,,,,,,,,,,,,,,,,,,,,,,,,,,,,,,,,,,,,3,10.0,f,028_y_f_s_a.jpg,sad,a,2,2,413.8672152000945,414.16086978015954,414.18270780006424,414.1974048800068,414.19813170004636,414.23696398006285,414.23826850019395,415.40329108007717,s,0,414.23826850019395,415.40329108007717,415.414959799964,416.7191655800445,1.1574623000342399,1157.46230003424,EMOCONPILOT016,2021_Jan_04_1202,EmoCon_Pilot_120Hz,2020.2.4,120.03476222004338,
,,,,1,0,1,0,4,0,4,0,,,,,,,,,,,,,,,,,,,,,,,,,,,,,,,,,,,,,,,,,,,,,,4,6.0,m,033_o_m_n_a.jpg,neutral,s,2,2,416.7252489000093,417.0192295801127,417.2267685001716,417.2439794800477,417.2446102001704,417.27918578002135,417.2789277001284,418.072300380026,s,1,417.2789277001284,418.072300380026,418.0824721001554,419.38587188015225,0.781201499979943,781.201499979943,EMOCONPILOT016,2021_Jan_04_1202,EmoCon_Pilot_120Hz,2020.2.4,120.03476222004338,
,,,,1,0,1,0,5,0,5,0,,,,,,,,,,,,,,,,,,,,,,,,,,,,,,,,,,,,,,,,,,,,,,5,1.0,m,004_o_m_n_a.jpg,neutral,s,2,2,419.39296169998124,419.68587898013647,419.89724069996737,419.91484968008007,419.9158371000085,419.9537746800808,419.95369770005345,420.7883166800486,a,0,419.95369770005345,420.7883166800486,420.79311199998483,422.7109333799919,0.825965799856931,825.965799856931,EMOCONPILOT016,2021_Jan_04_1202,EmoCon_Pilot_120Hz,2020.2.4,120.03476222004338,
,,,,1,0,1,0,6,0,6,0,,,,,,,,,,,,,,,,,,,,,,,,,,,,,,,,,,,,,,,,,,,,,,6,12.0,f,040_y_f_s_a.jpg,sad,a,17,2,422.7164309001528,423.011082080123,423.0365485001821,423.1712817800464,423.17488180007786,423.2146254800493,423.21878850017674,423.7796790801687,a,1,423.21878850017674,423.7796790801687,423.7912982001435,425.40262438000644,0.5530079000163823,553.0079000163823,EMOCONPILOT016,2021_Jan_04_1202,EmoCon_Pilot_120Hz,2020.2.4,120.03476222004338,
,,,,1,0,1,0,7,0,7,0,,,,,,,,,,,,,,,,,,,,,,,,,,,,,,,,,,,,,,,,,,,,,,7,9.0,f,021_o_f_n_a.jpg,neutral,s,2,2,425.40677300002426,425.70262918008956,425.9083665001672,425.92553687996696,425.9260790999979,425.96220388000364,425.9618560001254,426.8128445799695,s,1,425.9618560001254,426.8128445799695,426.8229082999751,428.07782868009525,0.8419257998466492,841.9257998466492,EMOCONPILOT016,2021_Jan_04_1202,EmoCon_Pilot_120Hz,2020.2.4,120.03476222004338,
,,,,1,0,1,0,8,0,8,0,,,,,,,,,,,,,,,,,,,,,,,,,,,,,,,,,,,,,,,,,,,,,,8,9.0,f,021_o_f_s_a.jpg,sad,a,2,2,428.0845930001233,428.37784538015256,428.3990186001174,428.41483658009673,428.41551199997775,428.4498932800954,428.45027460018173,429.1710290801013,s,0,428.45027460018173,429.1710290801013,429.17763409996405,430.9944479800062,0.713458500104025,713.458500104025,EMOCONPILOT016,2021_Jan_04_1202,EmoCon_Pilot_120Hz,2020.2.4,120.03476222004338,
,,,,1,0,1,0,9,0,9,0,,,,,,,,,,,,,,,,,,,,,,,,,,,,,,,,,,,,,,,,,,,,,,9,4.0,m,016_y_m_s_a.jpg,sad,a,17,2,430.9981069001369,431.2944724801229,431.31678230012767,431.45465458014513,431.45915160002187,431.49881388007196,431.5041853999719,432.227208080166,a,1,431.5041853999719,432.227208080166,432.23650940018706,434.17785408014896,0.7155021999496967,715.5021999496967,EMOCONPILOT016,2021_Jan_04_1202,EmoCon_Pilot_120Hz,2020.2.4,120.03476222004338,
,,,,1,0,1,0,10,0,10,0,,,,,,,,,,,,,,,,,,,,,,,,,,,,,,,,,,,,,,,,,,,,,,10,7.0,f,012_o_f_n_a.jpg,neutral,s,2,2,434.18326820014045,434.4778122801101,434.6917289001867,434.70913908018264,434.70947120012715,434.74557257995474,434.74582560011186,435.39768918014596,s,1,434.74582560011186,435.39768918014596,435.40612730011344,436.5696445800597,0.6419347000773996,641.9347000773996,EMOCONPILOT016,2021_Jan_04_1202,EmoCon_Pilot_120Hz,2020.2.4,120.03476222004338,
,,,,1,0,1,0,11,0,11,0,,,,,,,,,,,,,,,,,,,,,,,,,,,,,,,,,,,,,,,,,,,,,,11,2.0,m,008_y_m_n_a.jpg,neutral,s,2,2,436.57372780004516,436.8695323801832,437.0946645999793,437.11117487999144,437.11195100005716,437.1477834800491,437.14763380005024,437.86532098001334,s,1,437.14763380005024,437.86532098001334,437.8722223001532,439.1362820800161,0.7040450000204146,704.0450000204146,EMOCONPILOT016,2021_Jan_04_1202,EmoCon_Pilot_120Hz,2020.2.4,120.03476222004338,
,,,,1,0,1,0,12,0,12,0,,,,,,,,,,,,,,,,,,,,,,,,,,,,,,,,,,,,,,,,,,,,,,12,1.0,m,004_o_m_s_a.jpg,sad,a,2,2,439.1406535001006,439.4362866800977,439.46065200003795,439.47577378007117,439.4759245000314,439.512433580053,439.51253490010276,440.09163327997084,s,0,439.51253490010276,440.09163327997084,440.097371699987,441.56135168012696,0.5710768999997526,571.0768999997526,EMOCONPILOT016,2021_Jan_04_1202,EmoCon_Pilot_120Hz,2020.2.4,120.03476222004338,
,,,,1,0,1,0,13,0,13,0,,,,,,,,,,,,,,,,,,,,,,,,,,,,,,,,,,,,,,,,,,,,,,13,7.0,f,012_o_f_h_a.jpg,happy,d,2,2,441.56651460006833,441.8613630800275,441.88665810017847,441.9016509800451,441.9024185000453,441.9373649800429,441.9371243000496,442.562268480123,d,1,441.9371243000496,442.562268480123,442.5713285000529,444.5364067800576,0.610744999954477,610.744999954477,EMOCONPILOT016,2021_Jan_04_1202,EmoCon_Pilot_120Hz,2020.2.4,120.03476222004338,
,,,,1,0,1,0,14,0,14,0,,,,,,,,,,,,,,,,,,,,,,,,,,,,,,,,,,,,,,,,,,,,,,14,3.0,m,013_y_m_h_a.jpg,happy,d,17,2,444.5409776000306,444.83645128009374,445.082155500073,445.2381775799906,445.24159520003013,445.28240427996496,445.28751340019517,445.7375963799888,d,1,445.28751340019517,445.7375963799888,445.74888900015503,446.88643798015545,0.43644610000774264,436.44610000774264,EMOCONPILOT016,2021_Jan_04_1202,EmoCon_Pilot_120Hz,2020.2.4,120.03476222004338,
,,,,1,0,1,0,15,0,15,0,,,,,,,,,,,,,,,,,,,,,,,,,,,,,,,,,,,,,,,,,,,,,,15,11.0,f,030_o_f_n_a.jpg,neutral,s,17,2,446.89087170013227,447.1863879800541,447.3964178999886,447.5572322799591,447.5611454001628,447.6017872799886,447.60667170002125,448.3814350801287,a,0,447.60667170002125,448.3814350801287,448.39270139997825,449.60318728017154,0.7572763001080602,757.2763001080602,EMOCONPILOT016,2021_Jan_04_1202,EmoCon_Pilot_120Hz,2020.2.4,120.03476222004338,
,,,,1,0,1,0,16,0,16,0,,,,,,,,,,,,,,,,,,,,,,,,,,,,,,,,,,,,,,,,,,,,,,16,3.0,m,013_y_m_n_a.jpg,neutral,s,2,2,449.6087942000013,449.9032726801699,450.14464340009727,450.16176017995457,450.16239559999667,450.1974917800864,450.19733490003273,450.7979378799675,s,1,450.19733490003273,450.7979378799675,450.80517040006816,452.5783539800206,0.590379900066182,590.379900066182,EMOCONPILOT016,2021_Jan_04_1202,EmoCon_Pilot_120Hz,2020.2.4,120.03476222004338,
,,,,1,0,1,0,17,0,17,0,,,,,,,,,,,,,,,,,,,,,,,,,,,,,,,,,,,,,,,,,,,,,,17,9.0,f,021_o_f_h_a.jpg,happy,d,2,2,452.5837973000016,452.8783153800061,453.08997720014304,453.10728747996035,453.11095830006525,453.15193798013496,453.1571323000826,453.6262525801314,d,1,453.1571323000826,453.6262525801314,453.6385441001039,455.52824818009975,0.45468179997988045,454.68179997988045,EMOCONPILOT016,2021_Jan_04_1202,EmoCon_Pilot_120Hz,2020.2.4,120.03476222004338,
,,,,1,0,1,0,18,0,18,0,,,,,,,,,,,,,,,,,,,,,,,,,,,,,,,,,,,,,,,,,,,,,,18,3.0,m,013_y_m_s_a.jpg,sad,a,2,2,455.5323669000063,455.8283638799796,455.84239780018106,455.85748537995386,455.8577058999799,455.8960727801779,455.89726460003294,456.74813268000725,s,0,455.89726460003294,456.74813268000725,456.7594831001479,457.7617050799774,0.8346517998725176,834.6517998725176,EMOCONPILOT016,2021_Jan_04_1202,EmoCon_Pilot_120Hz,2020.2.4,120.03476222004338,
,,,,1,0,1,0,19,0,19,0,,,,,,,,,,,,,,,,,,,,,,,,,,,,,,,,,,,,,,,,,,,,,,19,10.0,f,028_y_f_h_a.jpg,happy,d,17,2,457.76720390003175,458.0617849800503,458.085405100137,458.2216752801789,458.22363899997436,458.26294788012746,458.264919700101,458.89728808000217,d,1,458.264919700101,458.89728808000217,458.90813320013694,460.0533671799814,0.6190253999084234,619.0253999084234,EMOCONPILOT016,2021_Jan_04_1202,EmoCon_Pilot_120Hz,2020.2.4,120.03476222004338,
,,,,1,0,1,0,20,0,20,0,,,,,,,,,,,,,,,,,,,,,,,,,,,,,,,,,,,,,,,,,,,,,,20,4.0,m,016_y_m_h_a.jpg,happy,d,2,2,460.0570851000957,460.35347698016557,460.3780333001632,460.3931025801459,460.3941469001584,460.4295557799516,460.43058490008116,461.3323825799627,d,1,460.43058490008116,461.3323825799627,461.3418310000561,462.9784410800086,0.8933342001400888,893.3342001400888,EMOCONPILOT016,2021_Jan_04_1202,EmoCon_Pilot_120Hz,2020.2.4,120.03476222004338,
,,,,1,0,1,0,21,0,21,0,,,,,,,,,,,,,,,,,,,,,,,,,,,,,,,,,,,,,,,,,,,,,,21,6.0,m,033_o_m_h_a.jpg,happy,d,17,2,462.98249480011873,463.27843478012363,463.29754790011793,463.43008428013417,463.43300860002637,463.47134828001725,463.4754584999755,464.17858498001004,d,1,463.4754584999755,464.17858498001004,464.18982510012574,465.97020078001077,0.6884621998760849,688.4621998760849,EMOCONPILOT016,2021_Jan_04_1202,EmoCon_Pilot_120Hz,2020.2.4,120.03476222004338,
,,,,1,0,1,0,22,0,22,0,,,,,,,,,,,,,,,,,,,,,,,,,,,,,,,,,,,,,,,,,,,,,,22,5.0,m,027_o_m_s_a.jpg,sad,a,17,2,465.97329700016417,466.2702086800011,466.2907301001251,466.42180048015433,466.4248915000353,466.46307888014707,466.4664547999855,467.2289363801712,a,1,466.4664547999855,467.2289363801712,467.23483279999346,468.32025418004486,0.7532422000076622,753.2422000076622,EMOCONPILOT016,2021_Jan_04_1202,EmoCon_Pilot_120Hz,2020.2.4,120.03476222004338,
,,,,1,0,1,0,23,0,23,0,,,,,,,,,,,,,,,,,,,,,,,,,,,,,,,,,,,,,,,,,,,,,,23,10.0,f,028_y_f_n_a.jpg,neutral,s,17,2,468.323324700119,468.6201615800848,468.8277776001487,468.98327558015006,468.98624450014904,469.0238410799531,469.02704280009493,470.46706998015287,a,0,469.02704280009493,470.46706998015287,470.4733774000779,472.2203143801773,1.4247498998884112,1424.7498998884112,EMOCONPILOT016,2021_Jan_04_1202,EmoCon_Pilot_120Hz,2020.2.4,120.03476222004338,
,,,,1,0,1,0,24,0,24,0,,,,,,,,,,,,,,,,,,,,,,,,,,,,,,,,,,,,,,,,,,,,,,24,9.0,f,021_o_f_n_a.jpg,neutral,s,2,2,472.22346100001596,472.5203913801117,472.7203432000242,472.73736267995554,472.738172700163,472.77412748003843,472.7748122001067,473.90712598005774,a,0,472.7748122001067,473.90712598005774,473.9195173000917,475.32879287998657,1.1172663001343608,1117.2663001343608,EMOCONPILOT016,2021_Jan_04_1202,EmoCon_Pilot_120Hz,2020.2.4,120.03476222004338,
,,,,1,0,1,0,25,0,25,0,,,,,,,,,,,,,,,,,,,,,,,,,,,,,,,,,,,,,,,,,,,,,,25,8.0,f,019_m_f_h_a.jpg,happy,d,17,2,475.3330916999839,475.62877518001477,475.6520304000005,475.7886658801464,475.79208820010535,475.82995487998704,475.83320860005915,476.2142849801341,d,1,475.83320860005915,476.2142849801341,476.2250210000202,477.2704859801335,0.37064610002562404,370.64610002562404,EMOCONPILOT016,2021_Jan_04_1202,EmoCon_Pilot_120Hz,2020.2.4,120.03476222004338,
,,,,1,0,1,0,26,0,26,0,,,,,,,,,,,,,,,,,,,,,,,,,,,,,,,,,,,,,,,,,,,,,,26,4.0,m,016_y_m_n_a.jpg,neutral,s,2,2,477.27486240002327,477.57040588015224,477.80619370006025,477.8234785801498,477.82374130003154,477.85837958001065,477.85818340000696,478.4930180801777,s,1,477.85818340000696,478.4930180801777,478.5004994000774,480.3621436801506,0.6256027000490576,625.6027000490576,EMOCONPILOT016,2021_Jan_04_1202,EmoCon_Pilot_120Hz,2020.2.4,120.03476222004338,
,,,,1,0,1,0,27,0,27,0,,,,,,,,,,,,,,,,,,,,,,,,,,,,,,,,,,,,,,,,,,,,,,27,1.0,m,004_o_m_h_a.jpg,happy,d,17,2,480.36725930008106,480.6621670801425,480.8518388001248,481.01805488013196,481.02312200004235,481.0638520800741,481.0688303001225,481.5695521800546,d,1,481.0688303001225,481.5695521800546,481.58052900014445,482.6372518801829,0.48710830020718277,487.10830020718277,EMOCONPILOT016,2021_Jan_04_1202,EmoCon_Pilot_120Hz,2020.2.4,120.03476222004338,
,,,,1,0,1,0,28,0,28,0,,,,,,,,,,,,,,,,,,,,,,,,,,,,,,,,,,,,,,,,,,,,,,28,10.0,f,028_y_f_s_a.jpg,sad,a,17,2,482.6405570001807,482.93728678014594,482.9567068000324,483.0888952800771,483.09061950002797,483.1301967801293,483.13166099996306,483.93343378014396,a,1,483.13166099996306,483.93343378014396,483.943031599978,485.0372618801659,0.7921370998956263,792.1370998956263,EMOCONPILOT016,2021_Jan_04_1202,EmoCon_Pilot_120Hz,2020.2.4,120.03476222004338,
,,,,1,0,1,0,29,0,29,0,,,,,,,,,,,,,,,,,,,,,,,,,,,,,,,,,,,,,,,,,,,,,,29,5.0,m,027_o_m_h_a.jpg,happy,d,2,2,485.0425599999726,485.3373760801507,485.5638348001521,485.58091008004266,485.58083190000616,485.61529898007865,485.61519160005264,487.1063248800812,s,0,485.61519160005264,487.1063248800812,487.1141089000739,488.320751580107,1.4767004998866469,1476.7004998866469,EMOCONPILOT016,2021_Jan_04_1202,EmoCon_Pilot_120Hz,2020.2.4,120.03476222004338,
,,,,1,0,1,0,30,0,30,0,,,,,,,,,,,,,,,,,,,,,,,,,,,,,,,,,,,,,,,,,,,,,,30,10.0,f,028_y_f_h_a.jpg,happy,d,2,2,488.3251406000927,488.6206508799689,488.64329260005616,488.6585131801432,488.65927230007946,488.6968842800008,488.69673330010846,489.2586616800865,d,1,488.69673330010846,489.2586616800865,489.264943000162,490.9373675800627,0.5470170001499355,547.0170001499355,EMOCONPILOT016,2021_Jan_04_1202,EmoCon_Pilot_120Hz,2020.2.4,120.03476222004338,
,,,,1,0,1,0,31,0,31,0,,,,,,,,,,,,,,,,,,,,,,,,,,,,,,,,,,,,,,,,,,,,,,31,5.0,m,027_o_m_h_a.jpg,happy,d,2,2,490.94286480010487,491.2373930799542,491.45046730013564,491.46779567997436,491.4711764000822,491.51027298013213,491.5153752001934,492.10575458004604,d,1,491.5153752001934,492.10575458004604,492.1173247001134,493.9124677799875,0.5764776000287384,576.4776000287384,EMOCONPILOT016,2021_Jan_04_1202,EmoCon_Pilot_120Hz,2020.2.4,120.03476222004338,
,,,,1,0,1,0,32,0,32,0,,,,,,,,,,,,,,,,,,,,,,,,,,,,,,,,,,,,,,,,,,,,,,32,9.0,f,021_o_f_n_a.jpg,neutral,s,2,2,493.91796370013617,494.2125462800497,494.4276007001754,494.4445966800442,494.445185800083,494.48033358009997,494.4814600001555,495.13158248008693,s,1,494.4814600001555,495.13158248008693,495.14036440011114,496.8626406799769,0.6422866999637336,642.2866999637336,EMOCONPILOT016,2021_Jan_04_1202,EmoCon_Pilot_120Hz,2020.2.4,120.03476222004338,
,,,,1,0,1,0,33,0,33,0,,,,,,,,,,,,,,,,,,,,,,,,,,,,,,,,,,,,,,,,,,,,,,33,3.0,m,013_y_m_s_a.jpg,sad,a,2,2,496.86812690016814,497.1626534801209,497.17732110014185,497.1925552800996,497.1927665001713,497.23045168018433,497.2316022000741,497.85236158005426,s,0,497.2316022000741,497.85236158005426,497.8597726000007,499.8042732800124,0.6123051999602467,612.3051999602467,EMOCONPILOT016,2021_Jan_04_1202,EmoCon_Pilot_120Hz,2020.2.4,120.03476222004338,
,,,,1,0,1,0,34,0,34,0,,,,,,,,,,,,,,,,,,,,,,,,,,,,,,,,,,,,,,,,,,,,,,34,1.0,m,004_o_m_n_a.jpg,neutral,s,17,2,499.8103532001842,500.1043215800775,500.31679269997403,500.47616858005057,500.4809816000052,500.52202497997786,500.5271376001183,501.7584950799821,s,1,500.5271376001183,501.7584950799821,501.7668182000052,503.1376786801731,1.220758100040257,1220.758100040257,EMOCONPILOT016,2021_Jan_04_1202,EmoCon_Pilot_120Hz,2020.2.4,120.03476222004338,
,,,,1,0,1,0,35,0,35,0,,,,,,,,,,,,,,,,,,,,,,,,,,,,,,,,,,,,,,,,,,,,,,35,12.0,f,040_y_f_h_a.jpg,happy,d,2,2,503.14284140011296,503.4376576800598,503.45446930010803,503.4701977799879,503.4708104999736,503.50600257997866,503.50693480018526,504.0850024800049,d,1,503.50693480018526,504.0850024800049,504.09507949999534,505.81273978010285,0.5610801998991519,561.0801998991519,EMOCONPILOT016,2021_Jan_04_1202,EmoCon_Pilot_120Hz,2020.2.4,120.03476222004338,
,,,,1,0,1,0,36,0,36,0,,,,,,,,,,,,,,,,,,,,,,,,,,,,,,,,,,,,,,,,,,,,,,36,10.0,f,028_y_f_n_a.jpg,neutral,s,17,2,505.81806139997207,506.112818980054,506.32326190010644,506.47986558002884,506.4845981001854,506.52360038009937,506.5279691000469,507.10001568000297,s,1,506.5279691000469,507.10001568000297,507.11234150012024,508.6960844799643,0.556047499878332,556.047499878332,EMOCONPILOT016,2021_Jan_04_1202,EmoCon_Pilot_120Hz,2020.2.4,120.03476222004338,
,,,,1,0,1,0,37,0,37,0,,,,,,,,,,,,,,,,,,,,,,,,,,,,,,,,,,,,,,,,,,,,,,37,11.0,f,030_o_f_n_a.jpg,neutral,s,17,2,508.7003652001731,508.99610807995776,509.19207440014,509.3512298801681,509.35631210007705,509.39704828003886,509.4022636001464,510.0068386801751,a,0,509.4022636001464,510.0068386801751,510.0133721001912,511.5295506801223,0.593449299922213,593.449299922213,EMOCONPILOT016,2021_Jan_04_1202,EmoCon_Pilot_120Hz,2020.2.4,120.03476222004338,
,,,,1,0,1,0,38,0,38,0,,,,,,,,,,,,,,,,,,,,,,,,,,,,,,,,,,,,,,,,,,,,,,38,1.0,m,004_o_m_h_a.jpg,happy,d,2,2,511.5339159001596,511.8295567800989,512.028503900161,512.0448624800658,512.0499354000203,512.0891305801226,512.0942471001763,512.7173874801258,d,1,512.0942471001763,512.7173874801258,512.7290978999808,514.0047026799759,0.6137086001690477,613.7086001690477,EMOCONPILOT016,2021_Jan_04_1202,EmoCon_Pilot_120Hz,2020.2.4,120.03476222004338,
,,,,1,0,1,0,39,0,39,0,,,,,,,,,,,,,,,,,,,,,,,,,,,,,,,,,,,,,,,,,,,,,,39,6.0,m,033_o_m_h_a.jpg,happy,d,17,2,514.0102173001505,514.3045854800614,514.3271207001526,514.4645623801509,514.4681184999645,514.5058475799626,514.5097465000581,514.8632700801129,d,1,514.5097465000581,514.8632700801129,514.874043900054,516.6546340800589,0.34215969988144934,342.15969988144934,EMOCONPILOT016,2021_Jan_04_1202,EmoCon_Pilot_120Hz,2020.2.4,120.03476222004338,
,,,,1,0,1,0,40,0,40,0,,,,,,,,,,,,,,,,,,,,,,,,,,,,,,,,,,,,,,,,,,,,,,40,7.0,f,012_o_f_h_a.jpg,happy,d,17,2,516.6603967000265,516.9546317799716,516.977823600173,517.1145297800424,517.1176144999918,517.1558244800428,517.1593018001877,517.4941187800607,d,1,517.1593018001877,517.4941187800607,517.503341200063,518.9212658800418,0.3245063000358641,324.5063000358641,EMOCONPILOT016,2021_Jan_04_1202,EmoCon_Pilot_120Hz,2020.2.4,120.03476222004338,
,,,,1,0,1,0,41,0,41,0,,,,,,,,,,,,,,,,,,,,,,,,,,,,,,,,,,,,,,,,,,,,,,41,6.0,m,033_o_m_n_a.jpg,neutral,s,17,2,518.9253728999756,519.2213838800556,519.4316263000946,519.5915185801452,519.5960731001105,519.6330570801395,519.6373976999894,520.0522881801473,s,1,519.6373976999894,520.0522881801473,520.0638827001676,521.2714489800157,0.39863130007870495,398.63130007870495,EMOCONPILOT016,2021_Jan_04_1202,EmoCon_Pilot_120Hz,2020.2.4,120.03476222004338,
,,,,1,0,1,0,42,0,42,0,,,,,,,,,,,,,,,,,,,,,,,,,,,,,,,,,,,,,,,,,,,,,,42,7.0,f,012_o_f_h_a.jpg,happy,d,2,2,521.2756588000339,521.5713821800193,521.5947289001197,521.6099546800135,521.6106364000589,521.6475441799732,521.6476768001448,522.2824145801599,d,1,521.6476768001448,522.2824145801599,522.2907555000857,524.1631763800281,0.6202982999384403,620.2982999384403,EMOCONPILOT016,2021_Jan_04_1202,EmoCon_Pilot_120Hz,2020.2.4,120.03476222004338,
,,,,1,0,1,0,43,0,43,0,,,,,,,,,,,,,,,,,,,,,,,,,,,,,,,,,,,,,,,,,,,,,,43,5.0,m,027_o_m_h_a.jpg,happy,d,17,2,524.1686897000764,524.463181479997,524.672438000096,524.8408778800397,524.8453846001066,524.8866495801369,524.8914604000747,526.472849280038,None,0,524.8914604000747,526.472849280038,526.4769401000813,527.8548596801004,,,EMOCONPILOT016,2021_Jan_04_1202,EmoCon_Pilot_120Hz,2020.2.4,120.03476222004338,
,,,,1,0,1,0,44,0,44,0,,,,,,,,,,,,,,,,,,,,,,,,,,,,,,,,,,,,,,,,,,,,,,44,10.0,f,028_y_f_s_a.jpg,sad,a,2,2,527.8580999001861,528.1549346800196,528.1780387000181,528.1930132800946,528.1939751000609,528.2311128800968,528.2310423001181,528.8428972800496,d,0,528.2310423001181,528.8428972800496,528.8514897001442,530.113241880131,0.6048455000855029,604.8455000855029,EMOCONPILOT016,2021_Jan_04_1202,EmoCon_Pilot_120Hz,2020.2.4,120.03476222004338,
,,,,1,0,1,0,45,0,45,0,,,,,,,,,,,,,,,,,,,,,,,,,,,,,,,,,,,,,,,,,,,,,,45,7.0,f,012_o_f_n_a.jpg,neutral,s,2,2,530.1187400000636,530.4133361800807,530.6249587000348,530.6431377801812,530.6458736001514,530.6827425800032,530.6863406000193,531.3050715801539,s,1,530.6863406000193,531.3050715801539,531.3134608000983,533.1216082800413,0.6056886999867857,605.6886999867857,EMOCONPILOT016,2021_Jan_04_1202,EmoCon_Pilot_120Hz,2020.2.4,120.03476222004338,
,,,,1,0,1,0,46,0,46,0,,,,,,,,,,,,,,,,,,,,,,,,,,,,,,,,,,,,,,,,,,,,,,46,1.0,m,004_o_m_n_a.jpg,neutral,s,17,2,533.125692800153,533.4216043801746,533.6350106999744,533.7867796799867,533.7869073001202,533.8227189799538,533.8220991999842,535.4372905801749,a,0,533.8220991999842,535.4372905801749,535.4458865001798,536.7050377800363,1.6057543000206351,1605.7543000206351,EMOCONPILOT016,2021_Jan_04_1202,EmoCon_Pilot_120Hz,2020.2.4,120.03476222004338,
,,,,1,0,1,0,47,0,47,0,,,,,,,,,,,,,,,,,,,,,,,,,,,,,,,,,,,,,,,,,,,,,,47,9.0,f,021_o_f_h_a.jpg,happy,d,17,2,536.7103075000923,537.0050709801028,537.2145551000722,537.3850306800334,537.3896009000018,537.4305196799571,537.4354873001575,537.9866077801446,d,1,537.4354873001575,537.9866077801446,537.9967775000259,539.9385539800162,0.5364666001405567,536.4666001405567,EMOCONPILOT016,2021_Jan_04_1202,EmoCon_Pilot_120Hz,2020.2.4,120.03476222004338,
,,,,1,0,1,0,48,0,48,0,,,,,,,,,,,,,,,,,,,,,,,,,,,,,,,,,,,,,,,,,,,,,,48,10.0,f,028_y_f_n_a.jpg,neutral,s,2,2,539.9439146001823,540.238508280064,540.4424217999913,540.4593838801841,540.462614200078,540.5014525800245,540.5066871000454,541.2113502800232,s,1,540.5066871000454,541.2113502800232,541.2227209000848,542.6885201799917,0.6893158999737352,689.3158999737352,EMOCONPILOT016,2021_Jan_04_1202,EmoCon_Pilot_120Hz,2020.2.4,120.03476222004338,
,,,,1,0,1,0,49,0,49,0,,,,,,,,,,,,,,,,,,,,,,,,,,,,,,,,,,,,,,,,,,,,,,49,7.0,f,012_o_f_h_a.jpg,happy,d,17,2,542.6925818000454,542.9886081800098,543.0094333000015,543.1401488801232,543.1431436999701,543.1813835801324,543.1850002000574,543.8001718799817,d,1,543.1850002000574,543.8001718799817,543.8118269999977,545.2886390801752,0.6030830999370664,603.0830999370664,EMOCONPILOT016,2021_Jan_04_1202,EmoCon_Pilot_120Hz,2020.2.4,120.03476222004338,
,,,,1,0,1,0,50,0,50,0,,,,,,,,,,,,,,,,,,,,,,,,,,,,,,,,,,,,,,,,,,,,,,50,5.0,m,027_o_m_h_a.jpg,happy,d,17,2,545.2926472001709,545.5886124800193,545.8116541001946,545.9750707800733,545.9795280001126,546.0204736801563,546.0253190000076,546.5146403800929,d,1,546.0253190000076,546.5146403800929,546.525047800038,548.0137176801684,0.4745793999172747,474.5793999172747,EMOCONPILOT016,2021_Jan_04_1202,EmoCon_Pilot_120Hz,2020.2.4,120.03476222004338,
,,,,1,0,1,0,51,0,51,0,,,,,,,,,,,,,,,,,,,,,,,,,,,,,,,,,,,,,,,,,,,,,,51,12.0,f,040_y_f_n_a.jpg,neutral,s,2,2,548.0177496001124,548.3136900800048,548.5330274000298,548.5500530800084,548.5535324001685,548.5941790800309,548.5994375001173,549.2127829801059,s,1,548.5994375001173,549.2127829801059,549.224373199977,550.78875808015,0.5966037998441607,596.6037998441607,EMOCONPILOT016,2021_Jan_04_1202,EmoCon_Pilot_120Hz,2020.2.4,120.03476222004338,
,,,,1,0,1,0,52,0,52,0,,,,,,,,,,,,,,,,,,,,,,,,,,,,,,,,,,,,,,,,,,,,,,52,2.0,m,008_y_m_h_a.jpg,happy,d,2,2,550.7941791000776,551.0887903800933,551.1106630000286,551.1261168801459,551.1273076999933,551.1648773801746,551.1646098999772,552.8008256800706,None,0,551.1646098999772,552.8008256800706,552.8085351001937,554.7720764800208,,,EMOCONPILOT016,2021_Jan_04_1202,EmoCon_Pilot_120Hz,2020.2.4,120.03476222004338,
,,,,1,0,1,0,53,0,53,0,,,,,,,,,,,,,,,,,,,,,,,,,,,,,,,,,,,,,,,,,,,,,,53,6.0,m,033_o_m_h_a.jpg,happy,d,17,2,554.7779242000543,555.072102280031,555.0943623001222,555.2320912800963,555.2359081001487,555.2767554800259,555.2819404001348,555.7489355801838,d,1,555.2819404001348,555.7489355801838,555.7606348001864,557.0888998801122,0.458133100066334,458.133100066334,EMOCONPILOT016,2021_Jan_04_1202,EmoCon_Pilot_120Hz,2020.2.4,120.03476222004338,
,,,,1,0,1,0,54,0,54,0,,,,,,,,,,,,,,,,,,,,,,,,,,,,,,,,,,,,,,,,,,,,,,54,2.0,m,008_y_m_h_a.jpg,happy,d,17,2,557.0944155000616,557.3887841800927,557.4131000000052,557.5487268801546,557.5517611000687,557.5900435800897,557.5933868000284,558.6439524799819,d,1,557.5933868000284,558.6439524799819,558.6530508999713,559.8472801800119,1.0345117000397295,1034.5117000397295,EMOCONPILOT016,2021_Jan_04_1202,EmoCon_Pilot_120Hz,2020.2.4,120.03476222004338,
,,,,1,0,1,0,55,0,55,0,,,,,,,,,,,,,,,,,,,,,,,,,,,,,,,,,,,,,,,,,,,,,,55,12.0,f,040_y_f_h_a.jpg,happy,d,17,2,559.8527959999628,560.1473175801104,560.1726806000806,560.3072255800246,560.3100980001036,560.3484911801527,560.3517291999888,560.9514937800589,d,1,560.3517291999888,560.9514937800589,560.9610457001254,562.6973239799729,0.5882193001452833,588.2193001452833,EMOCONPILOT016,2021_Jan_04_1202,EmoCon_Pilot_120Hz,2020.2.4,120.03476222004338,
,,,,1,0,1,0,56,0,56,0,,,,,,,,,,,,,,,,,,,,,,,,,,,,,,,,,,,,,,,,,,,,,,56,10.0,f,028_y_f_n_a.jpg,neutral,s,17,2,562.7028830000199,562.9972901799949,563.2083394001238,563.3674420799828,563.3723079001065,563.4131146801403,563.4183124999981,563.8981628801441,s,1,563.4183124999981,563.8981628801441,563.9030605000444,565.2223138801521,0.4656128999777138,465.6128999777138,EMOCONPILOT016,2021_Jan_04_1202,EmoCon_Pilot_120Hz,2020.2.4,120.03476222004338,
,,,,1,0,1,0,57,0,57,0,,,,,,,,,,,,,,,,,,,,,,,,,,,,,,,,,,,,,,,,,,,,,,57,12.0,f,040_y_f_s_a.jpg,sad,a,17,2,565.2252573000733,565.5222122801235,565.544628100004,565.6822409801418,565.68568900018,565.7236591800349,565.7266316001769,566.6336909799604,a,1,565.7266316001769,566.6336909799604,566.6403368001338,568.1891597799724,0.8932208002079278,893.2208002079278,EMOCONPILOT016,2021_Jan_04_1202,EmoCon_Pilot_120Hz,2020.2.4,120.03476222004338,
,,,,1,0,1,0,58,0,58,0,,,,,,,,,,,,,,,,,,,,,,,,,,,,,,,,,,,,,,,,,,,,,,58,5.0,m,027_o_m_n_a.jpg,neutral,s,17,2,568.1947983000427,568.4890636801022,568.7018144000322,568.8618963800138,568.8667683000676,568.9078235800146,568.9126129001379,570.3164839799749,s,1,568.9126129001379,570.3164839799749,570.3252271001693,571.9974569801009,1.3952473001554608,1395.2473001554608,EMOCONPILOT016,2021_Jan_04_1202,EmoCon_Pilot_120Hz,2020.2.4,120.03476222004338,
,,,,1,0,1,0,59,0,59,0,,,,,,,,,,,,,,,,,,,,,,,,,,,,,,,,,,,,,,,,,,,,,,59,4.0,m,016_y_m_s_a.jpg,sad,a,2,2,572.0005787999835,572.2975480800262,572.319834300084,572.3348661800148,572.3360930001363,572.3736481800909,572.373667200096,573.1342733799713,d,0,572.373667200096,573.1342733799713,573.1460377001204,574.7725958800177,0.7502507001627237,750.2507001627237,EMOCONPILOT016,2021_Jan_04_1202,EmoCon_Pilot_120Hz,2020.2.4,120.03476222004338,
,,,,1,0,1,0,60,0,60,0,,,,,,,,,,,,,,,,,,,,,,,,,,,,,,,,,,,,,,,,,,,,,,60,5.0,m,027_o_m_n_a.jpg,neutral,s,17,2,574.7787026001606,575.0725539800944,575.2925738000777,575.455096480134,575.4598115000408,575.4986499801046,575.5035945000127,576.245772279962,s,1,575.5035945000127,576.245772279962,576.2560023001861,577.9392662799685,0.7323578000068665,732.3578000068665,EMOCONPILOT016,2021_Jan_04_1202,EmoCon_Pilot_120Hz,2020.2.4,120.03476222004338,
,,,,1,0,1,0,61,0,61,0,,,,,,,,,,,,,,,,,,,,,,,,,,,,,,,,,,,,,,,,,,,,,,61,10.0,f,028_y_f_s_a.jpg,sad,a,17,2,577.9448394000065,578.239293380105,578.263685700018,578.3993110800395,578.4024310000241,578.4405242800015,578.4452490000986,579.0311862800038,a,1,578.4452490000986,579.0311862800038,579.0346138000023,580.5227424799698,0.5745180000085384,574.5180000085384,EMOCONPILOT016,2021_Jan_04_1202,EmoCon_Pilot_120Hz,2020.2.4,120.03476222004338,
,,,,1,0,1,0,62,0,62,0,,,,,,,,,,,,,,,,,,,,,,,,,,,,,,,,,,,,,,,,,,,,,,62,3.0,m,013_y_m_n_a.jpg,neutral,s,2,2,580.5268274000846,580.8226815801347,581.0640769000165,581.0809359801235,581.0813306001946,581.1202842799714,581.1253474999685,581.8791727800156,s,1,581.1253474999685,581.8791727800156,581.8910919001792,583.5393998801476,0.7426980999298394,742.6980999298394,EMOCONPILOT016,2021_Jan_04_1202,EmoCon_Pilot_120Hz,2020.2.4,120.03476222004338,
,,,,1,0,1,0,63,0,63,0,,,,,,,,,,,,,,,,,,,,,,,,,,,,,,,,,,,,,,,,,,,,,,63,4.0,m,016_y_m_s_a.jpg,sad,a,17,2,583.5454236001242,583.839390280121,583.8662978999782,583.9993965799688,584.0026108000893,584.0406853800407,584.0434547001496,584.802318580146,a,1,584.0434547001496,584.802318580146,584.8113208001014,586.3061186800944,0.7445145000237972,744.5145000237972,EMOCONPILOT016,2021_Jan_04_1202,EmoCon_Pilot_120Hz,2020.2.4,120.03476222004338,
,,,,1,0,1,0,64,0,64,0,,,,,,,,,,,,,,,,,,,,,,,,,,,,,,,,,,,,,,,,,,,,,,64,12.0,f,040_y_f_h_a.jpg,happy,d,2,2,586.309190500062,586.6060134800384,586.626021400094,586.6415168800625,586.6424534001853,586.6779083799804,586.6777300001122,587.4566929800669,d,1,586.6777300001122,587.4566929800669,587.4619877000805,588.9145905800863,0.7660817999858409,766.0817999858409,EMOCONPILOT016,2021_Jan_04_1202,EmoCon_Pilot_120Hz,2020.2.4,120.03476222004338,
,,,,1,0,1,0,65,0,65,0,,,,,,,,,,,,,,,,,,,,,,,,,,,,,,,,,,,,,,,,,,,,,,65,5.0,m,027_o_m_n_a.jpg,neutral,s,17,2,588.9201961001381,589.2146185801132,589.422938000178,589.5836581801298,589.5882003000006,589.6288094801596,589.6339309001341,590.2267364800675,d,0,589.6339309001341,590.2267364800675,590.2384413999971,591.7895667801379,0.586006100056693,586.006100056693,EMOCONPILOT016,2021_Jan_04_1202,EmoCon_Pilot_120Hz,2020.2.4,120.03476222004338,
,,,,1,0,1,0,66,0,66,0,,,,,,,,,,,,,,,,,,,,,,,,,,,,,,,,,,,,,,,,,,,,,,66,6.0,m,033_o_m_s_a.jpg,sad,a,2,2,591.795664299978,592.0895826799563,592.1115930001251,592.1268189800205,592.1279186999891,592.1657401799923,592.1671464999672,592.9481637800811,s,0,592.1671464999672,592.9481637800811,592.9562978001777,594.0895389799728,0.7726993001997471,772.6993001997471,EMOCONPILOT016,2021_Jan_04_1202,EmoCon_Pilot_120Hz,2020.2.4,120.03476222004338,
,,,,1,0,1,0,67,0,67,0,,,,,,,,,,,,,,,,,,,,,,,,,,,,,,,,,,,,,,,,,,,,,,67,6.0,m,033_o_m_h_a.jpg,happy,d,2,2,594.0920992000028,594.3896616801387,594.4049889000598,594.4205528799678,594.4214210000355,594.4574784801109,594.4575920000207,595.2267220799579,s,0,594.4575920000207,595.2267220799579,595.2343146000057,597.0063637801679,0.7543810999486595,754.3810999486595,EMOCONPILOT016,2021_Jan_04_1202,EmoCon_Pilot_120Hz,2020.2.4,120.03476222004338,
,,,,1,0,1,0,68,0,68,0,,,,,,,,,,,,,,,,,,,,,,,,,,,,,,,,,,,,,,,,,,,,,,68,2.0,m,008_y_m_s_a.jpg,sad,a,2,2,597.0104990000837,597.3064098799834,597.5417679999955,597.5585199801019,597.5585682000965,597.5995808799519,597.6045353000518,598.5113871800015,s,0,597.6045353000518,598.5113871800015,598.5229907999747,600.3315134799807,0.8954956000670791,895.4956000670791,EMOCONPILOT016,2021_Jan_04_1202,EmoCon_Pilot_120Hz,2020.2.4,120.03476222004338,
,,,,1,0,1,0,69,0,69,0,,,,,,,,,,,,,,,,,,,,,,,,,,,,,,,,,,,,,,,,,,,,,,69,1.0,m,004_o_m_n_a.jpg,neutral,s,17,2,600.3369609999936,600.6314804800088,600.8294614001643,600.9869340799517,600.9920853001531,601.031308880006,601.036461400101,601.5466306800256,s,1,601.036461400101,601.5466306800256,601.5583769001532,602.7814059801633,0.5036145998165011,503.61459981650114,EMOCONPILOT016,2021_Jan_04_1202,EmoCon_Pilot_120Hz,2020.2.4,120.03476222004338,
,,,,1,0,1,0,70,0,70,0,,,,,,,,,,,,,,,,,,,,,,,,,,,,,,,,,,,,,,,,,,,,,,70,2.0,m,008_y_m_s_a.jpg,sad,a,2,2,602.7856364999898,603.0815218800446,603.3178274000529,603.3348060801393,603.3348842000123,603.3692834800343,603.3689087000675,604.1560142800911,a,1,603.3689087000675,604.1560142800911,604.1633562999777,605.5232358800015,0.7710249999072403,771.0249999072403,EMOCONPILOT016,2021_Jan_04_1202,EmoCon_Pilot_120Hz,2020.2.4,120.03476222004338,
,,,,1,0,1,0,71,0,71,0,,,,,,,,,,,,,,,,,,,,,,,,,,,,,,,,,,,,,,,,,,,,,,71,11.0,f,030_o_f_n_a.jpg,neutral,s,17,2,605.5270163000096,605.8231279800414,606.0260815001093,606.1889810801251,606.1938331001438,606.2350368801738,606.2391932001337,606.9631585801719,a,0,606.2391932001337,606.9631585801719,606.9749364000745,608.0398673800985,0.7168153000529855,716.8153000529855,EMOCONPILOT016,2021_Jan_04_1202,EmoCon_Pilot_120Hz,2020.2.4,120.03476222004338,
,,,,1,0,1,0,72,0,72,0,,,,,,,,,,,,,,,,,,,,,,,,,,,,,,,,,,,,,,,,,,,,,,72,11.0,f,030_o_f_n_a.jpg,neutral,s,2,2,608.0439249000046,608.3399467800512,608.5311305001378,608.5481859801105,608.5489803999662,608.5838772800519,608.5851249999832,609.2514578801813,a,0,608.5851249999832,609.2514578801813,609.258439199999,610.6982603801182,0.6509980000555515,650.9980000555515,EMOCONPILOT016,2021_Jan_04_1202,EmoCon_Pilot_120Hz,2020.2.4,120.03476222004338,
,,,,1,0,1,0,73,0,73,0,,,,,,,,,,,,,,,,,,,,,,,,,,,,,,,,,,,,,,,,,,,,,,73,2.0,m,008_y_m_s_a.jpg,sad,a,2,2,610.701383800013,610.998313479987,611.2234271001071,611.2401576800505,611.2407594001852,611.2751141799847,611.2746062001679,611.8431307800813,a,1,611.2746062001679,611.8431307800813,611.8494879000355,613.79840258013,0.5533570998813957,553.3570998813957,EMOCONPILOT016,2021_Jan_04_1202,EmoCon_Pilot_120Hz,2020.2.4,120.03476222004338,
,,,,1,0,1,0,74,0,74,0,,,,,,,,,,,,,,,,,,,,,,,,,,,,,,,,,,,,,,,,,,,,,,74,11.0,f,030_o_f_n_a.jpg,neutral,s,2,2,613.8024377999827,614.0983470801032,614.3032804999966,614.3194632799598,614.3203032000456,614.3578827799531,614.359219300095,615.1913838800276,a,0,614.359219300095,615.1913838800276,615.2002848000266,616.6316372800386,0.8207062999717891,820.7062999717891,EMOCONPILOT016,2021_Jan_04_1202,EmoCon_Pilot_120Hz,2020.2.4,120.03476222004338,
,,,,1,0,1,0,75,0,75,0,,,,,,,,,,,,,,,,,,,,,,,,,,,,,,,,,,,,,,,,,,,,,,75,1.0,m,004_o_m_s_a.jpg,sad,a,17,2,616.6346758001018,616.9317910800921,616.9535991000012,617.0917187800399,617.094703800045,617.1330452800496,617.1362433000468,617.6912176801591,a,1,617.1362433000468,617.6912176801591,617.6992375999689,619.5151653801324,0.5476091001182795,547.6091001182795,EMOCONPILOT016,2021_Jan_04_1202,EmoCon_Pilot_120Hz,2020.2.4,120.03476222004338,
,,,,1,0,1,0,76,0,76,0,,,,,,,,,,,,,,,,,,,,,,,,,,,,,,,,,,,,,,,,,,,,,,76,3.0,m,013_y_m_n_a.jpg,neutral,s,2,2,619.519216600107,619.8151411799947,620.0505568999797,620.0679936801782,620.068898800062,620.1031519800192,620.103157900041,620.898413180071,s,1,620.103157900041,620.898413180071,620.9043281001505,622.0569250801811,0.7806148999370635,780.6148999370635,EMOCONPILOT016,2021_Jan_04_1202,EmoCon_Pilot_120Hz,2020.2.4,120.03476222004338,
,,,,1,0,1,0,77,0,77,0,,,,,,,,,,,,,,,,,,,,,,,,,,,,,,,,,,,,,,,,,,,,,,77,7.0,f,012_o_f_s_a.jpg,sad,a,2,2,622.0626173000783,622.3569503800711,622.3783497000113,622.3943043799839,622.3948937000241,622.429513580096,622.4298802001867,622.9072943801759,s,0,622.4298802001867,622.9072943801759,622.9143203999847,624.2402271799976,0.46998940012417734,469.98940012417734,EMOCONPILOT016,2021_Jan_04_1202,EmoCon_Pilot_120Hz,2020.2.4,120.03476222004338,
,,,,1,0,1,0,78,0,78,0,,,,,,,,,,,,,,,,,,,,,,,,,,,,,,,,,,,,,,,,,,,,,,78,12.0,f,040_y_f_n_a.jpg,neutral,s,2,2,624.2442857001442,624.5402449801798,624.7691552001052,624.7862479800126,624.7904322000686,624.8304593799869,624.8355505999643,625.3876982800896,s,1,624.8355505999643,625.3876982800896,625.3993485001847,627.3820829800563,0.5365455001592636,536.5455001592636,EMOCONPILOT016,2021_Jan_04_1202,EmoCon_Pilot_120Hz,2020.2.4,120.03476222004338,
,,,,1,0,1,0,79,0,79,0,,,,,,,,,,,,,,,,,,,,,,,,,,,,,,,,,,,,,,,,,,,,,,79,6.0,m,033_o_m_h_a.jpg,happy,d,2,2,627.3882799001876,627.6820920800558,627.7040089000948,627.7189722800861,627.7199664001819,627.7581978800474,627.7593290000223,628.4788336799713,d,1,627.7593290000223,628.4788336799713,628.4873150000349,630.3237748799613,0.7085357999894768,708.5357999894768,EMOCONPILOT016,2021_Jan_04_1202,EmoCon_Pilot_120Hz,2020.2.4,120.03476222004338,
,,,,1,0,1,0,80,0,80,0,,,,,,,,,,,,,,,,,,,,,,,,,,,,,,,,,,,,,,,,,,,,,,80,2.0,m,008_y_m_n_a.jpg,neutral,s,17,2,630.3268139001448,630.6237742800033,630.8571161001455,631.0217156800675,631.0265055000782,631.0677337801783,631.0726530000102,631.4914075801382,s,1,631.0726530000102,631.4914075801382,631.5019812001847,632.9321677800501,0.4034504999872297,403.4504999872297,EMOCONPILOT016,2021_Jan_04_1202,EmoCon_Pilot_120Hz,2020.2.4,120.03476222004338,
,,,,1,0,1,0,81,0,81,0,,,,,,,,,,,,,,,,,,,,,,,,,,,,,,,,,,,,,,,,,,,,,,81,12.0,f,040_y_f_h_a.jpg,happy,d,17,2,632.9365414001513,633.2321562801255,633.2566478000954,633.3922855799785,633.3970313000027,633.4379310800462,633.4426230001263,633.9727761800634,d,1,633.4426230001263,633.9727761800634,633.9835185999982,634.9820879799547,0.5214446000754833,521.4446000754833,EMOCONPILOT016,2021_Jan_04_1202,EmoCon_Pilot_120Hz,2020.2.4,120.03476222004338,
,,,,1,0,1,0,82,0,82,0,,,,,,,,,,,,,,,,,,,,,,,,,,,,,,,,,,,,,,,,,,,,,,82,9.0,f,021_o_f_h_a.jpg,happy,d,17,2,634.9861692001577,635.2821030799998,635.5002717000898,635.6614890801022,635.6658614000771,635.706603679969,635.7116914000362,636.0274645799539,d,1,635.7116914000362,636.0274645799539,636.0389640000649,637.2154893799918,0.30048219999298453,300.48219999298453,EMOCONPILOT016,2021_Jan_04_1202,EmoCon_Pilot_120Hz,2020.2.4,120.03476222004338,
,,,,1,0,1,0,83,0,83,0,,,,,,,,,,,,,,,,,,,,,,,,,,,,,,,,,,,,,,,,,,,,,,83,6.0,m,033_o_m_h_a.jpg,happy,d,2,2,637.2200997001491,637.5155992800603,637.5346745999996,637.5502427801723,637.5507592000067,637.5844048801112,637.5840659001842,638.3252631800017,d,1,637.5840659001842,638.3252631800017,638.332564700162,639.7822361799656,0.7318029999732971,731.8029999732971,EMOCONPILOT016,2021_Jan_04_1202,EmoCon_Pilot_120Hz,2020.2.4,120.03476222004338,
,,,,1,0,1,0,84,0,84,0,,,,,,,,,,,,,,,,,,,,,,,,,,,,,,,,,,,,,,,,,,,,,,84,2.0,m,008_y_m_n_a.jpg,neutral,s,17,2,639.7852265001275,640.0822312800913,640.3207229999825,640.4764059799957,640.481383100152,640.5214758801042,640.5267170001753,641.3935085799778,a,0,640.5267170001753,641.3935085799778,641.4046981001738,643.0740093800007,0.8532261999789625,853.2261999789625,EMOCONPILOT016,2021_Jan_04_1202,EmoCon_Pilot_120Hz,2020.2.4,120.03476222004338,
,,,,1,0,1,0,85,0,85,0,,,,,,,,,,,,,,,,,,,,,,,,,,,,,,,,,,,,,,,,,,,,,,85,10.0,f,028_y_f_n_a.jpg,neutral,s,17,2,643.0794518999755,643.3740820800188,643.5646048001945,643.7180531799561,643.7210580999963,643.7586117800558,643.7614701001439,644.4612737800228,s,1,643.7614701001439,644.4612737800228,644.4706994001754,645.4824512800435,0.690455500036478,690.455500036478,EMOCONPILOT016,2021_Jan_04_1202,EmoCon_Pilot_120Hz,2020.2.4,120.03476222004338,
,,,,1,0,1,0,86,0,86,0,,,,,,,,,,,,,,,,,,,,,,,,,,,,,,,,,,,,,,,,,,,,,,86,6.0,m,033_o_m_h_a.jpg,happy,d,2,2,645.4877339999657,645.782353580161,645.8072480000556,645.8220928799594,645.8229614000302,645.8586657800945,645.858664000174,646.6637957800879,d,1,645.858664000174,646.6637957800879,646.6732010999694,647.9824229801773,0.7934332001022995,793.4332001022995,EMOCONPILOT016,2021_Jan_04_1202,EmoCon_Pilot_120Hz,2020.2.4,120.03476222004338,
,,,,1,0,1,0,87,0,87,0,,,,,,,,,,,,,,,,,,,,,,,,,,,,,,,,,,,,,,,,,,,,,,87,5.0,m,027_o_m_s_a.jpg,sad,a,17,2,647.985489099985,648.2824257800123,648.2968152000103,648.4339426801773,648.4371166001074,648.4753586800537,648.4781943999697,649.2871498800116,a,1,648.4781943999697,649.2871498800116,649.29579260014,651.132494680048,0.79771179985255,797.71179985255,EMOCONPILOT016,2021_Jan_04_1202,EmoCon_Pilot_120Hz,2020.2.4,120.03476222004338,
,,,,1,0,1,0,88,0,88,0,,,,,,,,,,,,,,,,,,,,,,,,,,,,,,,,,,,,,,,,,,,,,,88,7.0,f,012_o_f_s_a.jpg,sad,a,2,2,651.1367177001666,651.4325113801053,651.4565467000939,651.4724588800921,651.4744035000913,651.5112725800602,651.5132925000507,652.175439580041,d,0,651.5132925000507,652.175439580041,652.1818687000778,653.3909453800181,0.6505842998158187,650.5842998158187,EMOCONPILOT016,2021_Jan_04_1202,EmoCon_Pilot_120Hz,2020.2.4,120.03476222004338,
,,,,1,0,1,0,89,0,89,0,,,,,,,,,,,,,,,,,,,,,,,,,,,,,,,,,,,,,,,,,,,,,,89,2.0,m,008_y_m_h_a.jpg,happy,d,17,2,653.3960482000839,653.6908737799852,653.7123245000839,653.8425225801068,653.8460768000223,653.8837350801798,653.8867846999783,654.3405841800152,d,1,653.8867846999783,654.3405841800152,654.3446540001314,655.6159190800274,0.44503719988279045,445.03719988279045,EMOCONPILOT016,2021_Jan_04_1202,EmoCon_Pilot_120Hz,2020.2.4,120.03476222004338,
,,,,1,0,1,0,90,0,90,0,,,,,,,,,,,,,,,,,,,,,,,,,,,,,,,,,,,,,,,,,,,,,,90,7.0,f,012_o_f_h_a.jpg,happy,d,2,2,655.6219840999693,655.9159992799862,655.93962560012,655.954363680142,655.9544285000302,655.9921840801137,655.9937889000867,657.0203171800124,s,0,655.9937889000867,657.0203171800124,657.0244428000879,658.4076892800397,1.018095700070262,1018.095700070262,EMOCONPILOT016,2021_Jan_04_1202,EmoCon_Pilot_120Hz,2020.2.4,120.03476222004338,
,,,,1,0,1,0,91,0,91,0,,,,,,,,,,,,,,,,,,,,,,,,,,,,,,,,,,,,,,,,,,,,,,91,10.0,f,028_y_f_s_a.jpg,sad,a,17,2,658.4128354000859,658.7076405800647,658.7309485001024,658.8676150801359,658.8712788000703,658.9103974801722,658.9148323000409,659.6486955801258,a,1,658.9148323000409,659.6486955801258,659.6538723001722,661.191088579991,0.7215535000432283,721.5535000432283,EMOCONPILOT016,2021_Jan_04_1202,EmoCon_Pilot_120Hz,2020.2.4,120.03476222004338,
,,,,1,0,1,0,92,0,92,0,,,,,,,,,,,,,,,,,,,,,,,,,,,,,,,,,,,,,,,,,,,,,,92,12.0,f,040_y_f_s_a.jpg,sad,a,17,2,661.195298000006,661.4910456800601,661.5143711001147,661.6510539801559,661.6545490000863,661.692221080116,661.6951292001177,662.4999186801026,a,1,661.6951292001177,662.4999186801026,662.5063770001289,663.7161341800122,0.7889094001147896,788.9094001147896,EMOCONPILOT016,2021_Jan_04_1202,EmoCon_Pilot_120Hz,2020.2.4,120.03476222004338,
,,,,1,0,1,0,93,0,93,0,,,,,,,,,,,,,,,,,,,,,,,,,,,,,,,,,,,,,,,,,,,,,,93,2.0,m,008_y_m_n_a.jpg,neutral,s,17,2,663.7220858000219,664.0160794799915,664.2692566001788,664.4281340799528,664.4326767001767,664.4734207800823,664.4785742000677,665.1475098800613,a,0,664.4785742000677,665.1475098800613,665.1571288001724,666.7662532801507,0.6614157999865711,661.4157999865711,EMOCONPILOT016,2021_Jan_04_1202,EmoCon_Pilot_120Hz,2020.2.4,120.03476222004338,
