trials_example.thisRepN,trials_example.thisTrialN,trials_example.thisN,trials_example.thisIndex,block.thisRepN,block.thisTrialN,block.thisN,block.thisIndex,trials_study.thisRepN,trials_study.thisTrialN,trials_study.thisN,trials_study.thisIndex,text_welcome.started,text_welcome.stopped,text_intro.started,text_intro.stopped,key_resp_intro.keys,key_resp_intro.started,key_resp_intro.stopped,text_intro2.started,text_intro2.stopped,key_resp_intro2.keys,key_resp_intro2.rt,key_resp_intro2.started,key_resp_intro2.stopped,example trial,personPrimeExample,genderPrimeExample,primeExample,emotionPrimeExample,corrAnsPrimeExample,example mask time,fix300_example.started,fix300_example.stopped,image_primer_example.started,image_primer_example.stopped,scrambled.started,scrambled.stopped,text_response_example.started,text_response_example.stopped,key_resp_example.keys,key_resp_example.corr,key_resp_example.rt,key_resp_example.rt in ms,key_resp_example.started,key_resp_example.stopped,Jitter_example.started,Jitter_example.stopped,text_start.started,text_start.stopped,text_pause.started,text_pause.stopped,key_resp_pause.keys,key_resp_pause.rt,key_resp_pause.rt in ms,key_resp_pause.started,key_resp_pause.stopped,study trial,personPrimeStudy,genderPrimeStudy,primeStudy,emotionPrimeStudy,corrAnsPrimeStudy,study mask time,Block,fix300_study.started,fix300_study.stopped,image_primer_study.started,image_primer_study.stopped,scrambled_study.started,scrambled_study.stopped,text_response_study.started,text_response_study.stopped,key_resp_study.keys,key_resp_study.corr,key_resp_study.started,key_resp_study.stopped,Jitter_study.started,Jitter_study.stopped,key_resp_study.rt,key_resp_study.rt in ms,participant,date,expName,psychopyVersion,frameRate,
,,,,,,,,,,,,186.52950880000026,189.52170204000012,189.52569109999968,195.50308224,None,189.52569109999968,195.50308224,,,,,,,,,,,,,,,,,,,,,,,,,,,,,,,,,,,,,,,,,,,,,,,,,,,,,,,,,,,,,,,EMOCONPILOT022,2021_Feb_18_1118,EmoCon_Pilot_120Hz,2020.2.4,119.89501992026129,
,,,,,,,,,,,,,,,,,,,195.50710900000013,198.2485783400003,a,2.729177499999423,195.50710900000013,198.2485783400003,,,,,,,,,,,,,,,,,,,,,,,,,,,,,,,,,,,,,,,,,,,,,,,,,,,,,,,,,EMOCONPILOT022,2021_Feb_18_1118,EmoCon_Pilot_120Hz,2020.2.4,119.89501992026129,
0,0,0,0,,,,,,,,,,,,,,,,,,,,,,0,3.0,f,1113_y_f_s_a.jpg,sad,a,17,198.2578623999998,198.54686993999948,199.44415440000012,199.60315544000022,199.6146134999999,199.65468323999957,199.66002949999984,200.3556236399996,a,1,0.6883564999998271,688.3564999998271,199.66002949999984,200.3556236399996,200.36179230000016,201.57185953999996,,,,,,,,,,,,,,,,,,,,,,,,,,,,,,,,,,EMOCONPILOT022,2021_Feb_18_1118,EmoCon_Pilot_120Hz,2020.2.4,119.89501992026129,
1,0,1,0,,,,,,,,,,,,,,,,,,,,,,1,1.0,m,1111_m_m_s_a.jpg,sad,a,17,201.5740636999999,201.8718856399997,202.08270019999964,202.24242844,202.24515040000006,202.28573233999995,202.2889535000004,203.68195744000022,a,1,1.3791873000000123,1379.1873000000123,202.2889535000004,203.68195744000022,203.68676440000036,205.3885590400001,,,,,,,,,,,,,,,,,,,,,,,,,,,,,,,,,,EMOCONPILOT022,2021_Feb_18_1118,EmoCon_Pilot_120Hz,2020.2.4,119.89501992026129,
2,0,2,0,,,,,,,,,,,,,,,,,,,,,,2,3.0,f,1113_y_f_n_a.jpg,neutral,s,17,205.38979540000037,205.68857283999986,205.90526839999984,206.06324963999995,206.06616510000003,206.10654573999963,206.1096308999995,207.35747904000036,s,1,1.2387865000000602,1238.7865000000602,206.1096308999995,207.35747904000036,207.36228539999956,209.20544703999948,,,,,,,,,,,,,,,,,,,,,,,,,,,,,,,,,,EMOCONPILOT022,2021_Feb_18_1118,EmoCon_Pilot_120Hz,2020.2.4,119.89501992026129,
3,0,3,0,,,,,,,,,,,,,,,,,,,,,,3,2.0,f,1112_m_f_h_a.jpg,happy,d,17,209.20688539999992,209.50544494000005,209.7212658999997,209.88340484,209.8856909999995,209.92620914000017,209.92941229999997,210.45793044,d,1,0.5148124999996071,514.8124999996071,209.92941229999997,210.45793044,210.46235030000025,211.54704344,,,,,,,,,,,,,,,,,,,,,,,,,,,,,,,,,,EMOCONPILOT022,2021_Feb_18_1118,EmoCon_Pilot_120Hz,2020.2.4,119.89501992026129,
4,0,4,0,,,,,,,,,,,,,,,,,,,,,,4,2.0,f,1112_m_f_n_a.jpg,neutral,s,17,211.54888849999952,211.8471156399997,212.06388069999957,212.2260976399999,212.22872949999964,212.26933103999963,212.27227370000037,213.2255505399995,s,1,0.9400868000002447,940.0868000002447,212.27227370000037,213.2255505399995,213.22831049999968,214.3221577399996,,,,,,,,,,,,,,,,,,,,,,,,,,,,,,,,,,EMOCONPILOT022,2021_Feb_18_1118,EmoCon_Pilot_120Hz,2020.2.4,119.89501992026129,
,,,,0,0,0,0,0,0,0,0,,,,,,,,,,,,,,,,,,,,,,,,,,,,,,,,,,,,,214.37891260000015,217.37224573999956,217.3785115999999,218.96562883999977,a,1.5776474999993297,1577.6474999993297,217.3785115999999,218.96562883999977,0,8.0,f,019_m_f_s_a.jpg,sad,a,3,1,218.97368920000008,219.26386234000037,219.8920847999998,219.91807363999996,219.91820339999958,219.9524173400001,219.9535632999996,221.52325353999967,None,0,219.9535632999996,221.52325353999967,221.52330110000003,223.21401764000038,,,EMOCONPILOT022,2021_Feb_18_1118,EmoCon_Pilot_120Hz,2020.2.4,119.89501992026129,
,,,,0,0,0,0,1,0,1,0,,,,,,,,,,,,,,,,,,,,,,,,,,,,,,,,,,,,,,,,,,,,,,1,6.0,m,033_o_m_n_a.jpg,neutral,s,3,1,223.2192728,223.51403423999963,223.7290135000003,223.75547163999963,223.75561990000006,223.79084284000018,223.79144889999952,225.46724133999996,None,0,223.79144889999952,225.46724133999996,225.47447869999996,227.00558023999983,,,EMOCONPILOT022,2021_Feb_18_1118,EmoCon_Pilot_120Hz,2020.2.4,119.89501992026129,
,,,,0,0,0,0,2,0,2,0,,,,,,,,,,,,,,,,,,,,,,,,,,,,,,,,,,,,,,,,,,,,,,2,2.0,m,008_y_m_s_a.jpg,sad,a,17,1,227.00846360000014,227.30567753999966,227.53435509999963,227.69991033999995,227.70436379999956,227.74491334000012,227.74997129999974,228.7405815400003,a,1,227.74997129999974,228.7405815400003,228.74863259999984,230.15569644000024,0.9743270999997549,974.3270999997549,EMOCONPILOT022,2021_Feb_18_1118,EmoCon_Pilot_120Hz,2020.2.4,119.89501992026129,
,,,,0,0,0,0,3,0,3,0,,,,,,,,,,,,,,,,,,,,,,,,,,,,,,,,,,,,,,,,,,,,,,3,11.0,f,030_o_f_h_a.jpg,happy,d,17,1,230.15902840000035,230.45583893999955,230.65086799999972,230.81084783999958,230.81454699999995,230.8549380399996,230.86007059999974,231.32319074000006,d,1,230.86007059999974,231.32319074000006,231.32510869999987,232.82248133999983,0.44808629999988625,448.08629999988625,EMOCONPILOT022,2021_Feb_18_1118,EmoCon_Pilot_120Hz,2020.2.4,119.89501992026129,
,,,,0,0,0,0,4,0,4,0,,,,,,,,,,,,,,,,,,,,,,,,,,,,,,,,,,,,,,,,,,,,,,4,11.0,f,030_o_f_s_a.jpg,sad,a,3,1,232.82780639999964,233.12247923999948,233.31733340000028,233.3434023400001,233.34438099999988,233.38201264000017,233.38208810000015,234.75209804000005,s,0,233.38208810000015,234.75209804000005,234.76371749999998,236.4392542399997,1.3580600999994203,1358.0600999994203,EMOCONPILOT022,2021_Feb_18_1118,EmoCon_Pilot_120Hz,2020.2.4,119.89501992026129,
,,,,0,0,0,0,5,0,5,0,,,,,,,,,,,,,,,,,,,,,,,,,,,,,,,,,,,,,,,,,,,,,,5,11.0,f,030_o_f_s_a.jpg,sad,a,3,1,236.4432885999995,236.7391830399998,236.9483965999998,236.9742191399997,236.97428219999983,237.0091265400002,237.00951580000037,238.6898592399999,None,0,237.00951580000037,238.6898592399999,238.69378460000007,239.91436974000007,,,EMOCONPILOT022,2021_Feb_18_1118,EmoCon_Pilot_120Hz,2020.2.4,119.89501992026129,
,,,,0,0,0,0,6,0,6,0,,,,,,,,,,,,,,,,,,,,,,,,,,,,,,,,,,,,,,,,,,,,,,6,5.0,m,027_o_m_n_a.jpg,neutral,s,17,1,239.9186639999998,240.21426584000037,240.4208110999998,240.5801857399998,240.5847186000001,240.6249478400001,240.6297515999995,242.00477133999956,s,1,240.6297515999995,242.00477133999956,242.01315599999998,243.72269923999974,1.3583846000001358,1358.3846000001358,EMOCONPILOT022,2021_Feb_18_1118,EmoCon_Pilot_120Hz,2020.2.4,119.89501992026129,
,,,,0,0,0,0,7,0,7,0,,,,,,,,,,,,,,,,,,,,,,,,,,,,,,,,,,,,,,,,,,,,,,7,8.0,f,019_m_f_n_a.jpg,neutral,s,17,1,243.72687580000002,244.0226642399999,244.26045729999987,244.4203408399995,244.42522540000027,244.46555763999967,244.47048610000002,245.50048974,s,1,244.47048610000002,245.50048974,245.5061609000004,247.28939813999986,1.0214956999998321,1021.4956999998321,EMOCONPILOT022,2021_Feb_18_1118,EmoCon_Pilot_120Hz,2020.2.4,119.89501992026129,
,,,,0,0,0,0,8,0,8,0,,,,,,,,,,,,,,,,,,,,,,,,,,,,,,,,,,,,,,,,,,,,,,8,5.0,m,027_o_m_h_a.jpg,happy,d,17,1,247.2940853,247.58941344000013,247.79966989999957,247.96782753999977,247.97124179999992,248.01235244000017,248.0172333999999,248.63492594,d,1,248.0172333999999,248.63492594,248.6433449999995,250.08111963999963,0.6107350000002043,610.7350000002043,EMOCONPILOT022,2021_Feb_18_1118,EmoCon_Pilot_120Hz,2020.2.4,119.89501992026129,
,,,,0,0,0,0,9,0,9,0,,,,,,,,,,,,,,,,,,,,,,,,,,,,,,,,,,,,,,,,,,,,,,9,8.0,f,019_m_f_n_a.jpg,neutral,s,17,1,250.08566340000016,250.3811848399997,250.61744679999993,250.77625513999973,250.77980790000038,250.82046283999952,250.82549289999952,251.62577224000015,s,1,250.82549289999952,251.62577224000015,251.62879950000024,252.7396084400003,0.786508799999865,786.508799999865,EMOCONPILOT022,2021_Feb_18_1118,EmoCon_Pilot_120Hz,2020.2.4,119.89501992026129,
,,,,0,0,0,0,10,0,10,0,,,,,,,,,,,,,,,,,,,,,,,,,,,,,,,,,,,,,,,,,,,,,,10,11.0,f,030_o_f_h_a.jpg,happy,d,3,1,252.74525790000007,253.0396309399999,253.24258720000034,253.26963933999977,253.26988720000008,253.30723454000017,253.30838630000017,254.07335613999985,d,1,253.30838630000017,254.07335613999985,254.08226449999984,255.33962133999975,0.7516834999996718,751.6834999996718,EMOCONPILOT022,2021_Feb_18_1118,EmoCon_Pilot_120Hz,2020.2.4,119.89501992026129,
,,,,0,0,0,0,11,0,11,0,,,,,,,,,,,,,,,,,,,,,,,,,,,,,,,,,,,,,,,,,,,,,,11,3.0,m,013_y_m_s_a.jpg,sad,a,3,1,255.34398409999994,255.63947914000036,255.75416789999963,255.77592333999982,255.7765588000002,255.8157936399999,255.81727469999987,257.01194283999996,s,0,255.81727469999987,257.01194283999996,257.02135629999975,258.5729378399998,1.1788807000002635,1178.8807000002635,EMOCONPILOT022,2021_Feb_18_1118,EmoCon_Pilot_120Hz,2020.2.4,119.89501992026129,
,,,,0,0,0,0,12,0,12,0,,,,,,,,,,,,,,,,,,,,,,,,,,,,,,,,,,,,,,,,,,,,,,12,12.0,f,040_y_f_n_a.jpg,neutral,s,17,1,258.5782362,258.87296063999986,259.36533469999995,259.5222883399998,259.52720059999956,259.56829514000003,259.5736035,261.2946994399996,s,1,259.5736035,261.2946994399996,261.3030183999999,263.04804083999954,1.710442000000512,1710.442000000512,EMOCONPILOT022,2021_Feb_18_1118,EmoCon_Pilot_120Hz,2020.2.4,119.89501992026129,
,,,,0,0,0,0,13,0,13,0,,,,,,,,,,,,,,,,,,,,,,,,,,,,,,,,,,,,,,,,,,,,,,13,12.0,f,040_y_f_h_a.jpg,happy,d,3,1,263.0510656999995,263.34792944000003,263.37546629999997,263.3980036400004,263.3983208999998,263.4349954400001,263.4353365999996,264.21674124000003,d,1,263.4353365999996,264.21674124000003,264.22328899999957,265.39802704000033,0.7690993999995044,769.0993999995044,EMOCONPILOT022,2021_Feb_18_1118,EmoCon_Pilot_120Hz,2020.2.4,119.89501992026129,
,,,,0,0,0,0,14,0,14,0,,,,,,,,,,,,,,,,,,,,,,,,,,,,,,,,,,,,,,,,,,,,,,14,7.0,f,012_o_f_h_a.jpg,happy,d,17,1,265.40136410000014,265.6979763400001,265.72359400000005,265.8580198400001,265.86007489999974,265.8992982400001,265.90083649999997,266.64633793999985,d,1,265.90083649999997,266.64633793999985,266.6555193000004,268.50655754,0.7352118999997401,735.2118999997401,EMOCONPILOT022,2021_Feb_18_1118,EmoCon_Pilot_120Hz,2020.2.4,119.89501992026129,
,,,,0,0,0,0,15,0,15,0,,,,,,,,,,,,,,,,,,,,,,,,,,,,,,,,,,,,,,,,,,,,,,15,9.0,f,021_o_f_n_a.jpg,neutral,s,17,1,268.51108360000035,268.80650023999954,269.048863,269.2059195400003,269.2090062999996,269.24607014000014,269.24877060000017,270.51457584,s,1,269.24877060000017,270.51457584,270.52383139999984,271.93155644,1.251389800000652,1251.389800000652,EMOCONPILOT022,2021_Feb_18_1118,EmoCon_Pilot_120Hz,2020.2.4,119.89501992026129,
,,,,0,0,0,0,16,0,16,0,,,,,,,,,,,,,,,,,,,,,,,,,,,,,,,,,,,,,,,,,,,,,,16,10.0,f,028_y_f_s_a.jpg,sad,a,17,1,271.93528609999976,272.2315615399999,272.2568103000003,272.39174134000007,272.3951788000004,272.4332713399996,272.43635149999955,273.89284264000037,s,0,272.43635149999955,273.89284264000037,273.9000877999997,275.1315668399999,1.4476572000003216,1447.6572000003216,EMOCONPILOT022,2021_Feb_18_1118,EmoCon_Pilot_120Hz,2020.2.4,119.89501992026129,
,,,,0,0,0,0,17,0,17,0,,,,,,,,,,,,,,,,,,,,,,,,,,,,,,,,,,,,,,,,,,,,,,17,10.0,f,028_y_f_h_a.jpg,happy,d,17,1,275.13609759999963,275.43163523999976,275.4491926999999,275.58329474000004,275.58684619999985,275.6245214400002,275.62865169999986,276.2117744399999,d,1,275.62865169999986,276.2117744399999,276.2237845999998,278.13170244000014,0.5676110000003973,567.6110000003973,EMOCONPILOT022,2021_Feb_18_1118,EmoCon_Pilot_120Hz,2020.2.4,119.89501992026129,
,,,,0,0,0,0,18,0,18,0,,,,,,,,,,,,,,,,,,,,,,,,,,,,,,,,,,,,,,,,,,,,,,18,9.0,f,021_o_f_h_a.jpg,happy,d,3,1,278.1374624,278.4316867399999,278.84083720000035,278.86671074000026,278.8669536999996,278.9022582399999,278.9027506000002,279.6735035400003,d,1,278.9027506000002,279.6735035400003,279.67997600000035,281.2650569399999,0.7572721999995338,757.2721999995338,EMOCONPILOT022,2021_Feb_18_1118,EmoCon_Pilot_120Hz,2020.2.4,119.89501992026129,
,,,,0,0,0,0,19,0,19,0,,,,,,,,,,,,,,,,,,,,,,,,,,,,,,,,,,,,,,,,,,,,,,19,6.0,m,033_o_m_h_a.jpg,happy,d,17,1,281.26922749999994,281.56512134000025,281.60106089999954,281.7335246400004,281.7341223000003,281.77480024,281.77414359999966,282.3954714400003,d,1,281.77414359999966,282.3954714400003,282.4036594999998,283.8567447399997,0.6140672000001359,614.0672000001359,EMOCONPILOT022,2021_Feb_18_1118,EmoCon_Pilot_120Hz,2020.2.4,119.89501992026129,
,,,,0,0,0,0,20,0,20,0,,,,,,,,,,,,,,,,,,,,,,,,,,,,,,,,,,,,,,,,,,,,,,20,1.0,m,004_o_m_h_a.jpg,happy,d,17,1,283.86049530000037,284.15689213999997,284.37414759999956,284.53536864,284.53893869999956,284.5798773399998,284.5846825999997,285.4365693400001,d,1,284.5846825999997,285.4365693400001,285.44861330000003,287.0235253400002,0.8434812999994392,843.4812999994392,EMOCONPILOT022,2021_Feb_18_1118,EmoCon_Pilot_120Hz,2020.2.4,119.89501992026129,
,,,,0,0,0,0,21,0,21,0,,,,,,,,,,,,,,,,,,,,,,,,,,,,,,,,,,,,,,,,,,,,,,21,2.0,m,008_y_m_s_a.jpg,sad,a,3,1,287.0263219999997,287.3234616400001,287.55987730000015,287.5853645399999,287.5860376999999,287.6204582400002,287.62022999999954,288.5296275400002,a,1,287.62022999999954,288.5296275400002,288.5387424999999,290.37354493999976,0.8958499000000302,895.8499000000302,EMOCONPILOT022,2021_Feb_18_1118,EmoCon_Pilot_120Hz,2020.2.4,119.89501992026129,
,,,,0,0,0,0,22,0,22,0,,,,,,,,,,,,,,,,,,,,,,,,,,,,,,,,,,,,,,,,,,,,,,22,4.0,m,016_y_m_s_a.jpg,sad,a,3,1,290.37830060000033,290.67356884000003,290.6935328999998,290.7163654399998,290.71697829999994,290.7528089399999,290.7537106,291.58095024000033,d,0,290.7537106,291.58095024000033,291.5891689,293.1069549399996,0.8183717000001707,818.3717000001707,EMOCONPILOT022,2021_Feb_18_1118,EmoCon_Pilot_120Hz,2020.2.4,119.89501992026129,
,,,,0,0,0,0,23,0,23,0,,,,,,,,,,,,,,,,,,,,,,,,,,,,,,,,,,,,,,,,,,,,,,23,8.0,f,019_m_f_h_a.jpg,happy,d,17,1,293.11078949999956,293.40696893999996,293.4242215000004,293.5586420400001,293.5622102999996,293.6011110400001,293.6047090000002,294.22974313999987,d,1,293.6047090000002,294.22974313999987,294.24052219999976,296.12365743999965,0.6154274999998961,615.4274999998961,EMOCONPILOT022,2021_Feb_18_1118,EmoCon_Pilot_120Hz,2020.2.4,119.89501992026129,
,,,,0,0,0,0,24,0,24,0,,,,,,,,,,,,,,,,,,,,,,,,,,,,,,,,,,,,,,,,,,,,,,24,8.0,f,019_m_f_h_a.jpg,happy,d,17,1,296.12769560000015,296.4236528400003,296.44682290000037,296.5836739399998,296.5872879999997,296.62745744000006,296.63165599999957,297.20468244000006,d,1,296.63165599999957,297.20468244000006,297.2129566000003,298.2737075399997,0.5563971000001402,556.3971000001402,EMOCONPILOT022,2021_Feb_18_1118,EmoCon_Pilot_120Hz,2020.2.4,119.89501992026129,
,,,,0,0,0,0,25,0,25,0,,,,,,,,,,,,,,,,,,,,,,,,,,,,,,,,,,,,,,,,,,,,,,25,4.0,m,016_y_m_n_a.jpg,neutral,s,17,1,298.27770260000034,298.5736887399995,298.8188670999998,298.9788366400004,298.9839087999999,299.0247084400004,299.0297362000001,300.34449493999966,a,0,299.0297362000001,300.34449493999966,300.35392070000034,301.4655019400003,1.3024553000004744,1302.4553000004744,EMOCONPILOT022,2021_Feb_18_1118,EmoCon_Pilot_120Hz,2020.2.4,119.89501992026129,
,,,,0,0,0,0,26,0,26,0,,,,,,,,,,,,,,,,,,,,,,,,,,,,,,,,,,,,,,,,,,,,,,26,4.0,m,016_y_m_h_a.jpg,happy,d,3,1,301.46869100000004,301.76535983999986,301.7929981999996,301.8154952399997,301.8161672999995,301.8532174400003,301.8536678999999,302.59731453999996,d,1,301.8536678999999,302.59731453999996,302.6054666,303.89055754000003,0.7343207999992956,734.3207999992956,EMOCONPILOT022,2021_Feb_18_1118,EmoCon_Pilot_120Hz,2020.2.4,119.89501992026129,
,,,,0,0,0,0,27,0,27,0,,,,,,,,,,,,,,,,,,,,,,,,,,,,,,,,,,,,,,,,,,,,,,27,8.0,f,019_m_f_h_a.jpg,happy,d,17,1,303.89496080000026,304.1905523399997,304.2141806999998,304.35069824000004,304.3542427000002,304.39312333999953,304.39650679999977,305.0618238399999,d,1,304.39650679999977,305.0618238399999,305.06559279999965,306.1571871399998,0.6554765000000771,655.4765000000771,EMOCONPILOT022,2021_Feb_18_1118,EmoCon_Pilot_120Hz,2020.2.4,119.89501992026129,
,,,,0,0,0,0,28,0,28,0,,,,,,,,,,,,,,,,,,,,,,,,,,,,,,,,,,,,,,,,,,,,,,28,8.0,f,019_m_f_s_a.jpg,sad,a,3,1,306.1612460999995,306.45722444000023,306.71412919999966,306.7397194399997,306.74006949999966,306.77505994000023,306.7747002999995,307.8713145400003,a,1,306.7747002999995,307.8713145400003,307.8830802000002,309.2823026399998,1.0855664999999135,1085.5664999999135,EMOCONPILOT022,2021_Feb_18_1118,EmoCon_Pilot_120Hz,2020.2.4,119.89501992026129,
,,,,0,0,0,0,29,0,29,0,,,,,,,,,,,,,,,,,,,,,,,,,,,,,,,,,,,,,,,,,,,,,,29,10.0,f,028_y_f_n_a.jpg,neutral,s,3,1,309.28771770000003,309.5822922399999,309.7885374999996,309.81413313999985,309.81455749999986,309.85010443999965,309.85027569999966,310.91107324000006,s,1,309.85027569999966,310.91107324000006,310.91960800000015,312.62409353999976,1.0501936999999089,1050.1936999999089,EMOCONPILOT022,2021_Feb_18_1118,EmoCon_Pilot_120Hz,2020.2.4,119.89501992026129,
,,,,0,0,0,0,30,0,30,0,,,,,,,,,,,,,,,,,,,,,,,,,,,,,,,,,,,,,,,,,,,,,,30,12.0,f,040_y_f_n_a.jpg,neutral,s,17,1,312.62824610000007,312.92406274000007,313.1320039000002,313.2999241399999,313.3036919999995,313.3444768400001,313.34870580000006,314.10051274,s,1,313.34870580000006,314.10051274,314.1092362999998,315.23221413999966,0.743521200000032,743.521200000032,EMOCONPILOT022,2021_Feb_18_1118,EmoCon_Pilot_120Hz,2020.2.4,119.89501992026129,
,,,,0,0,0,0,31,0,31,0,,,,,,,,,,,,,,,,,,,,,,,,,,,,,,,,,,,,,,,,,,,,,,31,5.0,m,027_o_m_n_a.jpg,neutral,s,17,1,315.23296279999977,315.5320810399995,315.74486739999975,315.89785944000016,315.8979239,315.9343515400002,315.9339735000003,316.7185125399998,s,1,315.9339735000003,316.7185125399998,316.7248725999998,317.7491513399997,0.7741563999998107,774.1563999998107,EMOCONPILOT022,2021_Feb_18_1118,EmoCon_Pilot_120Hz,2020.2.4,119.89501992026129,
,,,,0,0,0,0,32,0,32,0,,,,,,,,,,,,,,,,,,,,,,,,,,,,,,,,,,,,,,,,,,,,,,32,8.0,f,019_m_f_n_a.jpg,neutral,s,3,1,317.75467500000013,318.04922813999985,318.3022936999996,318.32870713999966,318.3295865,318.36700754000015,318.3683621,319.79475843999955,d,0,318.3683621,319.79475843999955,319.80411379999987,321.4825461400002,1.4116922000002887,1411.6922000002887,EMOCONPILOT022,2021_Feb_18_1118,EmoCon_Pilot_120Hz,2020.2.4,119.89501992026129,
,,,,0,0,0,0,33,0,33,0,,,,,,,,,,,,,,,,,,,,,,,,,,,,,,,,,,,,,,,,,,,,,,33,4.0,m,016_y_m_n_a.jpg,neutral,s,3,1,321.4854641000002,321.7824838399998,322.01697239999976,322.04295804000014,322.0428007999999,322.07887514000015,322.0792843999998,322.9255990400003,s,1,322.0792843999998,322.9255990400003,322.9373593999999,324.84091304000015,0.8369660999996995,836.9660999996995,EMOCONPILOT022,2021_Feb_18_1118,EmoCon_Pilot_120Hz,2020.2.4,119.89501992026129,
,,,,0,0,0,0,34,0,34,0,,,,,,,,,,,,,,,,,,,,,,,,,,,,,,,,,,,,,,,,,,,,,,34,11.0,f,030_o_f_n_a.jpg,neutral,s,3,1,324.8437273999998,325.1409038400003,325.3400372999995,325.36618604000034,325.3666215000003,325.40101363999986,325.4015679000004,326.4688406399997,s,1,325.4015679000004,326.4688406399997,326.4817843000001,327.49931874000015,1.050575299999764,1050.575299999764,EMOCONPILOT022,2021_Feb_18_1118,EmoCon_Pilot_120Hz,2020.2.4,119.89501992026129,
,,,,0,0,0,0,35,0,35,0,,,,,,,,,,,,,,,,,,,,,,,,,,,,,,,,,,,,,,,,,,,,,,35,9.0,f,021_o_f_h_a.jpg,happy,d,3,1,327.5047377000001,327.7993217399995,328.0130982999999,328.0390510399999,328.0399126000002,328.0759894400004,328.07654980000007,329.0726500400002,d,1,328.07654980000007,329.0726500400002,329.08151850000013,330.8411426400004,0.9838641999995161,983.8641999995161,EMOCONPILOT022,2021_Feb_18_1118,EmoCon_Pilot_120Hz,2020.2.4,119.89501992026129,
,,,,0,0,0,0,36,0,36,0,,,,,,,,,,,,,,,,,,,,,,,,,,,,,,,,,,,,,,,,,,,,,,36,11.0,f,030_o_f_s_a.jpg,sad,a,3,1,330.84662709999975,331.1409859399997,331.3283392000003,331.35460344000023,331.35574480000014,331.39220713999987,331.3924780999996,332.6281732399999,a,1,331.3924780999996,332.6281732399999,332.63418230000025,334.11617543999967,1.2274078999998892,1227.4078999998892,EMOCONPILOT022,2021_Feb_18_1118,EmoCon_Pilot_120Hz,2020.2.4,119.89501992026129,
,,,,0,0,0,0,37,0,37,0,,,,,,,,,,,,,,,,,,,,,,,,,,,,,,,,,,,,,,,,,,,,,,37,12.0,f,040_y_f_n_a.jpg,neutral,s,17,1,334.1214203999998,334.4161123399996,334.62872960000004,334.78761473999987,334.7923625000003,334.83337103999986,334.83832299999995,335.63432903999967,s,1,334.83832299999995,335.63432903999967,335.6400402999998,337.2744572400003,0.7815060000002632,781.5060000002632,EMOCONPILOT022,2021_Feb_18_1118,EmoCon_Pilot_120Hz,2020.2.4,119.89501992026129,
,,,,0,0,0,0,38,0,38,0,,,,,,,,,,,,,,,,,,,,,,,,,,,,,,,,,,,,,,,,,,,,,,38,9.0,f,021_o_f_s_a.jpg,sad,a,17,1,337.2784316999996,337.5745044399997,337.60341379999954,337.73541093999995,337.73962570000003,337.78036834000034,337.78551419999985,338.5802064400001,a,1,337.78551419999985,338.5802064400001,338.58749160000025,339.68279333999965,0.7784765999995216,778.4765999995216,EMOCONPILOT022,2021_Feb_18_1118,EmoCon_Pilot_120Hz,2020.2.4,119.89501992026129,
,,,,0,0,0,0,39,0,39,0,,,,,,,,,,,,,,,,,,,,,,,,,,,,,,,,,,,,,,,,,,,,,,39,4.0,m,016_y_m_n_a.jpg,neutral,s,3,1,339.6860622000004,339.9829244400004,340.22426110000015,340.2490739399997,340.24985319999996,340.2857761399997,340.28542540000035,341.21668764000026,s,1,340.28542540000035,341.21668764000026,341.22400019999986,342.62455553999973,0.9189366000000518,918.9366000000518,EMOCONPILOT022,2021_Feb_18_1118,EmoCon_Pilot_120Hz,2020.2.4,119.89501992026129,
,,,,0,0,0,0,40,0,40,0,,,,,,,,,,,,,,,,,,,,,,,,,,,,,,,,,,,,,,,,,,,,,,40,9.0,f,021_o_f_s_a.jpg,sad,a,17,1,342.6304448000001,342.9245742399995,342.9384874999996,343.07625403999975,343.0814865000002,343.12197314000025,343.1268823999999,343.9770832399996,a,1,343.1268823999999,343.9770832399996,343.9829275000002,345.6747014400004,0.8369430000002467,836.9430000002467,EMOCONPILOT022,2021_Feb_18_1118,EmoCon_Pilot_120Hz,2020.2.4,119.89501992026129,
,,,,0,0,0,0,41,0,41,0,,,,,,,,,,,,,,,,,,,,,,,,,,,,,,,,,,,,,,,,,,,,,,41,11.0,f,030_o_f_h_a.jpg,happy,d,3,1,345.67947410000033,345.97464533999994,346.1775686000001,346.20428054000024,346.20423049999954,346.2405413399998,346.24066370000037,347.35009093999963,d,1,346.24066370000037,347.35009093999963,347.3585890000004,348.47469374000013,1.0994107000005897,1099.4107000005897,EMOCONPILOT022,2021_Feb_18_1118,EmoCon_Pilot_120Hz,2020.2.4,119.89501992026129,
,,,,0,0,0,0,42,0,42,0,,,,,,,,,,,,,,,,,,,,,,,,,,,,,,,,,,,,,,,,,,,,,,42,4.0,m,016_y_m_h_a.jpg,happy,d,17,1,348.4789224999995,348.7747920400003,348.78799700000036,348.92625694000037,348.9291813,348.96756384,348.96978409999974,349.43465053999955,d,1,348.96978409999974,349.43465053999955,349.44269090000034,350.92465393999976,0.45043229999919276,450.43229999919276,EMOCONPILOT022,2021_Feb_18_1118,EmoCon_Pilot_120Hz,2020.2.4,119.89501992026129,
,,,,0,0,0,0,43,0,43,0,,,,,,,,,,,,,,,,,,,,,,,,,,,,,,,,,,,,,,,,,,,,,,43,1.0,m,004_o_m_s_a.jpg,sad,a,17,1,350.92746389999957,351.22464574000026,351.2493459999996,351.38482004000036,351.38962319999973,351.4302306400001,351.4342305,352.0569203399997,a,1,351.4342305,352.0569203399997,352.06422740000016,353.65813213999957,0.6096307999996498,609.6307999996498,EMOCONPILOT022,2021_Feb_18_1118,EmoCon_Pilot_120Hz,2020.2.4,119.89501992026129,
,,,,0,0,0,0,44,0,44,0,,,,,,,,,,,,,,,,,,,,,,,,,,,,,,,,,,,,,,,,,,,,,,44,4.0,m,016_y_m_h_a.jpg,happy,d,3,1,353.6609413999995,353.95814763999954,353.9782531000001,354.0008917399997,354.00156179999976,354.0364065399996,354.03626220000024,355.04356833999975,d,1,354.03626220000024,355.04356833999975,355.05207080000037,357.0332822400002,0.9917788000002474,991.7788000002474,EMOCONPILOT022,2021_Feb_18_1118,EmoCon_Pilot_120Hz,2020.2.4,119.89501992026129,
,,,,0,0,0,0,45,0,45,0,,,,,,,,,,,,,,,,,,,,,,,,,,,,,,,,,,,,,,,,,,,,,,45,7.0,f,012_o_f_s_a.jpg,sad,a,17,1,357.03880670000035,357.33314373999985,357.36239190000015,357.49336814000037,357.4978374000002,357.5385596399998,357.54377509999995,358.2116716400002,a,1,357.54377509999995,358.2116716400002,358.2250664000003,359.67489673999955,0.6603250999996817,660.3250999996817,EMOCONPILOT022,2021_Feb_18_1118,EmoCon_Pilot_120Hz,2020.2.4,119.89501992026129,
,,,,0,0,0,0,46,0,46,0,,,,,,,,,,,,,,,,,,,,,,,,,,,,,,,,,,,,,,,,,,,,,,46,8.0,f,019_m_f_n_a.jpg,neutral,s,3,1,359.6779094000003,359.97492143999955,360.2675012999998,360.29340404000015,360.29425489999994,360.3287685399997,360.3284205,361.55864583999994,s,1,360.3284205,361.55864583999994,361.5671929,363.0498790400003,1.2197085999996489,1219.7085999996489,EMOCONPILOT022,2021_Feb_18_1118,EmoCon_Pilot_120Hz,2020.2.4,119.89501992026129,
,,,,0,0,0,0,47,0,47,0,,,,,,,,,,,,,,,,,,,,,,,,,,,,,,,,,,,,,,,,,,,,,,47,2.0,m,008_y_m_h_a.jpg,happy,d,17,1,363.0528961,363.3501114400002,363.38036529999954,363.51835454000013,363.52204170000005,363.5618530400003,363.5661098999999,364.6041441399999,d,1,363.5661098999999,364.6041441399999,364.61262890000035,366.44170524000003,1.0218400000003385,1021.8400000003385,EMOCONPILOT022,2021_Feb_18_1118,EmoCon_Pilot_120Hz,2020.2.4,119.89501992026129,
,,,,0,0,0,0,48,0,48,0,,,,,,,,,,,,,,,,,,,,,,,,,,,,,,,,,,,,,,,,,,,,,,48,12.0,f,040_y_f_n_a.jpg,neutral,s,17,1,366.44587859999956,366.74182514000006,366.9749933000003,367.1421386400003,367.1466112999997,367.18782973999953,367.19182,368.01377104000005,s,1,367.19182,368.01377104000005,368.0220989999998,369.58333644000015,0.8123341000000437,812.3341000000437,EMOCONPILOT022,2021_Feb_18_1118,EmoCon_Pilot_120Hz,2020.2.4,119.89501992026129,
,,,,0,0,0,0,49,0,49,0,,,,,,,,,,,,,,,,,,,,,,,,,,,,,,,,,,,,,,,,,,,,,,49,11.0,f,030_o_f_n_a.jpg,neutral,s,3,1,369.5862353000002,369.88333083999953,370.0780195999996,370.1049549400001,370.10573939999995,370.1428931400002,370.14414149999993,371.2132754399996,s,1,370.14414149999993,371.2132754399996,371.2230018,373.2085445400004,1.0598082999995313,1059.8082999995313,EMOCONPILOT022,2021_Feb_18_1118,EmoCon_Pilot_120Hz,2020.2.4,119.89501992026129,
,,,,0,0,0,0,50,0,50,0,,,,,,,,,,,,,,,,,,,,,,,,,,,,,,,,,,,,,,,,,,,,,,50,8.0,f,019_m_f_h_a.jpg,happy,d,17,1,373.2116759999999,373.50859683999954,373.5333792000001,373.6685117399999,373.67187449999983,373.7120144400002,373.7161231,374.3336256400004,d,1,373.7161231,374.3336256400004,374.34509530000014,375.8001798399997,0.6080584999999701,608.0584999999701,EMOCONPILOT022,2021_Feb_18_1118,EmoCon_Pilot_120Hz,2020.2.4,119.89501992026129,
,,,,0,0,0,0,51,0,51,0,,,,,,,,,,,,,,,,,,,,,,,,,,,,,,,,,,,,,,,,,,,,,,51,8.0,f,019_m_f_n_a.jpg,neutral,s,3,1,375.80431959999987,376.1002411400001,376.3478150000001,376.3739620399998,376.3740004000001,376.4097802399998,376.4098468000002,377.38740323999957,s,1,376.4098468000002,377.38740323999957,377.3947672000004,378.6920636399997,0.9701347000000169,970.1347000000169,EMOCONPILOT022,2021_Feb_18_1118,EmoCon_Pilot_120Hz,2020.2.4,119.89501992026129,
,,,,0,0,0,0,52,0,52,0,,,,,,,,,,,,,,,,,,,,,,,,,,,,,,,,,,,,,,,,,,,,,,52,12.0,f,040_y_f_n_a.jpg,neutral,s,3,1,378.6963556999999,378.99195354000005,379.22426910000013,379.24949444000015,379.25041390000024,379.2869349400004,379.2877301999997,380.5634244400004,s,1,379.2877301999997,380.5634244400004,380.5716430000002,382.0837658400002,1.2603246999997282,1260.3246999997282,EMOCONPILOT022,2021_Feb_18_1118,EmoCon_Pilot_120Hz,2020.2.4,119.89501992026129,
,,,,0,0,0,0,53,0,53,0,,,,,,,,,,,,,,,,,,,,,,,,,,,,,,,,,,,,,,,,,,,,,,53,9.0,f,021_o_f_h_a.jpg,happy,d,3,1,382.0883407000001,382.38378574,382.5961163000002,382.6225682399996,382.62290680000024,382.6599267400003,382.6613685000002,384.2696144400003,None,0,382.6613685000002,384.2696144400003,384.2748904,385.9421608400004,,,EMOCONPILOT022,2021_Feb_18_1118,EmoCon_Pilot_120Hz,2020.2.4,119.89501992026129,
,,,,0,0,0,0,54,0,54,0,,,,,,,,,,,,,,,,,,,,,,,,,,,,,,,,,,,,,,,,,,,,,,54,2.0,m,008_y_m_n_a.jpg,neutral,s,17,1,385.9470773000003,386.24208934,386.4744060000003,386.63752204000014,386.63964450000003,386.67750244,386.6812748000002,387.40435003999994,s,1,386.6812748000002,387.40435003999994,387.4144821,388.51722734,0.7146644999993441,714.6644999993441,EMOCONPILOT022,2021_Feb_18_1118,EmoCon_Pilot_120Hz,2020.2.4,119.89501992026129,
,,,,0,0,0,0,55,0,55,0,,,,,,,,,,,,,,,,,,,,,,,,,,,,,,,,,,,,,,,,,,,,,,55,10.0,f,028_y_f_n_a.jpg,neutral,s,17,1,388.52127800000017,388.8171261399999,389.02659609999955,389.1836644399997,389.18835299999955,389.2278708399996,389.2328867999995,390.43868643999997,s,1,389.2328867999995,390.43868643999997,390.44714190000013,392.1088413399999,1.1949757000002137,1194.9757000002137,EMOCONPILOT022,2021_Feb_18_1118,EmoCon_Pilot_120Hz,2020.2.4,119.89501992026129,
,,,,0,0,0,0,56,0,56,0,,,,,,,,,,,,,,,,,,,,,,,,,,,,,,,,,,,,,,,,,,,,,,56,12.0,f,040_y_f_h_a.jpg,happy,d,17,1,392.1086746000001,392.4087624399996,392.4438723000003,392.5772707399998,392.5777668999999,392.6184960400002,392.6183572,393.2395990399997,d,1,392.6183572,393.2395990399997,393.2481568000003,395.1007318400003,0.6096122999997533,609.6122999997533,EMOCONPILOT022,2021_Feb_18_1118,EmoCon_Pilot_120Hz,2020.2.4,119.89501992026129,
,,,,0,0,0,0,57,0,57,0,,,,,,,,,,,,,,,,,,,,,,,,,,,,,,,,,,,,,,,,,,,,,,57,2.0,m,008_y_m_n_a.jpg,neutral,s,3,1,395.106143,395.4007221400003,395.6433896999997,395.6686149399999,395.6693187000001,395.70490854,395.70541630000025,397.21854054000016,s,1,395.70541630000025,397.21854054000016,397.22518729999956,398.5173203399996,1.498565900000358,1498.565900000358,EMOCONPILOT022,2021_Feb_18_1118,EmoCon_Pilot_120Hz,2020.2.4,119.89501992026129,
,,,,0,0,0,0,58,0,58,0,,,,,,,,,,,,,,,,,,,,,,,,,,,,,,,,,,,,,,,,,,,,,,58,9.0,f,021_o_f_n_a.jpg,neutral,s,3,1,398.52058729999953,398.81746374000033,399.0316289000002,399.0576411400003,399.0579676999996,399.0942725399997,399.09383909999997,400.37414153999964,s,1,399.09383909999997,400.37414153999964,400.3794296999995,401.66730573999996,1.2700501999997869,1270.0501999997869,EMOCONPILOT022,2021_Feb_18_1118,EmoCon_Pilot_120Hz,2020.2.4,119.89501992026129,
,,,,0,0,0,0,59,0,59,0,,,,,,,,,,,,,,,,,,,,,,,,,,,,,,,,,,,,,,,,,,,,,,59,4.0,m,016_y_m_n_a.jpg,neutral,s,17,1,401.6702901999997,401.9673032400002,402.22011360000033,402.37224363999997,402.37255689999984,402.4100585399998,402.40971119999995,404.0913684399999,None,0,402.40971119999995,404.0913684399999,404.09833119999985,405.9008408400001,,,EMOCONPILOT022,2021_Feb_18_1118,EmoCon_Pilot_120Hz,2020.2.4,119.89501992026129,
,,,,0,0,0,0,60,0,60,0,,,,,,,,,,,,,,,,,,,,,,,,,,,,,,,,,,,,,,,,,,,,,,60,6.0,m,033_o_m_s_a.jpg,sad,a,3,1,405.90693980000015,406.2008432400004,406.22193400000015,406.2440455399998,406.2442024000002,406.27938554000013,406.2797928,407.84432353999966,d,0,406.2797928,407.84432353999966,407.8535098000002,409.29252643999973,1.5561720000005153,1556.1720000005153,EMOCONPILOT022,2021_Feb_18_1118,EmoCon_Pilot_120Hz,2020.2.4,119.89501992026129,
,,,,0,0,0,0,61,0,61,0,,,,,,,,,,,,,,,,,,,,,,,,,,,,,,,,,,,,,,,,,,,,,,61,7.0,f,012_o_f_n_a.jpg,neutral,s,17,1,409.2959148,409.5926679399996,409.81845259999955,409.98869184000034,409.9921468000002,410.0320881399999,410.0370622999999,411.40704264,s,1,410.0370622999999,411.40704264,411.41536429999996,412.82607533999965,1.3587937000002057,1358.7937000002057,EMOCONPILOT022,2021_Feb_18_1118,EmoCon_Pilot_120Hz,2020.2.4,119.89501992026129,
,,,,0,0,0,0,62,0,62,0,,,,,,,,,,,,,,,,,,,,,,,,,,,,,,,,,,,,,,,,,,,,,,62,2.0,m,008_y_m_h_a.jpg,happy,d,17,1,412.8291022000003,413.12597723999954,413.1595275999998,413.29430144000037,413.29615339999964,413.3355785399996,413.3379662999996,414.01196554,d,1,413.3379662999996,414.01196554,414.0225393999999,415.08435004000023,0.6661989999993239,666.1989999993239,EMOCONPILOT022,2021_Feb_18_1118,EmoCon_Pilot_120Hz,2020.2.4,119.89501992026129,
,,,,0,0,0,0,63,0,63,0,,,,,,,,,,,,,,,,,,,,,,,,,,,,,,,,,,,,,,,,,,,,,,63,10.0,f,028_y_f_h_a.jpg,happy,d,3,1,415.0894853,415.38435423999965,415.4082486999996,415.43101274,415.4317228,415.46868573999984,415.47012619999987,416.42530403999956,d,1,415.47012619999987,416.42530403999956,416.4292339000003,417.95099493999953,0.9417294000004404,941.7294000004404,EMOCONPILOT022,2021_Feb_18_1118,EmoCon_Pilot_120Hz,2020.2.4,119.89501992026129,
,,,,0,0,0,0,64,0,64,0,,,,,,,,,,,,,,,,,,,,,,,,,,,,,,,,,,,,,,,,,,,,,,64,4.0,m,016_y_m_h_a.jpg,happy,d,17,1,417.9539815999997,418.25107293999974,418.27429310000025,418.4108540399999,418.41138709999996,418.45231143999956,418.4524633000001,418.90868723999995,d,1,418.4524633000001,418.90868723999995,418.91941119999956,420.2761961399998,0.4474841999999626,447.4841999999626,EMOCONPILOT022,2021_Feb_18_1118,EmoCon_Pilot_120Hz,2020.2.4,119.89501992026129,
,,,,0,0,0,0,65,0,65,0,,,,,,,,,,,,,,,,,,,,,,,,,,,,,,,,,,,,,,,,,,,,,,65,9.0,f,021_o_f_s_a.jpg,sad,a,17,1,420.28040109999984,420.5761014400001,420.5981271999999,420.7362373399998,420.7396912000004,420.77731793999976,420.78109440000026,421.53455733999965,a,1,420.78109440000026,421.53455733999965,421.5441037999999,422.7928305399997,0.7428718000001027,742.8718000001027,EMOCONPILOT022,2021_Feb_18_1118,EmoCon_Pilot_120Hz,2020.2.4,119.89501992026129,
,,,,0,0,0,0,66,0,66,0,,,,,,,,,,,,,,,,,,,,,,,,,,,,,,,,,,,,,,,,,,,,,,66,7.0,f,012_o_f_h_a.jpg,happy,d,17,1,422.7979851,423.09295303999954,423.1130916000002,423.24445113999957,423.24736759999996,423.28574463999996,423.2891608,423.93666884000015,d,1,423.2891608,423.93666884000015,423.94001990000015,425.4261889400001,0.6345780000001469,634.5780000001469,EMOCONPILOT022,2021_Feb_18_1118,EmoCon_Pilot_120Hz,2020.2.4,119.89501992026129,
,,,,0,0,0,0,67,0,67,0,,,,,,,,,,,,,,,,,,,,,,,,,,,,,,,,,,,,,,,,,,,,,,67,9.0,f,021_o_f_h_a.jpg,happy,d,3,1,425.4303885999998,425.7261949399996,426.09750520000034,426.12469743999975,426.12810309999986,426.1682045399999,426.1730338999996,427.14705193999964,d,1,426.1730338999996,427.14705193999964,427.1589858999996,428.5428347399999,0.9591253999997207,959.1253999997207,EMOCONPILOT022,2021_Feb_18_1118,EmoCon_Pilot_120Hz,2020.2.4,119.89501992026129,
,,,,0,0,0,0,68,0,68,0,,,,,,,,,,,,,,,,,,,,,,,,,,,,,,,,,,,,,,,,,,,,,,68,8.0,f,019_m_f_h_a.jpg,happy,d,3,1,428.54565040000034,428.84290013999964,428.86743750000005,428.88991813999985,428.89026079999985,428.92742864000013,428.92841529999987,429.55460214000016,d,1,428.92841529999987,429.55460214000016,429.5661038999997,430.57625694,0.6196705000002112,619.6705000002112,EMOCONPILOT022,2021_Feb_18_1118,EmoCon_Pilot_120Hz,2020.2.4,119.89501992026129,
,,,,0,0,0,0,69,0,69,0,,,,,,,,,,,,,,,,,,,,,,,,,,,,,,,,,,,,,,,,,,,,,,69,9.0,f,021_o_f_s_a.jpg,sad,a,3,1,430.58021029999964,430.87619653999957,430.88863029999993,430.91188034000027,430.9127054999999,430.94940534,430.9510866999999,431.6837988399999,a,1,430.9510866999999,431.6837988399999,431.6909442999995,432.9763764400001,0.7249669000002541,724.9669000002541,EMOCONPILOT022,2021_Feb_18_1118,EmoCon_Pilot_120Hz,2020.2.4,119.89501992026129,
,,,,0,0,0,0,70,0,70,0,,,,,,,,,,,,,,,,,,,,,,,,,,,,,,,,,,,,,,,,,,,,,,70,2.0,m,008_y_m_h_a.jpg,happy,d,3,1,432.98156349999954,433.27634524000007,433.2966671000004,433.31941684000014,433.3212517000002,433.3573475399995,433.35674889999973,434.27441014,d,1,433.35674889999973,434.27441014,434.28247629999987,436.04307654000024,0.9032516999996005,903.2516999996005,EMOCONPILOT022,2021_Feb_18_1118,EmoCon_Pilot_120Hz,2020.2.4,119.89501992026129,
,,,,0,0,0,0,71,0,71,0,,,,,,,,,,,,,,,,,,,,,,,,,,,,,,,,,,,,,,,,,,,,,,71,1.0,m,004_o_m_h_a.jpg,happy,d,3,1,436.04729700000007,436.3430664399999,436.6982503999998,436.7241370400003,436.72421029999987,436.7610548400004,436.76105860000007,438.1478419399997,s,0,436.76105860000007,438.1478419399997,438.15958649999993,439.3097495400003,1.378915600000255,1378.915600000255,EMOCONPILOT022,2021_Feb_18_1118,EmoCon_Pilot_120Hz,2020.2.4,119.89501992026129,
,,,,0,0,0,0,72,0,72,0,,,,,,,,,,,,,,,,,,,,,,,,,,,,,,,,,,,,,,,,,,,,,,72,11.0,f,030_o_f_h_a.jpg,happy,d,17,1,439.3124767999998,439.60979474,439.81169729999965,439.97049474000016,439.9748872,440.0155266400003,440.02057909999985,440.5891974399998,d,1,440.02057909999985,440.5891974399998,440.59560390000024,442.14323544,0.5591905000001134,559.1905000001134,EMOCONPILOT022,2021_Feb_18_1118,EmoCon_Pilot_120Hz,2020.2.4,119.89501992026129,
,,,,0,0,0,0,73,0,73,0,,,,,,,,,,,,,,,,,,,,,,,,,,,,,,,,,,,,,,,,,,,,,,73,8.0,f,019_m_f_s_a.jpg,sad,a,17,1,442.1474231000002,442.44321224,442.68880660000013,442.8503282400003,442.85517290000007,442.8952496400003,442.9002389999996,443.35587973999975,a,1,442.9002389999996,443.35587973999975,443.36641619999955,444.64331084000025,0.44784490000074584,447.84490000074584,EMOCONPILOT022,2021_Feb_18_1118,EmoCon_Pilot_120Hz,2020.2.4,119.89501992026129,
,,,,0,0,0,0,74,0,74,0,,,,,,,,,,,,,,,,,,,,,,,,,,,,,,,,,,,,,,,,,,,,,,74,5.0,m,027_o_m_h_a.jpg,happy,d,3,1,444.6484357999998,444.94326413999954,445.16348370000014,445.19071984000004,445.19455910000033,445.23548584,445.24044179999964,445.8921610399999,d,1,445.24044179999964,445.8921610399999,445.9003098000003,447.4683886400004,0.6355401000000711,635.5401000000711,EMOCONPILOT022,2021_Feb_18_1118,EmoCon_Pilot_120Hz,2020.2.4,119.89501992026129,
,,,,0,0,0,0,75,0,75,0,,,,,,,,,,,,,,,,,,,,,,,,,,,,,,,,,,,,,,,,,,,,,,75,8.0,f,019_m_f_s_a.jpg,sad,a,17,1,447.4741807999999,447.76841363999995,448.01168919999964,448.16973764000033,448.17437599999994,448.21518074000016,448.22007080000003,448.7636225399998,a,1,448.22007080000003,448.7636225399998,448.7702822000001,450.34329263999973,0.5277798999995866,527.7798999995866,EMOCONPILOT022,2021_Feb_18_1118,EmoCon_Pilot_120Hz,2020.2.4,119.89501992026129,
,,,,0,0,0,0,76,0,76,0,,,,,,,,,,,,,,,,,,,,,,,,,,,,,,,,,,,,,,,,,,,,,,76,7.0,f,012_o_f_n_a.jpg,neutral,s,17,1,450.3461438000004,450.64333193999994,450.84510599999976,451.0078756400004,451.0114794000001,451.04892064000035,451.05213509999976,451.76123103999964,s,1,451.05213509999976,451.76123103999964,451.7693855999996,452.9684151400003,0.695581900000434,695.581900000434,EMOCONPILOT022,2021_Feb_18_1118,EmoCon_Pilot_120Hz,2020.2.4,119.89501992026129,
,,,,0,0,0,0,77,0,77,0,,,,,,,,,,,,,,,,,,,,,,,,,,,,,,,,,,,,,,,,,,,,,,77,6.0,m,033_o_m_s_a.jpg,sad,a,3,1,452.9747231000001,453.26848613999994,453.2906033999998,453.31507464000026,453.31875820000005,453.3593174399999,453.36446520000027,454.8394428400003,a,1,453.36446520000027,454.8394428400003,454.8488693999998,456.8435464399996,1.4635339999995267,1463.5339999995267,EMOCONPILOT022,2021_Feb_18_1118,EmoCon_Pilot_120Hz,2020.2.4,119.89501992026129,
,,,,0,0,0,0,78,0,78,0,,,,,,,,,,,,,,,,,,,,,,,,,,,,,,,,,,,,,,,,,,,,,,78,1.0,m,004_o_m_h_a.jpg,happy,d,3,1,456.84924150000006,457.1436116399997,457.52301669999997,457.54991224000025,457.55002909999985,457.58638304,457.5863088999995,458.5384482400001,d,1,457.5863088999995,458.5384482400001,458.54778650000026,460.51018934000024,0.9376458999995521,937.6458999995521,EMOCONPILOT022,2021_Feb_18_1118,EmoCon_Pilot_120Hz,2020.2.4,119.89501992026129,
,,,,0,0,0,0,79,0,79,0,,,,,,,,,,,,,,,,,,,,,,,,,,,,,,,,,,,,,,,,,,,,,,79,5.0,m,027_o_m_s_a.jpg,sad,a,17,1,460.51545090000036,460.8101928399998,460.82925650000016,460.96187083999996,460.9662268000002,461.0049758399997,461.0095523,462.2550085400004,s,0,461.0095523,462.2550085400004,462.2614636999997,463.8602088399999,1.2342305000001943,1234.2305000001943,EMOCONPILOT022,2021_Feb_18_1118,EmoCon_Pilot_120Hz,2020.2.4,119.89501992026129,
,,,,0,0,0,0,80,0,80,0,,,,,,,,,,,,,,,,,,,,,,,,,,,,,,,,,,,,,,,,,,,,,,80,9.0,f,021_o_f_s_a.jpg,sad,a,3,1,463.8630726000001,464.1602576399997,464.1708343,464.1932877400001,464.19388309999977,464.23010553999995,464.2306171,465.14726294000013,a,1,464.2306171,465.14726294000013,465.1554237999999,466.1602983400004,0.9013339000002816,901.3339000002816,EMOCONPILOT022,2021_Feb_18_1118,EmoCon_Pilot_120Hz,2020.2.4,119.89501992026129,
,,,,0,0,0,0,81,0,81,0,,,,,,,,,,,,,,,,,,,,,,,,,,,,,,,,,,,,,,,,,,,,,,81,5.0,m,027_o_m_s_a.jpg,sad,a,17,1,466.16329419999965,466.4603234399998,466.4825299000004,466.62027163999994,466.6235372000001,466.66160593999996,466.66465059999973,467.79567733999977,a,1,466.66465059999973,467.79567733999977,467.8040586999996,468.92701613999964,1.1232385999992403,1123.2385999992403,EMOCONPILOT022,2021_Feb_18_1118,EmoCon_Pilot_120Hz,2020.2.4,119.89501992026129,
,,,,0,0,0,0,82,0,82,0,,,,,,,,,,,,,,,,,,,,,,,,,,,,,,,,,,,,,,,,,,,,,,82,7.0,f,012_o_f_h_a.jpg,happy,d,3,1,468.9307507000003,469.2270647399997,469.2486520000002,469.2717311399998,469.2722450000001,469.31157313999995,469.31308759999956,469.95711034,d,1,469.31308759999956,469.95711034,469.9654279999995,471.7522016400004,0.6347492000004422,634.7492000004422,EMOCONPILOT022,2021_Feb_18_1118,EmoCon_Pilot_120Hz,2020.2.4,119.89501992026129,
,,,,0,0,0,0,83,0,83,0,,,,,,,,,,,,,,,,,,,,,,,,,,,,,,,,,,,,,,,,,,,,,,83,3.0,m,013_y_m_s_a.jpg,sad,a,3,1,471.75767579999956,472.05210734000013,472.0735590000004,472.09577544000024,472.0962006,472.13047324,472.1309900999995,473.37371333999965,s,0,472.1309900999995,473.37371333999965,473.3810983000003,474.4438115400004,1.23278929999924,1232.78929999924,EMOCONPILOT022,2021_Feb_18_1118,EmoCon_Pilot_120Hz,2020.2.4,119.89501992026129,
,,,,0,0,0,0,84,0,84,0,,,,,,,,,,,,,,,,,,,,,,,,,,,,,,,,,,,,,,,,,,,,,,84,5.0,m,027_o_m_s_a.jpg,sad,a,3,1,474.4478210999996,474.7438154400003,474.7637241000002,474.78667224000003,474.7872271999995,474.8225877399997,474.8238760000004,475.90829624000037,a,1,474.8238760000004,475.90829624000037,475.9164952000001,476.9771675400003,1.0681089999998221,1068.1089999998221,EMOCONPILOT022,2021_Feb_18_1118,EmoCon_Pilot_120Hz,2020.2.4,119.89501992026129,
,,,,0,0,0,0,85,0,85,0,,,,,,,,,,,,,,,,,,,,,,,,,,,,,,,,,,,,,,,,,,,,,,85,4.0,m,016_y_m_s_a.jpg,sad,a,3,1,476.9799839999996,477.2771000400004,477.28929770000013,477.3123231400001,477.31394439999985,477.3502355400002,477.35299980000036,478.11686194000015,s,0,477.35299980000036,478.11686194000015,478.12514029999966,479.81883163999976,0.754829499999687,754.829499999687,EMOCONPILOT022,2021_Feb_18_1118,EmoCon_Pilot_120Hz,2020.2.4,119.89501992026129,
,,,,0,0,0,0,86,0,86,0,,,,,,,,,,,,,,,,,,,,,,,,,,,,,,,,,,,,,,,,,,,,,,86,5.0,m,027_o_m_n_a.jpg,neutral,s,17,1,479.8217029999996,480.11891293999963,480.3511330000001,480.51203143999976,480.51653069999975,480.55747803999986,480.5627039000001,481.38030554,s,1,480.5627039000001,481.38030554,481.3859795999997,483.3689820400001,0.8091137000001254,809.1137000001254,EMOCONPILOT022,2021_Feb_18_1118,EmoCon_Pilot_120Hz,2020.2.4,119.89501992026129,
,,,,0,0,0,0,87,0,87,0,,,,,,,,,,,,,,,,,,,,,,,,,,,,,,,,,,,,,,,,,,,,,,87,3.0,m,013_y_m_h_a.jpg,happy,d,3,1,483.37195280000014,483.6689102400002,483.8991070000002,483.92598323999994,483.92885430000024,483.96871883999995,483.9735764999996,485.40375654,d,1,483.9735764999996,485.40375654,485.41295139999966,486.57739754000033,1.414350299999569,1414.350299999569,EMOCONPILOT022,2021_Feb_18_1118,EmoCon_Pilot_120Hz,2020.2.4,119.89501992026129,
,,,,0,0,0,0,88,0,88,0,,,,,,,,,,,,,,,,,,,,,,,,,,,,,,,,,,,,,,,,,,,,,,88,5.0,m,027_o_m_s_a.jpg,sad,a,17,1,486.5819585999998,486.87734413999954,486.89068059999954,487.0290494400002,487.0321334999999,487.07138223999993,487.07535670000016,487.7531949399996,s,0,487.07535670000016,487.7531949399996,487.76309930000025,489.72747494,0.664472399999795,664.472399999795,EMOCONPILOT022,2021_Feb_18_1118,EmoCon_Pilot_120Hz,2020.2.4,119.89501992026129,
,,,,0,0,0,0,89,0,89,0,,,,,,,,,,,,,,,,,,,,,,,,,,,,,,,,,,,,,,,,,,,,,,89,5.0,m,027_o_m_s_a.jpg,sad,a,3,1,489.73282310000013,490.02747383999997,490.05070259999957,490.07327683999995,490.07409649999954,490.11195594000003,490.11352929999975,491.91840474,None,0,490.11352929999975,491.91840474,491.9258221,493.0691872399999,,,EMOCONPILOT022,2021_Feb_18_1118,EmoCon_Pilot_120Hz,2020.2.4,119.89501992026129,
,,,,0,0,0,0,90,0,90,0,,,,,,,,,,,,,,,,,,,,,,,,,,,,,,,,,,,,,,,,,,,,,,90,12.0,f,040_y_f_s_a.jpg,sad,a,17,1,493.0735016999997,493.3691889400003,493.38798680000036,493.52106974000037,493.5245672000001,493.5628960399996,493.56691630000023,494.5434153399998,a,1,493.56691630000023,494.5434153399998,494.5544096000003,496.1108945399998,0.964939499999673,964.939499999673,EMOCONPILOT022,2021_Feb_18_1118,EmoCon_Pilot_120Hz,2020.2.4,119.89501992026129,
,,,,0,0,0,0,91,0,91,0,,,,,,,,,,,,,,,,,,,,,,,,,,,,,,,,,,,,,,,,,,,,,,91,3.0,m,013_y_m_n_a.jpg,neutral,s,3,1,496.1150796000002,496.4110306400004,496.6551091000001,496.68102343999965,496.6814998,496.71709754000005,496.7185767000001,497.6407216399999,s,1,496.7185767000001,497.6407216399999,497.64734130000033,499.3193341399998,0.9091744000006656,909.1744000006656,EMOCONPILOT022,2021_Feb_18_1118,EmoCon_Pilot_120Hz,2020.2.4,119.89501992026129,
,,,,0,0,0,0,92,0,92,0,,,,,,,,,,,,,,,,,,,,,,,,,,,,,,,,,,,,,,,,,,,,,,92,12.0,f,040_y_f_s_a.jpg,sad,a,17,1,499.3246803000002,499.6194654400002,499.6461521000001,499.77928273999953,499.7822820000001,499.8205969400002,499.8236471,500.67498813999975,a,1,499.8236471,500.67498813999975,500.6842913999999,502.46926443999985,0.8442036999995253,844.2036999995253,EMOCONPILOT022,2021_Feb_18_1118,EmoCon_Pilot_120Hz,2020.2.4,119.89501992026129,
,,,,0,0,0,0,93,0,93,0,,,,,,,,,,,,,,,,,,,,,,,,,,,,,,,,,,,,,,,,,,,,,,93,6.0,m,033_o_m_s_a.jpg,sad,a,17,1,502.47201549999954,502.76937064000015,502.78859889999967,502.9210573400002,502.92616889999954,502.9665664399996,502.9716731999997,503.6207975399999,a,1,502.9716731999997,503.6207975399999,503.63243599999987,505.5027427399997,0.6405784999997195,640.5784999997195,EMOCONPILOT022,2021_Feb_18_1118,EmoCon_Pilot_120Hz,2020.2.4,119.89501992026129,
,,,,0,0,0,0,94,0,94,0,,,,,,,,,,,,,,,,,,,,,,,,,,,,,,,,,,,,,,,,,,,,,,94,2.0,m,008_y_m_s_a.jpg,sad,a,17,1,505.5080863000003,505.8027811400003,506.2693812999996,506.4375065399996,506.4412752999997,506.4810605400004,506.4856157000004,507.01059794000014,a,1,506.4856157000004,507.01059794000014,507.0188618000002,508.0195257399997,0.510628999999426,510.628999999426,EMOCONPILOT022,2021_Feb_18_1118,EmoCon_Pilot_120Hz,2020.2.4,119.89501992026129,
,,,,0,0,0,0,95,0,95,0,,,,,,,,,,,,,,,,,,,,,,,,,,,,,,,,,,,,,,,,,,,,,,95,8.0,f,019_m_f_s_a.jpg,sad,a,17,1,508.02427850000004,508.31943404000015,508.5463440000003,508.7076614399999,508.71098619999975,508.7519212399999,508.7570075000003,509.2431341400003,a,1,508.7570075000003,509.2431341400003,509.2555851999996,511.0444560399998,0.47883289999936096,478.83289999936096,EMOCONPILOT022,2021_Feb_18_1118,EmoCon_Pilot_120Hz,2020.2.4,119.89501992026129,
,,,,0,0,0,0,96,0,96,0,,,,,,,,,,,,,,,,,,,,,,,,,,,,,,,,,,,,,,,,,,,,,,96,9.0,f,021_o_f_n_a.jpg,neutral,s,3,1,511.04473789999975,511.34451374,511.5456127999996,511.57380543999955,511.5784814999997,511.6191399400001,511.6241467,512.8304470399995,s,1,511.6241467,512.8304470399995,512.8416811999996,514.0445544399996,1.1956589000001259,1195.6589000001259,EMOCONPILOT022,2021_Feb_18_1118,EmoCon_Pilot_120Hz,2020.2.4,119.89501992026129,
,,,,0,0,0,0,97,0,97,0,,,,,,,,,,,,,,,,,,,,,,,,,,,,,,,,,,,,,,,,,,,,,,97,11.0,f,030_o_f_h_a.jpg,happy,d,17,1,514.0485507000003,514.3446138400001,514.5451691999997,514.70379354,514.7086178999998,514.7492431400002,514.7536602,515.2516857400002,d,1,514.7536602,515.2516857400002,515.2623075000001,516.8279775400002,0.4823295000005601,482.3295000005601,EMOCONPILOT022,2021_Feb_18_1118,EmoCon_Pilot_120Hz,2020.2.4,119.89501992026129,
,,,,0,0,0,0,98,0,98,0,,,,,,,,,,,,,,,,,,,,,,,,,,,,,,,,,,,,,,,,,,,,,,98,12.0,f,040_y_f_n_a.jpg,neutral,s,3,1,516.8329415999997,517.1280282399999,517.3469122999995,517.3727070399997,517.3735433000002,517.4096780400001,517.4102209000002,518.6917123399995,d,0,517.4102209000002,518.6917123399995,518.7012521999995,519.94473514,1.273605100000168,1273.605100000168,EMOCONPILOT022,2021_Feb_18_1118,EmoCon_Pilot_120Hz,2020.2.4,119.89501992026129,
,,,,0,0,0,0,99,0,99,0,,,,,,,,,,,,,,,,,,,,,,,,,,,,,,,,,,,,,,,,,,,,,,99,12.0,f,040_y_f_s_a.jpg,sad,a,17,1,519.9501798000001,520.2446885400001,520.2557355999998,520.3880611399996,520.3893889000001,520.42921524,520.4303916999997,521.6612532400001,a,1,520.4303916999997,521.6612532400001,521.6678136,522.6694526400003,1.2215071000000535,1221.5071000000535,EMOCONPILOT022,2021_Feb_18_1118,EmoCon_Pilot_120Hz,2020.2.4,119.89501992026129,
,,,,0,0,0,0,100,0,100,0,,,,,,,,,,,,,,,,,,,,,,,,,,,,,,,,,,,,,,,,,,,,,,100,4.0,m,016_y_m_n_a.jpg,neutral,s,17,1,522.6694839000002,522.9697836399997,523.2351981000002,523.3858604399999,523.3887346000001,523.4260905400002,523.4289571999998,523.8834200400003,s,1,523.4289571999998,523.8834200400003,523.8924274000001,524.9197490399998,0.43890190000001894,438.90190000001894,EMOCONPILOT022,2021_Feb_18_1118,EmoCon_Pilot_120Hz,2020.2.4,119.89501992026129,
,,,,0,0,0,0,101,0,101,0,,,,,,,,,,,,,,,,,,,,,,,,,,,,,,,,,,,,,,,,,,,,,,101,11.0,f,030_o_f_s_a.jpg,sad,a,17,1,524.9226837999995,525.2198101399996,525.4219175999997,525.5840526400003,525.5886763999997,525.6293730399999,525.6342665000002,526.59038664,a,1,525.6342665000002,526.59038664,526.6035558000003,528.3115956400003,0.9455575999991197,945.5575999991197,EMOCONPILOT022,2021_Feb_18_1118,EmoCon_Pilot_120Hz,2020.2.4,119.89501992026129,
,,,,0,0,0,0,102,0,102,0,,,,,,,,,,,,,,,,,,,,,,,,,,,,,,,,,,,,,,,,,,,,,,102,3.0,m,013_y_m_h_a.jpg,happy,d,3,1,528.3157254999996,528.6116398399996,528.8294900999999,528.8553164399997,528.8559931,528.8915499399997,528.8933877,529.6642252400003,d,1,528.8933877,529.6642252400003,529.6743948000003,531.3866783399995,0.7585788999995202,758.5788999995202,EMOCONPILOT022,2021_Feb_18_1118,EmoCon_Pilot_120Hz,2020.2.4,119.89501992026129,
,,,,0,0,0,0,103,0,103,0,,,,,,,,,,,,,,,,,,,,,,,,,,,,,,,,,,,,,,,,,,,,,,103,2.0,m,008_y_m_s_a.jpg,sad,a,3,1,531.3926832999996,531.68659524,531.9237855000001,531.9490424399997,531.949721,531.9859035400001,531.9853799000002,532.7963158400004,a,1,531.9853799000002,532.7963158400004,532.8067620000002,534.5449708399998,0.794673999999759,794.673999999759,EMOCONPILOT022,2021_Feb_18_1118,EmoCon_Pilot_120Hz,2020.2.4,119.89501992026129,
,,,,0,0,0,0,104,0,104,0,,,,,,,,,,,,,,,,,,,,,,,,,,,,,,,,,,,,,,,,,,,,,,104,11.0,f,030_o_f_s_a.jpg,sad,a,17,1,534.5491792000003,534.84492354,535.0582371,535.2151493400003,535.2178685999997,535.2548201400001,535.2574234000003,535.9517295399997,a,1,535.2574234000003,535.9517295399997,535.9611814999998,537.11173724,0.682329799999934,682.329799999934,EMOCONPILOT022,2021_Feb_18_1118,EmoCon_Pilot_120Hz,2020.2.4,119.89501992026129,
,,,,0,0,0,0,105,0,105,0,,,,,,,,,,,,,,,,,,,,,,,,,,,,,,,,,,,,,,,,,,,,,,105,4.0,m,016_y_m_h_a.jpg,happy,d,3,1,537.1170965000001,537.4118154399999,537.4376150999997,537.4604137399998,537.4608527,537.4961007400003,537.4962992000001,538.2556738399995,d,1,537.4962992000001,538.2556738399995,538.2637262999997,539.5951469400003,0.7474449999999706,747.4449999999706,EMOCONPILOT022,2021_Feb_18_1118,EmoCon_Pilot_120Hz,2020.2.4,119.89501992026129,
,,,,0,0,0,0,106,0,106,0,,,,,,,,,,,,,,,,,,,,,,,,,,,,,,,,,,,,,,,,,,,,,,106,7.0,f,012_o_f_n_a.jpg,neutral,s,17,1,539.5990439999996,539.8951930399995,540.1201420999996,540.2915192400002,540.2963902000001,540.3364319400004,540.3414511000001,541.2327185399996,s,1,540.3414511000001,541.2327185399996,541.2379914000003,542.4785245399995,0.8781211999994412,878.1211999994412,EMOCONPILOT022,2021_Feb_18_1118,EmoCon_Pilot_120Hz,2020.2.4,119.89501992026129,
,,,,0,0,0,0,107,0,107,0,,,,,,,,,,,,,,,,,,,,,,,,,,,,,,,,,,,,,,,,,,,,,,107,11.0,f,030_o_f_h_a.jpg,happy,d,17,1,542.4832912000002,542.7784681399995,542.9800690000002,543.13570124,543.1389146000001,543.17614414,543.1798253999996,544.3155157400003,d,1,543.1798253999996,544.3155157400003,544.3261739999998,545.77024494,1.1279211000000942,1127.9211000000942,EMOCONPILOT022,2021_Feb_18_1118,EmoCon_Pilot_120Hz,2020.2.4,119.89501992026129,
,,,,0,0,0,0,108,0,108,0,,,,,,,,,,,,,,,,,,,,,,,,,,,,,,,,,,,,,,,,,,,,,,108,1.0,m,004_o_m_s_a.jpg,sad,a,3,1,545.7744258000002,546.0702584400002,546.0945363999999,546.1175168400001,546.1189686999996,546.1556878400003,546.1567511000003,547.0616986399997,a,1,546.1567511000003,547.0616986399997,547.0698309999998,548.5953112399999,0.8952191999997012,895.2191999997012,EMOCONPILOT022,2021_Feb_18_1118,EmoCon_Pilot_120Hz,2020.2.4,119.89501992026129,
,,,,0,0,0,0,109,0,109,0,,,,,,,,,,,,,,,,,,,,,,,,,,,,,,,,,,,,,,,,,,,,,,109,3.0,m,013_y_m_n_a.jpg,neutral,s,3,1,548.5982703,548.8953037400003,549.1286490000002,549.1544469400002,549.1545231999999,549.1890811399995,549.1889701,549.9560403399997,s,1,549.1889701,549.9560403399997,549.9600694000001,551.8204239399998,0.758682200000294,758.682200000294,EMOCONPILOT022,2021_Feb_18_1118,EmoCon_Pilot_120Hz,2020.2.4,119.89501992026129,
,,,,0,0,0,0,110,0,110,0,,,,,,,,,,,,,,,,,,,,,,,,,,,,,,,,,,,,,,,,,,,,,,110,10.0,f,028_y_f_s_a.jpg,sad,a,3,1,551.8256932000004,552.1203537400003,552.1453552000003,552.1677004399995,552.1684355999996,552.2054875399996,552.2050503999999,553.0842987399998,a,1,552.2050503999999,553.0842987399998,553.0866158999997,554.8954625399998,0.8708143000003474,870.8143000003474,EMOCONPILOT022,2021_Feb_18_1118,EmoCon_Pilot_120Hz,2020.2.4,119.89501992026129,
,,,,0,0,0,0,111,0,111,0,,,,,,,,,,,,,,,,,,,,,,,,,,,,,,,,,,,,,,,,,,,,,,111,11.0,f,030_o_f_h_a.jpg,happy,d,3,1,554.8994296000001,555.1954202399999,555.4070067000002,555.4326322399999,555.4336514999995,555.4715737399998,555.4715847999996,556.0310696399998,d,1,555.4715847999996,556.0310696399998,556.0411326000003,557.6703864400002,0.5482920000004015,548.2920000004015,EMOCONPILOT022,2021_Feb_18_1118,EmoCon_Pilot_120Hz,2020.2.4,119.89501992026129,
,,,,0,0,0,0,112,0,112,0,,,,,,,,,,,,,,,,,,,,,,,,,,,,,,,,,,,,,,,,,,,,,,112,7.0,f,012_o_f_n_a.jpg,neutral,s,17,1,557.6745938000004,557.9703835400002,558.1721276999997,558.3362353400004,558.3396610999998,558.3808902400002,558.3858514000003,558.9753220400004,s,1,558.3858514000003,558.9753220400004,558.9869219000002,560.8538929399998,0.5781335000001491,578.1335000001491,EMOCONPILOT022,2021_Feb_18_1118,EmoCon_Pilot_120Hz,2020.2.4,119.89501992026129,
,,,,0,0,0,0,113,0,113,0,,,,,,,,,,,,,,,,,,,,,,,,,,,,,,,,,,,,,,,,,,,,,,113,2.0,m,008_y_m_s_a.jpg,sad,a,17,1,560.8593337000002,561.1539056400003,561.3902514000001,561.5462888400003,561.5512133000002,561.5918372399998,561.5969846999997,561.9404430399996,a,1,561.5969846999997,561.9404430399996,561.9525336999995,563.6122079399998,0.335175000000163,335.175000000163,EMOCONPILOT022,2021_Feb_18_1118,EmoCon_Pilot_120Hz,2020.2.4,119.89501992026129,
,,,,0,0,0,0,114,0,114,0,,,,,,,,,,,,,,,,,,,,,,,,,,,,,,,,,,,,,,,,,,,,,,114,11.0,f,030_o_f_h_a.jpg,happy,d,17,1,563.6153785999995,563.91221594,564.1140618999998,564.2846370399999,564.2885196999996,564.3287005400003,564.3327454999999,564.6992587399997,d,1,564.3327454999999,564.6992587399997,564.7105565000002,565.7454604399996,0.3512749999999869,351.2749999999869,EMOCONPILOT022,2021_Feb_18_1118,EmoCon_Pilot_120Hz,2020.2.4,119.89501992026129,
,,,,0,0,0,0,115,0,115,0,,,,,,,,,,,,,,,,,,,,,,,,,,,,,,,,,,,,,,,,,,,,,,115,3.0,m,013_y_m_h_a.jpg,happy,d,3,1,565.7485023999998,566.04571094,566.2816781000001,566.3079519400004,566.3099982000003,566.34742574,566.3513733999998,567.0205138400003,d,1,566.3513733999998,567.0205138400003,567.0322385999998,568.5039851400003,0.6523520999999164,652.3520999999164,EMOCONPILOT022,2021_Feb_18_1118,EmoCon_Pilot_120Hz,2020.2.4,119.89501992026129,
,,,,0,0,0,0,116,0,116,0,,,,,,,,,,,,,,,,,,,,,,,,,,,,,,,,,,,,,,,,,,,,,,116,2.0,m,008_y_m_s_a.jpg,sad,a,3,1,568.5094084000002,568.8038858400001,569.0338973999997,569.0602009399996,569.0639160999999,569.1049927399996,569.1099064999999,569.7388472400004,a,1,569.1099064999999,569.7388472400004,569.7501743000003,571.2873891400001,0.6139585000000807,613.9585000000807,EMOCONPILOT022,2021_Feb_18_1118,EmoCon_Pilot_120Hz,2020.2.4,119.89501992026129,
,,,,0,0,0,0,117,0,117,0,,,,,,,,,,,,,,,,,,,,,,,,,,,,,,,,,,,,,,,,,,,,,,117,3.0,m,013_y_m_n_a.jpg,neutral,s,3,1,571.2927416000002,571.5874947400004,571.8233615999998,571.8504640400002,571.8532825000002,571.8912608400002,571.8965767,573.1143502399997,d,0,571.8965767,573.1143502399997,573.1181288999996,574.5375238399998,1.2111721000001126,1211.1721000001126,EMOCONPILOT022,2021_Feb_18_1118,EmoCon_Pilot_120Hz,2020.2.4,119.89501992026129,
,,,,0,0,0,0,118,0,118,0,,,,,,,,,,,,,,,,,,,,,,,,,,,,,,,,,,,,,,,,,,,,,,118,6.0,m,033_o_m_n_a.jpg,neutral,s,3,1,574.5419769999999,574.83743664,575.0338602000002,575.0598450399999,575.0601999,575.0968665400002,575.0970406999995,576.4200572400001,s,1,575.0970406999995,576.4200572400001,576.4284226999998,578.2125073399999,1.314697900000283,1314.697900000283,EMOCONPILOT022,2021_Feb_18_1118,EmoCon_Pilot_120Hz,2020.2.4,119.89501992026129,
,,,,0,0,0,0,119,0,119,0,,,,,,,,,,,,,,,,,,,,,,,,,,,,,,,,,,,,,,,,,,,,,,119,6.0,m,033_o_m_n_a.jpg,neutral,s,3,1,578.2165789000001,578.5124921399998,578.6961862999997,578.72210624,578.7226398000003,578.7573532399998,578.7574601999995,579.6371457399997,s,1,578.7574601999995,579.6371457399997,579.6457447000003,581.0876287400002,0.8625735999994504,862.5735999994504,EMOCONPILOT022,2021_Feb_18_1118,EmoCon_Pilot_120Hz,2020.2.4,119.89501992026129,
,,,,1,0,1,0,0,0,0,0,,,,,,,,,,,,,,,,,,,,,,,,,,,,,,,,,,,,,,,581.1913916000003,590.6201754399996,s,9.42030160000013,9420.30160000013,581.1913916000003,590.6201754399996,0,1.0,m,004_o_m_s_a.jpg,sad,a,17,2,590.6254889000002,590.9126835399999,590.9346173000004,591.07271964,591.0758625999997,591.1139707400004,591.1165444999997,592.5079056399996,a,1,591.1165444999997,592.5079056399996,592.5204103999995,593.98784364,1.3752233999994132,1375.2233999994132,EMOCONPILOT022,2021_Feb_18_1118,EmoCon_Pilot_120Hz,2020.2.4,119.89501992026129,
,,,,1,0,1,0,1,0,1,0,,,,,,,,,,,,,,,,,,,,,,,,,,,,,,,,,,,,,,,,,,,,,,1,9.0,f,021_o_f_n_a.jpg,neutral,s,17,2,593.9941551000002,594.2877474399999,594.5593433000004,594.7218503399996,594.7264475000002,594.7671717399995,594.7717560000001,595.5633881399996,s,1,594.7717560000001,595.5633881399996,595.5741101000003,596.6546042400001,0.7839708999999857,783.9708999999857,EMOCONPILOT022,2021_Feb_18_1118,EmoCon_Pilot_120Hz,2020.2.4,119.89501992026129,
,,,,1,0,1,0,2,0,2,0,,,,,,,,,,,,,,,,,,,,,,,,,,,,,,,,,,,,,,,,,,,,,,2,11.0,f,030_o_f_s_a.jpg,sad,a,17,2,596.6587754000002,596.9545005400001,597.1595280000001,597.3217646399995,597.3263772999999,597.3669156399998,597.3722344999996,598.0509086400003,a,1,597.3722344999996,598.0509086400003,598.0614844000002,599.6047064399996,0.6635472999996637,663.5472999996637,EMOCONPILOT022,2021_Feb_18_1118,EmoCon_Pilot_120Hz,2020.2.4,119.89501992026129,
,,,,1,0,1,0,3,0,3,0,,,,,,,,,,,,,,,,,,,,,,,,,,,,,,,,,,,,,,,,,,,,,,3,10.0,f,028_y_f_s_a.jpg,sad,a,17,2,599.6101822999999,599.9046874399997,599.9292280999998,600.0645961400002,600.0676308000002,600.1058792399996,600.1089595000003,600.8287610399999,a,1,600.1089595000003,600.8287610399999,600.8378065999996,602.77954414,0.702936900000168,702.936900000168,EMOCONPILOT022,2021_Feb_18_1118,EmoCon_Pilot_120Hz,2020.2.4,119.89501992026129,
,,,,1,0,1,0,4,0,4,0,,,,,,,,,,,,,,,,,,,,,,,,,,,,,,,,,,,,,,,,,,,,,,4,6.0,m,033_o_m_n_a.jpg,neutral,s,17,2,602.7823121000001,603.0795545400002,603.2851879,603.4509162399996,603.4557243999998,603.49683444,603.5019056000001,604.4835034399999,s,1,603.5019056000001,604.4835034399999,604.4926273000001,605.8880635399997,0.9660346000000573,966.0346000000573,EMOCONPILOT022,2021_Feb_18_1118,EmoCon_Pilot_120Hz,2020.2.4,119.89501992026129,
,,,,1,0,1,0,5,0,5,0,,,,,,,,,,,,,,,,,,,,,,,,,,,,,,,,,,,,,,,,,,,,,,5,1.0,m,004_o_m_n_a.jpg,neutral,s,2,2,605.8909862,606.1880109399996,606.3826735000002,606.4002452399997,606.4035762000003,606.4441749399999,606.4494347,608.16314854,d,0,606.4494347,608.16314854,608.1735988,609.9131283399998,1.6984807999997429,1698.4807999997429,EMOCONPILOT022,2021_Feb_18_1118,EmoCon_Pilot_120Hz,2020.2.4,119.89501992026129,
,,,,1,0,1,0,6,0,6,0,,,,,,,,,,,,,,,,,,,,,,,,,,,,,,,,,,,,,,,,,,,,,,6,12.0,f,040_y_f_s_a.jpg,sad,a,17,2,609.9186249000004,610.2131554399999,610.2370945000002,610.3731527400001,610.3774905,610.4161502399999,610.4206414,610.8477158399998,s,0,610.4206414,610.8477158399998,610.8592063999995,612.4716056399999,0.4150199000005159,415.0199000005159,EMOCONPILOT022,2021_Feb_18_1118,EmoCon_Pilot_120Hz,2020.2.4,119.89501992026129,
,,,,1,0,1,0,7,0,7,0,,,,,,,,,,,,,,,,,,,,,,,,,,,,,,,,,,,,,,,,,,,,,,7,9.0,f,021_o_f_n_a.jpg,neutral,s,17,2,612.4757711000002,612.7715174399997,612.9924296999998,613.1547816400004,613.1593749000003,613.1988016399997,613.2039499000002,614.5106193400003,s,1,613.2039499000002,614.5106193400003,614.5210926999998,615.82164694,1.2958900999992693,1295.8900999992693,EMOCONPILOT022,2021_Feb_18_1118,EmoCon_Pilot_120Hz,2020.2.4,119.89501992026129,
,,,,1,0,1,0,8,0,8,0,,,,,,,,,,,,,,,,,,,,,,,,,,,,,,,,,,,,,,,,,,,,,,8,9.0,f,021_o_f_s_a.jpg,sad,a,17,2,615.8263967000003,616.1215476399999,616.1447267000003,616.28151554,616.2819105999997,616.3227304400003,616.3239323999996,616.9438577400002,a,1,616.3239323999996,616.9438577400002,616.9513281,618.3383899400002,0.6079812000007223,607.9812000007223,EMOCONPILOT022,2021_Feb_18_1118,EmoCon_Pilot_120Hz,2020.2.4,119.89501992026129,
,,,,1,0,1,0,9,0,9,0,,,,,,,,,,,,,,,,,,,,,,,,,,,,,,,,,,,,,,,,,,,,,,9,4.0,m,016_y_m_s_a.jpg,sad,a,2,2,618.3428905000001,618.6382979400001,618.6645380999998,618.6796158399999,618.6803055,618.7143943400002,618.7141992999996,619.8828365400001,s,0,618.7141992999996,619.8828365400001,619.8889491,621.3300173399999,1.1536947000004147,1153.6947000004147,EMOCONPILOT022,2021_Feb_18_1118,EmoCon_Pilot_120Hz,2020.2.4,119.89501992026129,
,,,,1,0,1,0,10,0,10,0,,,,,,,,,,,,,,,,,,,,,,,,,,,,,,,,,,,,,,,,,,,,,,10,7.0,f,012_o_f_n_a.jpg,neutral,s,17,2,621.334777,621.6300640400001,622.0676623999998,622.2330230399999,622.2372084999997,622.2782889400002,622.2832412999996,623.1552774400003,s,1,622.2832412999996,623.1552774400003,623.1667085999998,624.4383880399997,0.864590500000304,864.590500000304,EMOCONPILOT022,2021_Feb_18_1118,EmoCon_Pilot_120Hz,2020.2.4,119.89501992026129,
,,,,1,0,1,0,11,0,11,0,,,,,,,,,,,,,,,,,,,,,,,,,,,,,,,,,,,,,,,,,,,,,,11,2.0,m,008_y_m_n_a.jpg,neutral,s,2,2,624.4429252,624.7382989399999,624.9748782999995,624.99186634,624.9925450000001,625.0268073399999,625.0265981000002,626.1415599400003,a,0,625.0265981000002,626.1415599400003,626.1476602000002,627.5384453399998,1.1049749999992855,1104.9749999992855,EMOCONPILOT022,2021_Feb_18_1118,EmoCon_Pilot_120Hz,2020.2.4,119.89501992026129,
,,,,1,0,1,0,12,0,12,0,,,,,,,,,,,,,,,,,,,,,,,,,,,,,,,,,,,,,,,,,,,,,,12,1.0,m,004_o_m_s_a.jpg,sad,a,17,2,627.5431403000002,627.83853134,627.8621450999999,627.9984579400003,628.0030865999997,628.0436856399998,628.0488267000001,628.5360039399999,a,1,628.0488267000001,628.5360039399999,628.5474893999999,629.5969470400001,0.4750603000002229,475.0603000002229,EMOCONPILOT022,2021_Feb_18_1118,EmoCon_Pilot_120Hz,2020.2.4,119.89501992026129,
,,,,1,0,1,0,13,0,13,0,,,,,,,,,,,,,,,,,,,,,,,,,,,,,,,,,,,,,,,,,,,,,,13,7.0,f,012_o_f_h_a.jpg,happy,d,2,2,629.6025692000003,629.8969629399995,629.9253556000003,629.9415524399998,629.9431538999997,629.9804477399999,629.9819478999998,631.5320761400004,s,0,629.9819478999998,631.5320761400004,631.5421949000001,633.0053381399999,1.5417625000000044,1541.7625000000044,EMOCONPILOT022,2021_Feb_18_1118,EmoCon_Pilot_120Hz,2020.2.4,119.89501992026129,
,,,,1,0,1,0,14,0,14,0,,,,,,,,,,,,,,,,,,,,,,,,,,,,,,,,,,,,,,,,,,,,,,14,3.0,m,013_y_m_h_a.jpg,happy,d,2,2,633.0106108999998,633.3053407399999,633.5553349000002,633.5722093399996,633.5731354999998,633.6100855399997,633.6154266000003,635.0134986399995,a,0,633.6154266000003,635.0134986399995,635.0251780999997,636.6968676399998,1.3883993999997983,1388.3993999997983,EMOCONPILOT022,2021_Feb_18_1118,EmoCon_Pilot_120Hz,2020.2.4,119.89501992026129,
,,,,1,0,1,0,15,0,15,0,,,,,,,,,,,,,,,,,,,,,,,,,,,,,,,,,,,,,,,,,,,,,,15,11.0,f,030_o_f_n_a.jpg,neutral,s,17,2,636.6997436000001,636.9968766400003,637.2048464999998,637.3642376399999,637.3688331000003,637.4086545400002,637.4130354999998,639.15349174,None,0,637.4130354999998,639.15349174,639.1581794000003,641.0388257399997,,,EMOCONPILOT022,2021_Feb_18_1118,EmoCon_Pilot_120Hz,2020.2.4,119.89501992026129,
,,,,1,0,1,0,16,0,16,0,,,,,,,,,,,,,,,,,,,,,,,,,,,,,,,,,,,,,,,,,,,,,,16,3.0,m,013_y_m_n_a.jpg,neutral,s,17,2,641.0431705000001,641.3386946400002,641.5673346000003,641.7238867399998,641.7288349999999,641.7698556399997,641.7748423000003,642.37999654,s,1,641.7748423000003,642.37999654,642.3906301999996,643.4637853399996,0.5888650000006237,588.8650000006237,EMOCONPILOT022,2021_Feb_18_1118,EmoCon_Pilot_120Hz,2020.2.4,119.89501992026129,
,,,,1,0,1,0,17,0,17,0,,,,,,,,,,,,,,,,,,,,,,,,,,,,,,,,,,,,,,,,,,,,,,17,9.0,f,021_o_f_h_a.jpg,happy,d,17,2,643.4689779,643.7638013399998,643.9798996999998,644.1387344399997,644.1422790999995,644.1826572400001,644.1877446999997,644.7335973400001,d,1,644.1877446999997,644.7335973400001,644.7453508999997,645.8805056400003,0.5361104999992676,536.1104999992676,EMOCONPILOT022,2021_Feb_18_1118,EmoCon_Pilot_120Hz,2020.2.4,119.89501992026129,
,,,,1,0,1,0,18,0,18,0,,,,,,,,,,,,,,,,,,,,,,,,,,,,,,,,,,,,,,,,,,,,,,18,3.0,m,013_y_m_s_a.jpg,sad,a,17,2,645.8856495999999,646.1805933399997,646.2075164999997,646.3405090399998,646.3432301000003,646.3817356400001,646.3848156000004,647.22814394,a,1,646.3848156000004,647.22814394,647.2365247999996,648.8639837400002,0.8348103999996965,834.8103999996965,EMOCONPILOT022,2021_Feb_18_1118,EmoCon_Pilot_120Hz,2020.2.4,119.89501992026129,
,,,,1,0,1,0,19,0,19,0,,,,,,,,,,,,,,,,,,,,,,,,,,,,,,,,,,,,,,,,,,,,,,19,10.0,f,028_y_f_h_a.jpg,happy,d,2,2,648.8699939999997,649.16397414,649.1837570999996,649.1993153399995,649.1992945000002,649.2343964400003,649.2343872000001,650.2488032400003,d,1,649.2343872000001,650.2488032400003,650.2568841000002,651.5304983399998,1.0013122999998814,1001.3122999998814,EMOCONPILOT022,2021_Feb_18_1118,EmoCon_Pilot_120Hz,2020.2.4,119.89501992026129,
,,,,1,0,1,0,20,0,20,0,,,,,,,,,,,,,,,,,,,,,,,,,,,,,,,,,,,,,,,,,,,,,,20,4.0,m,016_y_m_h_a.jpg,happy,d,2,2,651.5333770999996,651.8304951400002,651.8511589999998,651.8670143400001,651.8675369000002,651.90244064,651.9027300999996,652.8292267399999,d,1,651.9027300999996,652.8292267399999,652.8354369999997,654.3139625399996,0.9168977999997878,916.8977999997878,EMOCONPILOT022,2021_Feb_18_1118,EmoCon_Pilot_120Hz,2020.2.4,119.89501992026129,
,,,,1,0,1,0,21,0,21,0,,,,,,,,,,,,,,,,,,,,,,,,,,,,,,,,,,,,,,,,,,,,,,21,6.0,m,033_o_m_h_a.jpg,happy,d,2,2,654.3182553999995,654.6140607399999,654.6363937999995,654.6515790399995,654.6525554999998,654.69013874,654.6914938999998,656.3451671400004,d,1,654.6914938999998,656.3451671400004,656.3543811999998,658.2306992399996,1.6402135999996972,1640.2135999996972,EMOCONPILOT022,2021_Feb_18_1118,EmoCon_Pilot_120Hz,2020.2.4,119.89501992026129,
,,,,1,0,1,0,22,0,22,0,,,,,,,,,,,,,,,,,,,,,,,,,,,,,,,,,,,,,,,,,,,,,,22,5.0,m,027_o_m_s_a.jpg,sad,a,2,2,658.2345029999997,658.5307456400002,658.5556263999997,658.5706436400002,658.5714699999999,658.6068088400003,658.6071089999996,660.2053053400001,None,0,658.6071089999996,660.2053053400001,660.2064768,661.2724304399995,,,EMOCONPILOT022,2021_Feb_18_1118,EmoCon_Pilot_120Hz,2020.2.4,119.89501992026129,
,,,,1,0,1,0,23,0,23,0,,,,,,,,,,,,,,,,,,,,,,,,,,,,,,,,,,,,,,,,,,,,,,23,10.0,f,028_y_f_n_a.jpg,neutral,s,17,2,661.2765289999998,661.5724463399998,661.7899766,661.9493005399996,661.9540299999999,661.9948261400001,662.0000983,662.4833745399998,s,1,662.0000983,662.4833745399998,662.4895213,663.5891680399997,0.46743009999954666,467.43009999954666,EMOCONPILOT022,2021_Feb_18_1118,EmoCon_Pilot_120Hz,2020.2.4,119.89501992026129,
,,,,1,0,1,0,24,0,24,0,,,,,,,,,,,,,,,,,,,,,,,,,,,,,,,,,,,,,,,,,,,,,,24,9.0,f,021_o_f_n_a.jpg,neutral,s,17,2,663.5931111,663.8891849400003,664.1018414999999,664.2611621399998,664.2657582000002,664.3062539400004,664.3112099999998,664.7270034399995,s,1,664.3112099999998,664.7270034399995,664.7379302999998,665.8058354399997,0.4046007999995709,404.6007999995709,EMOCONPILOT022,2021_Feb_18_1118,EmoCon_Pilot_120Hz,2020.2.4,119.89501992026129,
,,,,1,0,1,0,25,0,25,0,,,,,,,,,,,,,,,,,,,,,,,,,,,,,,,,,,,,,,,,,,,,,,25,8.0,f,019_m_f_h_a.jpg,happy,d,17,2,665.8100222000003,666.1059068399996,666.1303865,666.2657564400002,666.2688576999999,666.3071061400002,666.3100636999998,666.7639868399998,d,1,666.3100636999998,666.7639868399998,666.7725100999996,667.9309854399995,0.44555940000009286,445.55940000009286,EMOCONPILOT022,2021_Feb_18_1118,EmoCon_Pilot_120Hz,2020.2.4,119.89501992026129,
,,,,1,0,1,0,26,0,26,0,,,,,,,,,,,,,,,,,,,,,,,,,,,,,,,,,,,,,,,,,,,,,,26,4.0,m,016_y_m_n_a.jpg,neutral,s,2,2,667.9355624999998,668.2309083400002,668.4731253999998,668.4898651399996,668.4903125000001,668.5245511399995,668.5244253000001,669.8012071399995,d,0,668.5244253000001,669.8012071399995,669.8134908000002,671.4060196400002,1.2633152999997037,1263.3152999997037,EMOCONPILOT022,2021_Feb_18_1118,EmoCon_Pilot_120Hz,2020.2.4,119.89501992026129,
,,,,1,0,1,0,27,0,27,0,,,,,,,,,,,,,,,,,,,,,,,,,,,,,,,,,,,,,,,,,,,,,,27,1.0,m,004_o_m_h_a.jpg,happy,d,2,2,671.4100464000003,671.7059562399996,671.9047070999995,671.9218733399999,671.9255434999995,671.9651966400003,671.9681958000001,673.4680767400001,d,1,671.9681958000001,673.4680767400001,673.4790985,675.0894629399996,1.4835122000004048,1483.5122000004048,EMOCONPILOT022,2021_Feb_18_1118,EmoCon_Pilot_120Hz,2020.2.4,119.89501992026129,
,,,,1,0,1,0,28,0,28,0,,,,,,,,,,,,,,,,,,,,,,,,,,,,,,,,,,,,,,,,,,,,,,28,10.0,f,028_y_f_s_a.jpg,sad,a,2,2,675.0935440000003,675.3895087400002,675.4139851,675.4291645399995,675.4296033999999,675.46567234,675.4657163000002,676.7475379399999,s,0,675.4657163000002,676.7475379399999,676.7571756999996,678.3144820399999,1.2739019000000553,1273.9019000000553,EMOCONPILOT022,2021_Feb_18_1118,EmoCon_Pilot_120Hz,2020.2.4,119.89501992026129,
,,,,1,0,1,0,29,0,29,0,,,,,,,,,,,,,,,,,,,,,,,,,,,,,,,,,,,,,,,,,,,,,,29,5.0,m,027_o_m_h_a.jpg,happy,d,2,2,678.3199532999997,678.6144921399997,678.8236104999996,678.8406337399998,678.8413727999996,678.8773082399999,678.8775416999997,680.2941857399998,a,0,678.8775416999997,680.2941857399998,680.3050733999999,681.8979766400004,1.406153699999777,1406.153699999777,EMOCONPILOT022,2021_Feb_18_1118,EmoCon_Pilot_120Hz,2020.2.4,119.89501992026129,
,,,,1,0,1,0,30,0,30,0,,,,,,,,,,,,,,,,,,,,,,,,,,,,,,,,,,,,,,,,,,,,,,30,10.0,f,028_y_f_h_a.jpg,happy,d,2,2,681.9021940000002,682.1979288400004,682.2146288000004,682.2298956399997,682.2303037000001,682.26565154,682.2659929000001,683.70791944,d,1,682.2659929000001,683.70791944,683.7152803999998,685.0562741399996,1.4336938999995255,1433.6938999995255,EMOCONPILOT022,2021_Feb_18_1118,EmoCon_Pilot_120Hz,2020.2.4,119.89501992026129,
,,,,1,0,1,0,31,0,31,0,,,,,,,,,,,,,,,,,,,,,,,,,,,,,,,,,,,,,,,,,,,,,,31,5.0,m,027_o_m_h_a.jpg,happy,d,2,2,685.0616047000003,685.3563588399999,685.5658586999998,685.5829608399996,685.5838637999996,685.6181531400003,685.6180048999995,687.2107153399999,s,0,685.6180048999995,687.2107153399999,687.2201132,688.2979212400002,1.5856858000006469,1585.6858000006469,EMOCONPILOT022,2021_Feb_18_1118,EmoCon_Pilot_120Hz,2020.2.4,119.89501992026129,
,,,,1,0,1,0,32,0,32,0,,,,,,,,,,,,,,,,,,,,,,,,,,,,,,,,,,,,,,,,,,,,,,32,9.0,f,021_o_f_n_a.jpg,neutral,s,17,2,688.3009113999997,688.5980550399996,688.8033213999997,688.9638586400002,688.9684387999996,689.0095686399997,689.0138647000003,689.4792242399996,s,1,689.0138647000003,689.4792242399996,689.4910441000002,690.5981283400002,0.454060600000048,454.060600000048,EMOCONPILOT022,2021_Feb_18_1118,EmoCon_Pilot_120Hz,2020.2.4,119.89501992026129,
,,,,1,0,1,0,33,0,33,0,,,,,,,,,,,,,,,,,,,,,,,,,,,,,,,,,,,,,,,,,,,,,,33,3.0,m,013_y_m_s_a.jpg,sad,a,2,2,690.6036985999999,690.8981277400004,690.9248238999999,690.9400515399999,690.940407,690.9761034399995,690.9768596000004,692.1190909399999,d,0,690.9768596000004,692.1190909399999,692.1275577999995,693.8229768400003,1.1308884000000035,1130.8884000000035,EMOCONPILOT022,2021_Feb_18_1118,EmoCon_Pilot_120Hz,2020.2.4,119.89501992026129,
,,,,1,0,1,0,34,0,34,0,,,,,,,,,,,,,,,,,,,,,,,,,,,,,,,,,,,,,,,,,,,,,,34,1.0,m,004_o_m_n_a.jpg,neutral,s,2,2,693.8253881,694.1230651399998,694.3363895000002,694.3535288399995,694.3572990000002,694.3968783400002,694.4020117999999,695.8116807399998,s,1,694.4020117999999,695.8116807399998,695.8208437000003,696.8647124400001,1.4016271000000415,1401.6271000000415,EMOCONPILOT022,2021_Feb_18_1118,EmoCon_Pilot_120Hz,2020.2.4,119.89501992026129,
,,,,1,0,1,0,35,0,35,0,,,,,,,,,,,,,,,,,,,,,,,,,,,,,,,,,,,,,,,,,,,,,,35,12.0,f,040_y_f_h_a.jpg,happy,d,2,2,696.8676530000002,697.1648279400002,697.1801592000002,697.1957943399999,697.1964005999998,697.23261934,697.2338917999996,698.1637626400003,d,1,697.2338917999996,698.1637626400003,698.1753946999997,699.31476024,0.9220983999994132,922.0983999994132,EMOCONPILOT022,2021_Feb_18_1118,EmoCon_Pilot_120Hz,2020.2.4,119.89501992026129,
,,,,1,0,1,0,36,0,36,0,,,,,,,,,,,,,,,,,,,,,,,,,,,,,,,,,,,,,,,,,,,,,,36,10.0,f,028_y_f_n_a.jpg,neutral,s,17,2,699.3149155000001,699.6145954399996,699.8224676,699.9697068399997,699.9700602000003,700.0076951400002,700.0073908000004,700.6067374399996,s,1,700.0073908000004,700.6067374399996,700.6083029000001,701.93118844,0.5880897999995796,588.0897999995796,EMOCONPILOT022,2021_Feb_18_1118,EmoCon_Pilot_120Hz,2020.2.4,119.89501992026129,
,,,,1,0,1,0,37,0,37,0,,,,,,,,,,,,,,,,,,,,,,,,,,,,,,,,,,,,,,,,,,,,,,37,11.0,f,030_o_f_n_a.jpg,neutral,s,17,2,701.9312302999997,702.2315648399996,702.4269779999995,702.57913384,702.5794027000002,702.61593134,702.6156456999997,703.92355784,s,1,702.6156456999997,703.92355784,703.9257967000003,705.7147577399998,1.2997796999998172,1299.7796999998172,EMOCONPILOT022,2021_Feb_18_1118,EmoCon_Pilot_120Hz,2020.2.4,119.89501992026129,
,,,,1,0,1,0,38,0,38,0,,,,,,,,,,,,,,,,,,,,,,,,,,,,,,,,,,,,,,,,,,,,,,38,1.0,m,004_o_m_h_a.jpg,happy,d,17,2,705.7146608000003,706.0148786400001,706.1994696000002,706.35088874,706.3512303999996,706.3866482399995,706.3865188999998,707.10671014,d,1,706.3865188999998,707.10671014,707.1092594000002,708.2730066399996,0.7129393000004711,712.9393000004711,EMOCONPILOT022,2021_Feb_18_1118,EmoCon_Pilot_120Hz,2020.2.4,119.89501992026129,
,,,,1,0,1,0,39,0,39,0,,,,,,,,,,,,,,,,,,,,,,,,,,,,,,,,,,,,,,,,,,,,,,39,6.0,m,033_o_m_h_a.jpg,happy,d,17,2,708.2732589999996,708.5731697400003,708.5838451999998,708.7164864399998,708.7166416999999,708.7576784400004,708.7575361999998,709.1401906400002,d,1,708.7575361999998,709.1401906400002,709.1431429000004,710.6897654399996,0.3739416999997047,373.9416999997047,EMOCONPILOT022,2021_Feb_18_1118,EmoCon_Pilot_120Hz,2020.2.4,119.89501992026129,
,,,,1,0,1,0,40,0,40,0,,,,,,,,,,,,,,,,,,,,,,,,,,,,,,,,,,,,,,,,,,,,,,40,7.0,f,012_o_f_h_a.jpg,happy,d,2,2,710.6897472,710.9897363400001,710.9988358999999,711.0145776400001,711.0148061999998,711.0510933399997,711.0510745000001,711.6901960399997,d,1,711.0510745000001,711.6901960399997,711.6916653999997,712.8397924400002,0.6244153999996342,624.4153999996342,EMOCONPILOT022,2021_Feb_18_1118,EmoCon_Pilot_120Hz,2020.2.4,119.89501992026129,
,,,,1,0,1,0,41,0,41,0,,,,,,,,,,,,,,,,,,,,,,,,,,,,,,,,,,,,,,,,,,,,,,41,6.0,m,033_o_m_n_a.jpg,neutral,s,17,2,712.8400374000003,713.13975644,713.5284118999998,713.6796447399998,713.6804542999998,713.7160560400004,713.7154488999995,714.7904114400004,s,1,713.7154488999995,714.7904114400004,714.7928565000002,716.5566650400002,1.0639714999997523,1063.9714999997523,EMOCONPILOT022,2021_Feb_18_1118,EmoCon_Pilot_120Hz,2020.2.4,119.89501992026129,
,,,,1,0,1,0,42,0,42,0,,,,,,,,,,,,,,,,,,,,,,,,,,,,,,,,,,,,,,,,,,,,,,42,7.0,f,012_o_f_h_a.jpg,happy,d,17,2,716.5565736999997,716.8564885399998,716.8659996999995,717.00021334,717.0005975000004,717.0414840399995,717.0407900999999,717.4906119399999,d,1,717.0407900999999,717.4906119399999,717.4945056999995,719.3235726400004,0.43457929999931366,434.57929999931366,EMOCONPILOT022,2021_Feb_18_1118,EmoCon_Pilot_120Hz,2020.2.4,119.89501992026129,
,,,,1,0,1,0,43,0,43,0,,,,,,,,,,,,,,,,,,,,,,,,,,,,,,,,,,,,,,,,,,,,,,43,5.0,m,027_o_m_h_a.jpg,happy,d,2,2,719.3275864999996,719.6235526400002,719.8436095999996,719.8609107400003,719.862067,719.8995801400002,719.9010129999997,720.5273152400001,d,1,719.9010129999997,720.5273152400001,720.5368679000003,722.0568467399995,0.6144522000004145,614.4522000004145,EMOCONPILOT022,2021_Feb_18_1118,EmoCon_Pilot_120Hz,2020.2.4,119.89501992026129,
,,,,1,0,1,0,44,0,44,0,,,,,,,,,,,,,,,,,,,,,,,,,,,,,,,,,,,,,,,,,,,,,,44,10.0,f,028_y_f_s_a.jpg,sad,a,17,2,722.0596100000002,722.3567188399999,722.3674052999995,722.5001238399997,722.5000812999997,722.5414056400001,722.5412420000002,723.4523231399995,a,1,722.5412420000002,723.4523231399995,723.4629374999995,724.7153693400002,0.8945223000000624,894.5223000000624,EMOCONPILOT022,2021_Feb_18_1118,EmoCon_Pilot_120Hz,2020.2.4,119.89501992026129,
,,,,1,0,1,0,45,0,45,0,,,,,,,,,,,,,,,,,,,,,,,,,,,,,,,,,,,,,,,,,,,,,,45,7.0,f,012_o_f_n_a.jpg,neutral,s,17,2,724.7208524999996,725.0153799400001,725.2227654999997,725.3938734399995,725.3972136000002,725.4376778399998,725.4426688000003,726.0750906399995,s,1,725.4426688000003,726.0750906399995,726.0826602999996,727.2404790400002,0.6173190999998042,617.3190999998042,EMOCONPILOT022,2021_Feb_18_1118,EmoCon_Pilot_120Hz,2020.2.4,119.89501992026129,
,,,,1,0,1,0,46,0,46,0,,,,,,,,,,,,,,,,,,,,,,,,,,,,,,,,,,,,,,,,,,,,,,46,1.0,m,004_o_m_n_a.jpg,neutral,s,17,2,727.2446690999996,727.5404806399998,727.7417308000004,727.9015096399995,727.9060180999995,727.9469789399997,727.951892,728.85314824,s,1,727.951892,728.85314824,728.8580128000003,730.0320526399997,0.8915398999997706,891.5398999997706,EMOCONPILOT022,2021_Feb_18_1118,EmoCon_Pilot_120Hz,2020.2.4,119.89501992026129,
,,,,1,0,1,0,47,0,47,0,,,,,,,,,,,,,,,,,,,,,,,,,,,,,,,,,,,,,,,,,,,,,,47,9.0,f,021_o_f_h_a.jpg,happy,d,2,2,730.0321097999995,730.3318648399996,730.5419351,730.5595917400002,730.5598610999996,730.5999710399998,730.6040706000003,731.3909178399996,d,1,730.6040706000003,731.3909178399996,731.3932842000004,732.7902319399997,0.7753024999992704,775.3024999992704,EMOCONPILOT022,2021_Feb_18_1118,EmoCon_Pilot_120Hz,2020.2.4,119.89501992026129,
,,,,1,0,1,0,48,0,48,0,,,,,,,,,,,,,,,,,,,,,,,,,,,,,,,,,,,,,,,,,,,,,,48,10.0,f,028_y_f_n_a.jpg,neutral,s,17,2,732.7906514999995,733.0902973400003,733.2817626999995,733.4363600399998,733.4377471999996,733.4750033400002,733.4749524999997,734.0160475400004,s,1,733.4749524999997,734.0160475400004,734.0179999000002,735.9736693399997,0.5283792999998695,528.3792999998695,EMOCONPILOT022,2021_Feb_18_1118,EmoCon_Pilot_120Hz,2020.2.4,119.89501992026129,
,,,,1,0,1,0,49,0,49,0,,,,,,,,,,,,,,,,,,,,,,,,,,,,,,,,,,,,,,,,,,,,,,49,7.0,f,012_o_f_h_a.jpg,happy,d,17,2,735.9741303999999,736.2736304400001,736.2851570000003,736.4170890399997,736.4183450999999,736.4584129399997,736.4585805999996,736.9804943400001,d,1,736.4585805999996,736.9804943400001,736.9918381999996,738.6073268400002,0.5050148999998783,505.01489999987825,EMOCONPILOT022,2021_Feb_18_1118,EmoCon_Pilot_120Hz,2020.2.4,119.89501992026129,
,,,,1,0,1,0,50,0,50,0,,,,,,,,,,,,,,,,,,,,,,,,,,,,,,,,,,,,,,,,,,,,,,50,5.0,m,027_o_m_h_a.jpg,happy,d,2,2,738.6124516,738.90710344,739.1122094000002,739.1286568399997,739.1296239000003,739.1667564400001,739.166534,740.10727044,d,1,739.166534,740.10727044,740.1147081999998,741.7987435399997,0.932932300000175,932.932300000175,EMOCONPILOT022,2021_Feb_18_1118,EmoCon_Pilot_120Hz,2020.2.4,119.89501992026129,
,,,,1,0,1,0,51,0,51,0,,,,,,,,,,,,,,,,,,,,,,,,,,,,,,,,,,,,,,,,,,,,,,51,12.0,f,040_y_f_n_a.jpg,neutral,s,17,2,741.7988993999998,742.0988756399998,742.3088289999996,742.4658657400001,742.4678944999996,742.50400744,742.5038163999998,743.1243924400002,s,1,742.5038163999998,743.1243924400002,743.1283720000001,744.8405449400003,0.6117403999996895,611.7403999996895,EMOCONPILOT022,2021_Feb_18_1118,EmoCon_Pilot_120Hz,2020.2.4,119.89501992026129,
,,,,1,0,1,0,52,0,52,0,,,,,,,,,,,,,,,,,,,,,,,,,,,,,,,,,,,,,,,,,,,,,,52,2.0,m,008_y_m_h_a.jpg,happy,d,17,2,744.8405978999999,745.1404717399997,745.1512433999997,745.2838699399996,745.2846090000003,745.3253505400004,745.3265627999999,745.9173491400003,d,1,745.3265627999999,745.9173491400003,745.9209173999998,747.0072768400001,0.5809048000000985,580.9048000000985,EMOCONPILOT022,2021_Feb_18_1118,EmoCon_Pilot_120Hz,2020.2.4,119.89501992026129,
,,,,1,0,1,0,53,0,53,0,,,,,,,,,,,,,,,,,,,,,,,,,,,,,,,,,,,,,,,,,,,,,,53,6.0,m,033_o_m_h_a.jpg,happy,d,17,2,747.0078133999996,747.3072607399996,747.3197807999995,747.4507575399999,747.4519528999999,747.49198124,747.4921539999996,747.9593541399996,d,1,747.4921539999996,747.9593541399996,747.9635400999996,749.5322161399996,0.45520740000029036,455.20740000029036,EMOCONPILOT022,2021_Feb_18_1118,EmoCon_Pilot_120Hz,2020.2.4,119.89501992026129,
,,,,1,0,1,0,54,0,54,0,,,,,,,,,,,,,,,,,,,,,,,,,,,,,,,,,,,,,,,,,,,,,,54,2.0,m,008_y_m_h_a.jpg,happy,d,17,2,749.5329839999995,749.83227744,749.8423335999996,749.97568904,749.9758849999998,750.0169654400003,750.0170602999997,750.7999680400004,d,1,750.0170602999997,750.7999680400004,750.8032598,752.3156182400004,0.7703411000002234,770.3411000002234,EMOCONPILOT022,2021_Feb_18_1118,EmoCon_Pilot_120Hz,2020.2.4,119.89501992026129,
,,,,1,0,1,0,55,0,55,0,,,,,,,,,,,,,,,,,,,,,,,,,,,,,,,,,,,,,,,,,,,,,,55,12.0,f,040_y_f_h_a.jpg,happy,d,17,2,752.3158586999998,752.6155919400004,752.6267011999998,752.7590477399996,752.7591051999998,752.80031784,752.8002821,753.2249480400002,d,1,752.8002821,753.2249480400002,753.2273480000003,754.8908070399999,0.41102719999980764,411.02719999980764,EMOCONPILOT022,2021_Feb_18_1118,EmoCon_Pilot_120Hz,2020.2.4,119.89501992026129,
,,,,1,0,1,0,56,0,56,0,,,,,,,,,,,,,,,,,,,,,,,,,,,,,,,,,,,,,,,,,,,,,,56,10.0,f,028_y_f_n_a.jpg,neutral,s,2,2,754.8907110999999,755.1905811399998,755.4086408000003,755.42634014,755.4268233000003,755.4630811399999,755.4630119000003,756.6036832400001,s,1,755.4630119000003,756.6036832400001,756.6069314999995,758.5323180399997,1.124408599999697,1124.408599999697,EMOCONPILOT022,2021_Feb_18_1118,EmoCon_Pilot_120Hz,2020.2.4,119.89501992026129,
,,,,1,0,1,0,57,0,57,0,,,,,,,,,,,,,,,,,,,,,,,,,,,,,,,,,,,,,,,,,,,,,,57,12.0,f,040_y_f_s_a.jpg,sad,a,2,2,758.5325359999997,758.83235974,758.8422125999996,758.85787554,758.8580688000002,758.89426444,758.8943968000003,760.0746244400003,s,0,758.8943968000003,760.0746244400003,760.0777914999999,761.2074511400002,1.1649812000005113,1164.9812000005113,EMOCONPILOT022,2021_Feb_18_1118,EmoCon_Pilot_120Hz,2020.2.4,119.89501992026129,
,,,,1,0,1,0,58,0,58,0,,,,,,,,,,,,,,,,,,,,,,,,,,,,,,,,,,,,,,,,,,,,,,58,5.0,m,027_o_m_n_a.jpg,neutral,s,2,2,761.2074585999999,761.50752264,761.7256240999995,761.7426052400002,761.7430719000004,761.7793904400002,761.7792196999999,762.9081799399997,d,0,761.7792196999999,762.9081799399997,762.9110977,764.7414488399996,1.1203992999999173,1120.3992999999173,EMOCONPILOT022,2021_Feb_18_1118,EmoCon_Pilot_120Hz,2020.2.4,119.89501992026129,
,,,,1,0,1,0,59,0,59,0,,,,,,,,,,,,,,,,,,,,,,,,,,,,,,,,,,,,,,,,,,,,,,59,4.0,m,016_y_m_s_a.jpg,sad,a,17,2,764.7412412000003,765.0409279399997,765.0498711,765.1842080399998,765.1843840000001,765.2258853399995,765.2256931000002,765.8246358399998,a,1,765.2256931000002,765.8246358399998,765.8276235000003,767.5826098399999,0.5856205999998565,585.6205999998565,EMOCONPILOT022,2021_Feb_18_1118,EmoCon_Pilot_120Hz,2020.2.4,119.89501992026129,
,,,,1,0,1,0,60,0,60,0,,,,,,,,,,,,,,,,,,,,,,,,,,,,,,,,,,,,,,,,,,,,,,60,5.0,m,027_o_m_n_a.jpg,neutral,s,17,2,767.5835182000001,767.8827280399997,768.0918564000003,768.2514593399998,768.2515800000001,768.2879748399997,768.287918,769.10896534,s,1,768.287918,769.10896534,769.1124917999996,770.2078421399998,0.811731000000691,811.731000000691,EMOCONPILOT022,2021_Feb_18_1118,EmoCon_Pilot_120Hz,2020.2.4,119.89501992026129,
,,,,1,0,1,0,61,0,61,0,,,,,,,,,,,,,,,,,,,,,,,,,,,,,,,,,,,,,,,,,,,,,,61,10.0,f,028_y_f_s_a.jpg,sad,a,2,2,770.2080984000004,770.5077419400001,770.5171472000002,770.53278784,770.5334844999998,770.5698940400003,770.5703600999996,771.6581928399997,s,0,770.5703600999996,771.6581928399997,771.6612631999997,773.5160820400002,1.0730211999998573,1073.0211999998573,EMOCONPILOT022,2021_Feb_18_1118,EmoCon_Pilot_120Hz,2020.2.4,119.89501992026129,
,,,,1,0,1,0,62,0,62,0,,,,,,,,,,,,,,,,,,,,,,,,,,,,,,,,,,,,,,,,,,,,,,62,3.0,m,013_y_m_n_a.jpg,neutral,s,17,2,773.5161569000002,773.8161553400001,774.0514506999998,774.2041325400002,774.2045422000001,774.2426108400001,774.2433228,775.3001844400002,s,1,774.2433228,775.3001844400002,775.3027097000004,776.4328315400004,1.0481187000004866,1048.1187000004866,EMOCONPILOT022,2021_Feb_18_1118,EmoCon_Pilot_120Hz,2020.2.4,119.89501992026129,
,,,,1,0,1,0,63,0,63,0,,,,,,,,,,,,,,,,,,,,,,,,,,,,,,,,,,,,,,,,,,,,,,63,4.0,m,016_y_m_s_a.jpg,sad,a,2,2,776.4330185999997,776.7328099399998,776.7429217999997,776.7583252399996,776.7584645999996,776.79486994,776.7949035000001,777.9170918400001,s,0,776.7949035000001,777.9170918400001,777.9205381000002,779.0161541399999,1.1125417000002926,1112.5417000002926,EMOCONPILOT022,2021_Feb_18_1118,EmoCon_Pilot_120Hz,2020.2.4,119.89501992026129,
,,,,1,0,1,0,64,0,64,0,,,,,,,,,,,,,,,,,,,,,,,,,,,,,,,,,,,,,,,,,,,,,,64,12.0,f,040_y_f_h_a.jpg,happy,d,2,2,779.0163988000004,779.3162484399996,779.3264882000003,779.3419758400001,779.3426450999996,779.3789308399997,779.3799693999999,780.8750906399997,None,0,779.3799693999999,780.8750906399997,780.8754878,782.3996526400002,,,EMOCONPILOT022,2021_Feb_18_1118,EmoCon_Pilot_120Hz,2020.2.4,119.89501992026129,
,,,,1,0,1,0,65,0,65,0,,,,,,,,,,,,,,,,,,,,,,,,,,,,,,,,,,,,,,,,,,,,,,65,5.0,m,027_o_m_n_a.jpg,neutral,s,17,2,782.3996967000003,782.6995059400002,783.1833702000004,783.3456497399999,783.3464567000001,783.3841503399996,783.3831444999996,784.8840667399996,None,0,783.3831444999996,784.8840667399996,784.8845312000003,785.9080392399998,,,EMOCONPILOT022,2021_Feb_18_1118,EmoCon_Pilot_120Hz,2020.2.4,119.89501992026129,
,,,,1,0,1,0,66,0,66,0,,,,,,,,,,,,,,,,,,,,,,,,,,,,,,,,,,,,,,,,,,,,,,66,6.0,m,033_o_m_s_a.jpg,sad,a,2,2,785.9088030000003,786.2080638399999,786.2199107999995,786.2351967399997,786.2367134999995,786.2720639400001,786.2720226000001,787.3584627400002,d,0,786.2720226000001,787.3584627400002,787.3614951999998,789.2163438399999,1.075440599999638,1075.440599999638,EMOCONPILOT022,2021_Feb_18_1118,EmoCon_Pilot_120Hz,2020.2.4,119.89501992026129,
,,,,1,0,1,0,67,0,67,0,,,,,,,,,,,,,,,,,,,,,,,,,,,,,,,,,,,,,,,,,,,,,,67,6.0,m,033_o_m_h_a.jpg,happy,d,17,2,789.2165364000002,789.5164475400003,789.5272501,789.6600094399997,789.6618337,789.70111444,789.7010787999998,790.2752605399997,d,1,789.7010787999998,790.2752605399997,790.2790173000003,792.2165835399998,0.5663433999998233,566.3433999998233,EMOCONPILOT022,2021_Feb_18_1118,EmoCon_Pilot_120Hz,2020.2.4,119.89501992026129,
,,,,1,0,1,0,68,0,68,0,,,,,,,,,,,,,,,,,,,,,,,,,,,,,,,,,,,,,,,,,,,,,,68,2.0,m,008_y_m_s_a.jpg,sad,a,17,2,792.2195333999998,792.5165894400003,792.7625343,792.9312718400002,792.9359931999998,792.9768511400003,792.9821353999996,793.6192682400002,a,1,792.9821353999996,793.6192682400002,793.6290401999995,795.0417765400003,0.6292671999999584,629.2671999999584,EMOCONPILOT022,2021_Feb_18_1118,EmoCon_Pilot_120Hz,2020.2.4,119.89501992026129,
,,,,1,0,1,0,69,0,69,0,,,,,,,,,,,,,,,,,,,,,,,,,,,,,,,,,,,,,,,,,,,,,,69,1.0,m,004_o_m_n_a.jpg,neutral,s,2,2,795.0458546,795.3416949400004,795.5484250999998,795.5650572399996,795.5656307999998,795.6011824399999,795.6011277999996,796.52386764,d,0,795.6011277999996,796.52386764,796.5324850999996,797.8583425399999,0.9143915999993624,914.3915999993624,EMOCONPILOT022,2021_Feb_18_1118,EmoCon_Pilot_120Hz,2020.2.4,119.89501992026129,
,,,,1,0,1,0,70,0,70,0,,,,,,,,,,,,,,,,,,,,,,,,,,,,,,,,,,,,,,,,,,,,,,70,2.0,m,008_y_m_s_a.jpg,sad,a,2,2,797.8611595000002,798.1583959400001,798.3850426999998,798.4028494399996,798.4063544,798.4471468400003,798.4519855999997,799.0598854400001,a,1,798.4519855999997,799.0598854400001,799.0664623000002,800.6168315399997,0.5915971999993417,591.5971999993417,EMOCONPILOT022,2021_Feb_18_1118,EmoCon_Pilot_120Hz,2020.2.4,119.89501992026129,
,,,,1,0,1,0,71,0,71,0,,,,,,,,,,,,,,,,,,,,,,,,,,,,,,,,,,,,,,,,,,,,,,71,11.0,f,030_o_f_n_a.jpg,neutral,s,17,2,800.6209556000003,800.9168859400003,801.1226078,801.28117154,801.2858321000003,801.3268766400003,801.3318520000003,802.0107968400004,s,1,801.3318520000003,802.0107968400004,802.0225207000003,803.87535524,0.6716876999998931,671.6876999998931,EMOCONPILOT022,2021_Feb_18_1118,EmoCon_Pilot_120Hz,2020.2.4,119.89501992026129,
,,,,1,0,1,0,72,0,72,0,,,,,,,,,,,,,,,,,,,,,,,,,,,,,,,,,,,,,,,,,,,,,,72,11.0,f,030_o_f_n_a.jpg,neutral,s,2,2,803.8808933999999,804.1753477400003,804.3840491000001,804.40193754,804.4056699000002,804.4466043400004,804.4518633999996,805.93422144,a,0,804.4518633999996,805.93422144,805.9429718000001,807.2752394400001,1.4716072000001077,1471.6072000001077,EMOCONPILOT022,2021_Feb_18_1118,EmoCon_Pilot_120Hz,2020.2.4,119.89501992026129,
,,,,1,0,1,0,73,0,73,0,,,,,,,,,,,,,,,,,,,,,,,,,,,,,,,,,,,,,,,,,,,,,,73,2.0,m,008_y_m_s_a.jpg,sad,a,17,2,807.2752850999996,807.5753034400001,807.8153026999998,807.98553804,807.9890632999995,808.02997604,808.0353285000001,808.4907649399998,a,1,808.0353285000001,808.4907649399998,808.5019392000004,809.6754509400004,0.4402417000001151,440.2417000001151,EMOCONPILOT022,2021_Feb_18_1118,EmoCon_Pilot_120Hz,2020.2.4,119.89501992026129,
,,,,1,0,1,0,74,0,74,0,,,,,,,,,,,,,,,,,,,,,,,,,,,,,,,,,,,,,,,,,,,,,,74,11.0,f,030_o_f_n_a.jpg,neutral,s,2,2,809.6811005999998,809.97538374,810.1697870999997,810.1878346399996,810.1913818000003,810.23057544,810.2354765999999,811.1185585399995,s,1,810.2354765999999,811.1185585399995,811.1268088999996,812.30037564,0.8719452999994246,871.9452999994246,EMOCONPILOT022,2021_Feb_18_1118,EmoCon_Pilot_120Hz,2020.2.4,119.89501992026129,
,,,,1,0,1,0,75,0,75,0,,,,,,,,,,,,,,,,,,,,,,,,,,,,,,,,,,,,,,,,,,,,,,75,1.0,m,004_o_m_s_a.jpg,sad,a,2,2,812.3045259999999,812.60005874,812.6101796000003,812.6260071399998,812.6259941999997,812.6623168399998,812.6623194000003,813.5940343400003,d,0,812.6623194000003,813.5940343400003,813.5971073000001,815.0920518400004,0.9169149999997899,916.9149999997899,EMOCONPILOT022,2021_Feb_18_1118,EmoCon_Pilot_120Hz,2020.2.4,119.89501992026129,
,,,,1,0,1,0,76,0,76,0,,,,,,,,,,,,,,,,,,,,,,,,,,,,,,,,,,,,,,,,,,,,,,76,3.0,m,013_y_m_n_a.jpg,neutral,s,17,2,815.0955022999997,815.39217694,815.8022885999999,815.9602092399997,815.9651947000002,816.0058769399999,816.0109945000004,816.5557981400003,s,1,816.0109945000004,816.5557981400003,816.5665573999995,818.1171986400001,0.5284693000003244,528.4693000003244,EMOCONPILOT022,2021_Feb_18_1118,EmoCon_Pilot_120Hz,2020.2.4,119.89501992026129,
,,,,1,0,1,0,77,0,77,0,,,,,,,,,,,,,,,,,,,,,,,,,,,,,,,,,,,,,,,,,,,,,,77,7.0,f,012_o_f_s_a.jpg,sad,a,2,2,818.1225670000003,818.4172322399996,818.4433126000004,818.45890484,818.4594686,818.4945148399999,818.4949275999998,819.8913769400002,a,1,818.4949275999998,819.8913769400002,819.9004517000003,820.89229734,1.3805828000004112,1380.5828000004112,EMOCONPILOT022,2021_Feb_18_1118,EmoCon_Pilot_120Hz,2020.2.4,119.89501992026129,
,,,,1,0,1,0,78,0,78,0,,,,,,,,,,,,,,,,,,,,,,,,,,,,,,,,,,,,,,,,,,,,,,78,12.0,f,040_y_f_n_a.jpg,neutral,s,2,2,820.8967389,821.1922205400002,821.4258085000001,821.4422841399997,821.4425013,821.47729864,821.4774367999999,822.3985668399997,s,1,821.4774367999999,822.3985668399997,822.4031963999996,823.8007730400001,0.9098963999995249,909.8963999995249,EMOCONPILOT022,2021_Feb_18_1118,EmoCon_Pilot_120Hz,2020.2.4,119.89501992026129,
,,,,1,0,1,0,79,0,79,0,,,,,,,,,,,,,,,,,,,,,,,,,,,,,,,,,,,,,,,,,,,,,,79,6.0,m,033_o_m_h_a.jpg,happy,d,2,2,823.8057127000002,824.1006917399997,824.1261661999997,824.1420418399999,824.1436150999998,824.1805929400003,824.1820648000003,825.2407104399996,a,0,824.1820648000003,825.2407104399996,825.2489820000001,827.0674485400001,1.0453398999998171,1045.3398999998171,EMOCONPILOT022,2021_Feb_18_1118,EmoCon_Pilot_120Hz,2020.2.4,119.89501992026129,
,,,,1,0,1,0,80,0,80,0,,,,,,,,,,,,,,,,,,,,,,,,,,,,,,,,,,,,,,,,,,,,,,80,2.0,m,008_y_m_n_a.jpg,neutral,s,17,2,827.0731978000003,827.36737194,827.6084559000001,827.76356714,827.7664728,827.8041797399998,827.8073594999996,828.4713816399995,s,1,827.8073594999996,828.4713816399995,828.4807949999995,829.8008502400004,0.6521505000000616,652.1505000000616,EMOCONPILOT022,2021_Feb_18_1118,EmoCon_Pilot_120Hz,2020.2.4,119.89501992026129,
,,,,1,0,1,0,81,0,81,0,,,,,,,,,,,,,,,,,,,,,,,,,,,,,,,,,,,,,,,,,,,,,,81,12.0,f,040_y_f_h_a.jpg,happy,d,2,2,829.8062489000004,830.1004140399997,830.1127688999995,830.1287368399995,830.1291278999997,830.16465794,830.1648188999998,831.78230124,s,0,830.1648188999998,831.78230124,831.7916875999999,832.9090933399999,1.6065911000005144,1606.5911000005144,EMOCONPILOT022,2021_Feb_18_1118,EmoCon_Pilot_120Hz,2020.2.4,119.89501992026129,
,,,,1,0,1,0,82,0,82,0,,,,,,,,,,,,,,,,,,,,,,,,,,,,,,,,,,,,,,,,,,,,,,82,9.0,f,021_o_f_h_a.jpg,happy,d,17,2,832.9125081000002,833.2090433399995,833.4150621999997,833.5760375400001,833.5816361999996,833.62267854,833.6277294000001,834.86026594,d,1,833.6277294000001,834.86026594,834.8710837999997,836.5176706400003,1.2236991999998281,1223.6991999998281,EMOCONPILOT022,2021_Feb_18_1118,EmoCon_Pilot_120Hz,2020.2.4,119.89501992026129,
,,,,1,0,1,0,83,0,83,0,,,,,,,,,,,,,,,,,,,,,,,,,,,,,,,,,,,,,,,,,,,,,,83,6.0,m,033_o_m_h_a.jpg,happy,d,2,2,836.5233207000001,836.8176166399995,836.8436966999998,836.8591191399997,836.8595475000002,836.8965469399997,836.8966755000001,837.8861490400001,a,0,836.8966755000001,837.8861490400001,837.8884392,839.6925805400002,0.9786980999997468,978.6980999997468,EMOCONPILOT022,2021_Feb_18_1118,EmoCon_Pilot_120Hz,2020.2.4,119.89501992026129,
,,,,1,0,1,0,84,0,84,0,,,,,,,,,,,,,,,,,,,,,,,,,,,,,,,,,,,,,,,,,,,,,,84,2.0,m,008_y_m_n_a.jpg,neutral,s,17,2,839.6965542999997,839.9926423399999,840.2337478,840.39050164,840.3943072000002,840.4348993399996,840.4399743000004,840.9501632400003,s,1,840.4399743000004,840.9501632400003,840.9528794999997,842.45932744,0.49945560000014666,499.45560000014666,EMOCONPILOT022,2021_Feb_18_1118,EmoCon_Pilot_120Hz,2020.2.4,119.89501992026129,
,,,,1,0,1,0,85,0,85,0,,,,,,,,,,,,,,,,,,,,,,,,,,,,,,,,,,,,,,,,,,,,,,85,10.0,f,028_y_f_n_a.jpg,neutral,s,2,2,842.4633732000002,842.7593665399996,842.9550018999998,842.9716830399999,842.9726602000001,843.0104064399999,843.0106588999997,843.8278147400002,s,1,843.0106588999997,843.8278147400002,843.8398571999996,845.2761215400002,0.8089072000002488,808.9072000002488,EMOCONPILOT022,2021_Feb_18_1118,EmoCon_Pilot_120Hz,2020.2.4,119.89501992026129,
,,,,1,0,1,0,86,0,86,0,,,,,,,,,,,,,,,,,,,,,,,,,,,,,,,,,,,,,,,,,,,,,,86,6.0,m,033_o_m_h_a.jpg,happy,d,17,2,845.2800002000004,845.5760471399996,845.5927942999997,845.7276875399999,845.7306873999996,845.7689572400001,845.7720151000003,846.26783794,d,1,845.7720151000003,846.26783794,846.2784076999997,847.5177713399995,0.48759400000017195,487.59400000017195,EMOCONPILOT022,2021_Feb_18_1118,EmoCon_Pilot_120Hz,2020.2.4,119.89501992026129,
,,,,1,0,1,0,87,0,87,0,,,,,,,,,,,,,,,,,,,,,,,,,,,,,,,,,,,,,,,,,,,,,,87,5.0,m,027_o_m_s_a.jpg,sad,a,2,2,847.5213344000003,847.8178198399997,847.8378038000001,847.8533310400004,847.8541791999996,847.8879274400002,847.8882918999998,849.0096136400003,d,0,847.8882918999998,849.0096136400003,849.0113972999998,850.8261319399995,1.1069509999997535,1106.9509999997535,EMOCONPILOT022,2021_Feb_18_1118,EmoCon_Pilot_120Hz,2020.2.4,119.89501992026129,
,,,,1,0,1,0,88,0,88,0,,,,,,,,,,,,,,,,,,,,,,,,,,,,,,,,,,,,,,,,,,,,,,88,7.0,f,012_o_f_s_a.jpg,sad,a,17,2,850.8301701999999,851.1261684400002,851.1431563999995,851.2778355400002,851.2828933000001,851.3236656400001,851.3288290999999,851.8364990400001,a,1,851.3288290999999,851.8364990400001,851.8473033999999,853.4179012399997,0.4906480999998166,490.6480999998166,EMOCONPILOT022,2021_Feb_18_1118,EmoCon_Pilot_120Hz,2020.2.4,119.89501992026129,
,,,,1,0,1,0,89,0,89,0,,,,,,,,,,,,,,,,,,,,,,,,,,,,,,,,,,,,,,,,,,,,,,89,2.0,m,008_y_m_h_a.jpg,happy,d,17,2,853.4234762999995,853.7179584399997,853.7488223999999,853.8862179399999,853.8897071000001,853.92791654,853.9307837999995,854.4710963399999,d,1,853.9307837999995,854.4710963399999,854.4795114999997,855.4929351400002,0.5286795000001803,528.6795000001803,EMOCONPILOT022,2021_Feb_18_1118,EmoCon_Pilot_120Hz,2020.2.4,119.89501992026129,
,,,,1,0,1,0,90,0,90,0,,,,,,,,,,,,,,,,,,,,,,,,,,,,,,,,,,,,,,,,,,,,,,90,7.0,f,012_o_f_h_a.jpg,happy,d,2,2,855.4990319999997,855.7929975399999,855.8096288999996,855.8249202399999,855.8256861999998,855.8606551400004,855.8608764999999,857.4635564400002,None,0,855.8608764999999,857.4635564400002,857.4684865999998,859.3097567399997,,,EMOCONPILOT022,2021_Feb_18_1118,EmoCon_Pilot_120Hz,2020.2.4,119.89501992026129,
,,,,1,0,1,0,91,0,91,0,,,,,,,,,,,,,,,,,,,,,,,,,,,,,,,,,,,,,,,,,,,,,,91,10.0,f,028_y_f_s_a.jpg,sad,a,2,2,859.3152596999998,859.6097692399995,859.6342771999998,859.6496168399996,859.6503904000001,859.6876329399998,859.6887902999997,860.9156852399998,a,1,859.6887902999997,860.9156852399998,860.9255401,862.7514801399999,1.2107431999993423,1210.7431999993423,EMOCONPILOT022,2021_Feb_18_1118,EmoCon_Pilot_120Hz,2020.2.4,119.89501992026129,
,,,,1,0,1,0,92,0,92,0,,,,,,,,,,,,,,,,,,,,,,,,,,,,,,,,,,,,,,,,,,,,,,92,12.0,f,040_y_f_s_a.jpg,sad,a,17,2,862.7567338999997,863.05151524,863.0749150000001,863.2113218399996,863.2143686,863.2526623399996,863.2560215000003,864.1401117399997,a,1,863.2560215000003,864.1401117399997,864.1505620999997,865.3598928400003,0.8755627000000459,875.5627000000459,EMOCONPILOT022,2021_Feb_18_1118,EmoCon_Pilot_120Hz,2020.2.4,119.89501992026129,
,,,,1,0,1,0,93,0,93,0,,,,,,,,,,,,,,,,,,,,,,,,,,,,,,,,,,,,,,,,,,,,,,93,2.0,m,008_y_m_n_a.jpg,neutral,s,2,2,865.3641549000004,865.6597331400004,865.9202555000002,865.9370483400004,865.9377315000002,865.9737516399997,865.9737198000003,867.3317352399996,d,0,865.9737198000003,867.3317352399996,867.3350266999996,868.5432000400002,1.3495609000001423,1349.5609000001423,EMOCONPILOT022,2021_Feb_18_1118,EmoCon_Pilot_120Hz,2020.2.4,119.89501992026129,
,,,,1,0,1,0,94,0,94,0,,,,,,,,,,,,,,,,,,,,,,,,,,,,,,,,,,,,,,,,,,,,,,94,11.0,f,030_o_f_s_a.jpg,sad,a,17,2,868.5474908999995,868.8431014399999,869.0299961999999,869.1895885399996,869.1929669000001,869.2338208400002,869.2389020999999,869.8074304400003,a,1,869.2389020999999,869.8074304400003,869.8190156999999,871.26817834,0.5565202000007048,556.5202000007048,EMOCONPILOT022,2021_Feb_18_1118,EmoCon_Pilot_120Hz,2020.2.4,119.89501992026129,
,,,,1,0,1,0,95,0,95,0,,,,,,,,,,,,,,,,,,,,,,,,,,,,,,,,,,,,,,,,,,,,,,95,9.0,f,021_o_f_n_a.jpg,neutral,s,2,2,871.2712861,871.5681615399996,871.7720423000001,871.78980534,871.7900501000004,871.8277604399997,871.8281810999997,872.6258302399998,s,1,871.8281810999997,872.6258302399998,872.6359830000001,873.75155074,0.7913114000002679,791.3114000002679,EMOCONPILOT022,2021_Feb_18_1118,EmoCon_Pilot_120Hz,2020.2.4,119.89501992026129,
,,,,1,0,1,0,96,0,96,0,,,,,,,,,,,,,,,,,,,,,,,,,,,,,,,,,,,,,,,,,,,,,,96,6.0,m,033_o_m_h_a.jpg,happy,d,17,2,873.7544934999996,874.0515593400002,874.0676555,874.2056130400002,874.2091055000001,874.2498855399996,874.2547564999995,876.0770183399997,None,0,874.2547564999995,876.0770183399997,876.0774246999999,877.4100291399997,,,EMOCONPILOT022,2021_Feb_18_1118,EmoCon_Pilot_120Hz,2020.2.4,119.89501992026129,
,,,,1,0,1,0,97,0,97,0,,,,,,,,,,,,,,,,,,,,,,,,,,,,,,,,,,,,,,,,,,,,,,97,3.0,m,013_y_m_s_a.jpg,sad,a,2,2,877.4153919999999,877.7100973399998,877.7348237999995,877.7500064399998,877.7505375000001,877.7868277399999,877.7883337000003,878.6771281400003,s,0,877.7883337000003,878.6771281400003,878.6876630999996,880.0934217399996,0.8791825999996945,879.1825999996945,EMOCONPILOT022,2021_Feb_18_1118,EmoCon_Pilot_120Hz,2020.2.4,119.89501992026129,
