trials_example.thisRepN,trials_example.thisTrialN,trials_example.thisN,trials_example.thisIndex,block.thisRepN,block.thisTrialN,block.thisN,block.thisIndex,trials_study.thisRepN,trials_study.thisTrialN,trials_study.thisN,trials_study.thisIndex,text_welcome.started,text_welcome.stopped,text_intro.started,text_intro.stopped,key_resp_intro.keys,key_resp_intro.started,key_resp_intro.stopped,text_intro2.started,text_intro2.stopped,key_resp_intro2.keys,key_resp_intro2.rt,key_resp_intro2.started,key_resp_intro2.stopped,example trial,personPrimeExample,genderPrimeExample,primeExample,emotionPrimeExample,corrAnsPrimeExample,example mask time,fix300_example.started,fix300_example.stopped,image_primer_example.started,image_primer_example.stopped,scrambled.started,scrambled.stopped,text_response_example.started,text_response_example.stopped,key_resp_example.keys,key_resp_example.corr,key_resp_example.started,key_resp_example.stopped,Jitter_example.started,Jitter_example.stopped,key_resp_example.rt,key_resp_example.rt in ms,text_start.started,text_start.stopped,text_pause.started,text_pause.stopped,key_resp_pause.keys,key_resp_pause.rt,key_resp_pause.rt in ms,key_resp_pause.started,key_resp_pause.stopped,study trial,personPrimeStudy,genderPrimeStudy,primeStudy,emotionPrimeStudy,corrAnsPrimeStudy,study mask time,Block,fix300_study.started,fix300_study.stopped,image_primer_study.started,image_primer_study.stopped,scrambled_study.started,scrambled_study.stopped,text_response_study.started,text_response_study.stopped,key_resp_study.keys,key_resp_study.corr,key_resp_study.rt,key_resp_study.rt in ms,key_resp_study.started,key_resp_study.stopped,Jitter_study.started,Jitter_study.stopped,participant,date,expName,psychopyVersion,frameRate,
,,,,,,,,,,,,38.50395120005123,41.494327500031794,41.49504039995372,47.25664860001998,None,41.49504039995372,47.25664860001998,,,,,,,,,,,,,,,,,,,,,,,,,,,,,,,,,,,,,,,,,,,,,,,,,,,,,,,,,,,,,,,EMOCONPILOT003,2020_Dec_30_1304,EmoCon_Pilot_120Hz,2020.2.4,120.26921069094792,
,,,,,,,,,,,,,,,,,,,47.26089479995426,51.21905150000239,a,3.9496365999802947,47.26089479995426,51.21905150000239,,,,,,,,,,,,,,,,,,,,,,,,,,,,,,,,,,,,,,,,,,,,,,,,,,,,,,,,,EMOCONPILOT003,2020_Dec_30_1304,EmoCon_Pilot_120Hz,2020.2.4,120.26921069094792,
0,0,0,0,,,,,,,,,,,,,,,,,,,,,,0,3.0,f,1113_y_f_s_a.jpg,sad,a,17,51.225280400016345,51.519917800009715,52.281086200033315,52.44761920002056,52.4524073000066,52.48757220004918,52.48867919994518,54.17680229995167,None,0,52.48867919994518,54.17680229995167,54.18041140004061,55.328352200018706,,,,,,,,,,,,,,,,,,,,,,,,,,,,,,,,,,,,EMOCONPILOT003,2020_Dec_30_1304,EmoCon_Pilot_120Hz,2020.2.4,120.26921069094792,
1,0,1,0,,,,,,,,,,,,,,,,,,,,,,1,1.0,m,1111_m_m_s_a.jpg,sad,a,3,55.33023740001954,55.62833460004767,55.839304200024344,55.86453439997276,55.864731100038625,55.90105080002686,55.90149219997693,57.48444970002165,None,0,55.90149219997693,57.48444970002165,57.48535540001467,58.74503929998027,,,,,,,,,,,,,,,,,,,,,,,,,,,,,,,,,,,,EMOCONPILOT003,2020_Dec_30_1304,EmoCon_Pilot_120Hz,2020.2.4,120.26921069094792,
2,0,2,0,,,,,,,,,,,,,,,,,,,,,,2,3.0,f,1113_y_f_n_a.jpg,neutral,s,17,58.7466794999782,59.04515279995976,59.246814899961464,59.41238190004369,59.414467700058594,59.453788399964104,59.45729619998019,61.14482480000006,None,0,59.45729619998019,61.14482480000006,61.14550690003671,62.33669269996462,,,,,,,,,,,,,,,,,,,,,,,,,,,,,,,,,,,,EMOCONPILOT003,2020_Dec_30_1304,EmoCon_Pilot_120Hz,2020.2.4,120.26921069094792,
3,0,3,0,,,,,,,,,,,,,,,,,,,,,,3,2.0,f,1112_m_f_h_a.jpg,happy,d,3,62.337675599963404,62.63670539999148,62.83997269999236,62.86734350005863,62.87015329999849,62.910971300012896,62.91429840005003,64.20000740004471,s,0,62.91429840005003,64.20000740004471,64.2027302000206,65.61190699998988,1.2722119999816641,1272.2119999816641,,,,,,,,,,,,,,,,,,,,,,,,,,,,,,,,,,EMOCONPILOT003,2020_Dec_30_1304,EmoCon_Pilot_120Hz,2020.2.4,120.26921069094792,
4,0,4,0,,,,,,,,,,,,,,,,,,,,,,4,2.0,f,1112_m_f_n_a.jpg,neutral,s,3,65.6135400000494,65.91190430001589,66.11686950002331,66.14223389994586,66.14277929998934,66.17951449999819,66.17969709995668,67.54562729996397,s,1,66.17969709995668,67.54562729996397,67.5484809000045,68.87869980003452,1.35091919999104,1350.91919999104,,,,,,,,,,,,,,,,,,,,,,,,,,,,,,,,,,EMOCONPILOT003,2020_Dec_30_1304,EmoCon_Pilot_120Hz,2020.2.4,120.26921069094792,
,,,,0,0,0,0,0,0,0,0,,,,,,,,,,,,,,,,,,,,,,,,,,,,,,,,,,,,,68.92911609995645,71.92044509997359,71.92408829997294,74.12716840001522,s,2.190325399977155,2190.325399977155,71.92408829997294,74.12716840001522,0,8.0,f,019_m_f_s_a.jpg,sad,a,3,1,74.12954840005841,74.4200839000172,75.18716149998363,75.21278560002102,75.21372020000126,75.24815519995755,75.2499986999901,76.04329650002765,s,0,0.7847714000381529,784.7714000381529,75.2499986999901,76.04329650002765,76.05271850002464,77.81210899996805,EMOCONPILOT003,2020_Dec_30_1304,EmoCon_Pilot_120Hz,2020.2.4,120.26921069094792,
,,,,0,0,0,0,1,0,1,0,,,,,,,,,,,,,,,,,,,,,,,,,,,,,,,,,,,,,,,,,,,,,,1,6.0,m,033_o_m_n_a.jpg,neutral,s,3,1,77.81752609997056,78.11215310000117,78.32251029997133,78.3494885999593,78.35049980005715,78.38824989999412,78.38909529999364,78.83965230003233,s,1,0.4374761999351904,437.4761999351904,78.38909529999364,78.83965230003233,78.84648469998501,80.53733390002745,EMOCONPILOT003,2020_Dec_30_1304,EmoCon_Pilot_120Hz,2020.2.4,120.26921069094792,
,,,,0,0,0,0,2,0,2,0,,,,,,,,,,,,,,,,,,,,,,,,,,,,,,,,,,,,,,,,,,,,,,2,2.0,m,008_y_m_s_a.jpg,sad,a,3,1,80.54279430001043,80.83720360001317,81.08299539994914,81.10974340004614,81.11346709995996,81.15254189997214,81.15776319999713,82.4289507000125,a,1,1.2608012999407947,1260.8012999407947,81.15776319999713,82.4289507000125,82.43631659995299,84.31223159997026,EMOCONPILOT003,2020_Dec_30_1304,EmoCon_Pilot_120Hz,2020.2.4,120.26921069094792,
,,,,0,0,0,0,3,0,3,0,,,,,,,,,,,,,,,,,,,,,,,,,,,,,,,,,,,,,,,,,,,,,,3,11.0,f,030_o_f_h_a.jpg,happy,d,3,1,84.3151394999586,84.61220949996496,84.81694140005857,84.84325940002455,84.84363510005642,84.88009080003249,84.88143359997775,86.26704590002774,d,1,1.3694255000445992,1369.4255000445992,84.88143359997775,86.26704590002774,86.273233099957,87.27905000004685,EMOCONPILOT003,2020_Dec_30_1304,EmoCon_Pilot_120Hz,2020.2.4,120.26921069094792,
,,,,0,0,0,0,4,0,4,0,,,,,,,,,,,,,,,,,,,,,,,,,,,,,,,,,,,,,,,,,,,,,,4,11.0,f,030_o_f_s_a.jpg,sad,a,17,1,87.28432500001509,87.57898310004967,87.80352600000333,87.95859249999049,87.96301720000338,88.00120330000064,88.00630889995955,89.68386200004025,None,0,,,88.00630889995955,89.68386200004025,89.68857310002204,91.56242000000785,EMOCONPILOT003,2020_Dec_30_1304,EmoCon_Pilot_120Hz,2020.2.4,120.26921069094792,
,,,,0,0,0,0,5,0,5,0,,,,,,,,,,,,,,,,,,,,,,,,,,,,,,,,,,,,,,,,,,,,,,5,11.0,f,030_o_f_s_a.jpg,sad,a,3,1,91.56790809996892,91.86245920000366,92.06423789996188,92.0911843000562,92.09138440003153,92.12626530000708,92.12664300005417,93.48573880005861,a,1,1.3480356999207288,1348.0356999207288,92.12664300005417,93.48573880005861,93.49587049998809,95.27915130000329,EMOCONPILOT003,2020_Dec_30_1304,EmoCon_Pilot_120Hz,2020.2.4,120.26921069094792,
,,,,0,0,0,0,6,0,6,0,,,,,,,,,,,,,,,,,,,,,,,,,,,,,,,,,,,,,,,,,,,,,,6,5.0,m,027_o_m_n_a.jpg,neutral,s,3,1,95.28215169999748,95.57921499995282,95.79587899998296,95.822914600058,95.82627169997431,95.86389590000036,95.86913550004829,96.9718861000496,s,1,1.0940157999284565,1094.0157999284565,95.86913550004829,96.9718861000496,96.98293940001167,98.0791865999694,EMOCONPILOT003,2020_Dec_30_1304,EmoCon_Pilot_120Hz,2020.2.4,120.26921069094792,
,,,,0,0,0,0,7,0,7,0,,,,,,,,,,,,,,,,,,,,,,,,,,,,,,,,,,,,,,,,,,,,,,7,8.0,f,019_m_f_n_a.jpg,neutral,s,17,1,98.08325230004266,98.37922160004965,98.62395110004582,98.79236809994327,98.79719449998811,98.83824019999011,98.84328739997,99.54078409998911,s,1,0.6872843999881297,687.2843999881297,98.84328739997,99.54078409998911,99.54631130001508,100.86267810004065,EMOCONPILOT003,2020_Dec_30_1304,EmoCon_Pilot_120Hz,2020.2.4,120.26921069094792,
,,,,0,0,0,0,8,0,8,0,,,,,,,,,,,,,,,,,,,,,,,,,,,,,,,,,,,,,,,,,,,,,,8,5.0,m,027_o_m_h_a.jpg,happy,d,3,1,100.86728600005154,101.16260940002977,101.3789540999569,101.40594779994572,101.40933429996949,101.447233099991,101.45114460005425,102.55253440005472,d,1,1.0874801999889314,1087.4801999889314,101.45114460005425,102.55253440005472,102.56085949996486,103.57932279995876,EMOCONPILOT003,2020_Dec_30_1304,EmoCon_Pilot_120Hz,2020.2.4,120.26921069094792,
,,,,0,0,0,0,9,0,9,0,,,,,,,,,,,,,,,,,,,,,,,,,,,,,,,,,,,,,,,,,,,,,,9,8.0,f,019_m_f_n_a.jpg,neutral,s,17,1,103.58362849999685,103.87933349997039,104.12372359994333,104.2836398999556,104.28841589996591,104.32921210004716,104.33413620002102,105.14711769999704,s,1,0.8046442000195384,804.6442000195384,104.33413620002102,105.14711769999704,105.15875589998905,106.84615759997396,EMOCONPILOT003,2020_Dec_30_1304,EmoCon_Pilot_120Hz,2020.2.4,120.26921069094792,
,,,,0,0,0,0,10,0,10,0,,,,,,,,,,,,,,,,,,,,,,,,,,,,,,,,,,,,,,,,,,,,,,10,11.0,f,030_o_f_h_a.jpg,happy,d,3,1,106.85204370005522,107.14618169997121,107.35328319994733,107.37965679998743,107.37985699996352,107.41543249998941,107.41545850003604,108.79861289999681,d,1,1.3713657999178395,1371.3657999178395,107.41545850003604,108.79861289999681,108.80918430001475,110.07948190000607,EMOCONPILOT003,2020_Dec_30_1304,EmoCon_Pilot_120Hz,2020.2.4,120.26921069094792,
,,,,0,0,0,0,11,0,11,0,,,,,,,,,,,,,,,,,,,,,,,,,,,,,,,,,,,,,,,,,,,,,,11,3.0,m,013_y_m_s_a.jpg,sad,a,17,1,110.08485670003574,110.37954419994495,110.49243320000824,110.6228326999466,110.62651079997886,110.66486549997936,110.66810310003348,112.04458370005014,a,1,1.3665516000473872,1366.5516000473872,110.66810310003348,112.04458370005014,112.05596419994254,113.96287379999413,EMOCONPILOT003,2020_Dec_30_1304,EmoCon_Pilot_120Hz,2020.2.4,120.26921069094792,
,,,,0,0,0,0,12,0,12,0,,,,,,,,,,,,,,,,,,,,,,,,,,,,,,,,,,,,,,,,,,,,,,12,12.0,f,040_y_f_n_a.jpg,neutral,s,17,1,113.96693999995477,114.26286499997369,114.54049489996396,114.7094314999762,114.71410059998743,114.75503549996066,114.75999539997429,115.74396589995595,s,1,0.9706366000464186,970.6366000464186,114.75999539997429,115.74396589995595,115.75228779995814,117.17973460004433,EMOCONPILOT003,2020_Dec_30_1304,EmoCon_Pilot_120Hz,2020.2.4,120.26921069094792,
,,,,0,0,0,0,13,0,13,0,,,,,,,,,,,,,,,,,,,,,,,,,,,,,,,,,,,,,,,,,,,,,,13,12.0,f,040_y_f_h_a.jpg,happy,d,3,1,117.18564329994842,117.47965779997176,117.50657249998767,117.52957379996079,117.53038280003238,117.56457580000861,117.5658429999603,118.37689770004945,d,1,0.7969153000740334,796.9153000740334,117.5658429999603,118.37689770004945,118.3851545000216,119.50466859996087,EMOCONPILOT003,2020_Dec_30_1304,EmoCon_Pilot_120Hz,2020.2.4,120.26921069094792,
,,,,0,0,0,0,14,0,14,0,,,,,,,,,,,,,,,,,,,,,,,,,,,,,,,,,,,,,,,,,,,,,,14,7.0,f,012_o_f_h_a.jpg,happy,d,3,1,119.50859089998994,119.80467530005845,119.8282321000006,119.85041750004748,119.85139099997468,119.8891673999955,119.89026470005047,120.8860913999728,d,1,0.9843363000545651,984.3363000545651,119.89026470005047,120.8860913999728,120.88971090002451,122.56306999995141,EMOCONPILOT003,2020_Dec_30_1304,EmoCon_Pilot_120Hz,2020.2.4,120.26921069094792,
,,,,0,0,0,0,15,0,15,0,,,,,,,,,,,,,,,,,,,,,,,,,,,,,,,,,,,,,,,,,,,,,,15,9.0,f,021_o_f_n_a.jpg,neutral,s,3,1,122.56726010004058,122.86306000003825,123.09143779997248,123.11983849996469,123.12375240004621,123.16473540003645,123.16970309999306,124.78241220003693,s,1,1.6010863999836147,1601.0863999836147,123.16970309999306,124.78241220003693,124.78887479996774,125.79646799996263,EMOCONPILOT003,2020_Dec_30_1304,EmoCon_Pilot_120Hz,2020.2.4,120.26921069094792,
,,,,0,0,0,0,16,0,16,0,,,,,,,,,,,,,,,,,,,,,,,,,,,,,,,,,,,,,,,,,,,,,,16,10.0,f,028_y_f_s_a.jpg,sad,a,17,1,125.80067160003819,126.09646509998711,126.11748550005723,126.248111099971,126.25127430004068,126.29114330004668,126.29459409997799,127.3981579000014,a,1,1.0919647000264376,1091.9647000264376,126.29459409997799,127.3981579000014,127.40550500003155,128.87150120005245,EMOCONPILOT003,2020_Dec_30_1304,EmoCon_Pilot_120Hz,2020.2.4,120.26921069094792,
,,,,0,0,0,0,17,0,17,0,,,,,,,,,,,,,,,,,,,,,,,,,,,,,,,,,,,,,,,,,,,,,,17,10.0,f,028_y_f_h_a.jpg,happy,d,3,1,128.87519880000036,129.17150660002372,129.1938591999933,129.21610570003978,129.21651339996606,129.25609990003286,129.2574442999903,130.00862170002657,d,1,0.7372800000011921,737.2800000011921,129.2574442999903,130.00862170002657,130.01980130001903,131.54669160003542,EMOCONPILOT003,2020_Dec_30_1304,EmoCon_Pilot_120Hz,2020.2.4,120.26921069094792,
,,,,0,0,0,0,18,0,18,0,,,,,,,,,,,,,,,,,,,,,,,,,,,,,,,,,,,,,,,,,,,,,,18,9.0,f,021_o_f_h_a.jpg,happy,d,3,1,131.55064200004563,131.84668979995186,132.07321990001947,132.098828600056,132.09969049994834,132.13552459996427,132.13524940004572,133.1957008999656,d,1,1.051478200010024,1051.478200010024,132.13524940004572,133.1957008999656,133.2040995999705,134.2383359000436,EMOCONPILOT003,2020_Dec_30_1304,EmoCon_Pilot_120Hz,2020.2.4,120.26921069094792,
,,,,0,0,0,0,19,0,19,0,,,,,,,,,,,,,,,,,,,,,,,,,,,,,,,,,,,,,,,,,,,,,,19,6.0,m,033_o_m_h_a.jpg,happy,d,17,1,134.2410468000453,134.53833569997224,134.5596029999433,134.6899339000578,134.69344439997803,134.7311259999755,134.7345202000579,135.43298680001172,d,1,0.6841721000382677,684.1721000382677,134.7345202000579,135.43298680001172,135.4412479000166,137.3050629999838,EMOCONPILOT003,2020_Dec_30_1304,EmoCon_Pilot_120Hz,2020.2.4,120.26921069094792,
,,,,0,0,0,0,20,0,20,0,,,,,,,,,,,,,,,,,,,,,,,,,,,,,,,,,,,,,,,,,,,,,,20,1.0,m,004_o_m_h_a.jpg,happy,d,17,1,137.30915169999935,137.60511779998197,137.81427430000622,137.97955039996887,137.98428360000253,138.0254196999944,138.02988789998926,138.68523039998254,d,1,0.6446785000152886,644.6785000152886,138.02988789998926,138.68523039998254,138.6887529999949,139.82177529999754,EMOCONPILOT003,2020_Dec_30_1304,EmoCon_Pilot_120Hz,2020.2.4,120.26921069094792,
,,,,0,0,0,0,21,0,21,0,,,,,,,,,,,,,,,,,,,,,,,,,,,,,,,,,,,,,,,,,,,,,,21,2.0,m,008_y_m_s_a.jpg,sad,a,3,1,139.82657210004982,140.12182130004513,140.35473310004454,140.38065199999838,140.38478409999516,140.42537580003264,140.42963629995938,142.12452180000255,None,0,,,140.42963629995938,142.12452180000255,142.12965160002932,143.99683270001552,EMOCONPILOT003,2020_Dec_30_1304,EmoCon_Pilot_120Hz,2020.2.4,120.26921069094792,
,,,,0,0,0,0,22,0,22,0,,,,,,,,,,,,,,,,,,,,,,,,,,,,,,,,,,,,,,,,,,,,,,22,4.0,m,016_y_m_s_a.jpg,sad,a,17,1,143.99964549997821,144.29678200002527,144.32323209999595,144.45681999999798,144.46008230000734,144.4979765999946,144.50103839999065,145.44929659998743,a,1,0.9336231000488624,933.6231000488624,144.50103839999065,145.44929659998743,145.45531320001464,147.41359769998817,EMOCONPILOT003,2020_Dec_30_1304,EmoCon_Pilot_120Hz,2020.2.4,120.26921069094792,
,,,,0,0,0,0,23,0,23,0,,,,,,,,,,,,,,,,,,,,,,,,,,,,,,,,,,,,,,,,,,,,,,23,8.0,f,019_m_f_h_a.jpg,happy,d,3,1,147.41781619994435,147.71361010001274,147.74197620002087,147.7642563999747,147.7646998000564,147.7989587999531,147.80001180002,148.74928120003315,d,1,0.9385678999824449,938.5678999824449,147.80001180002,148.74928120003315,148.75248779996764,149.95536529998063,EMOCONPILOT003,2020_Dec_30_1304,EmoCon_Pilot_120Hz,2020.2.4,120.26921069094792,
,,,,0,0,0,0,24,0,24,0,,,,,,,,,,,,,,,,,,,,,,,,,,,,,,,,,,,,,,,,,,,,,,24,8.0,f,019_m_f_h_a.jpg,happy,d,17,1,149.960485800053,150.25535140003777,150.27181389997713,150.40699119997444,150.41204269998707,150.45269189999672,150.4579735000152,151.0823347999598,d,1,0.6087102999445051,608.7102999445051,150.4579735000152,151.0823347999598,151.08787930000108,152.5470517999842,EMOCONPILOT003,2020_Dec_30_1304,EmoCon_Pilot_120Hz,2020.2.4,120.26921069094792,
,,,,0,0,0,0,25,0,25,0,,,,,,,,,,,,,,,,,,,,,,,,,,,,,,,,,,,,,,,,,,,,,,25,4.0,m,016_y_m_n_a.jpg,neutral,s,17,1,152.55112700001337,152.84703079998727,153.1002284999704,153.26295879998943,153.26777869998477,153.3067138999817,153.3108003999805,153.86926159999567,s,1,0.5479251999640837,547.9251999640837,153.3108003999805,153.86926159999567,153.87702779995743,155.0305263999966,EMOCONPILOT003,2020_Dec_30_1304,EmoCon_Pilot_120Hz,2020.2.4,120.26921069094792,
,,,,0,0,0,0,26,0,26,0,,,,,,,,,,,,,,,,,,,,,,,,,,,,,,,,,,,,,,,,,,,,,,26,4.0,m,016_y_m_h_a.jpg,happy,d,17,1,155.03585540002678,155.33055470002583,155.35600549995434,155.49040429996094,155.49546030000784,155.53587099994766,155.5411503999494,156.1883068000083,d,1,0.6376081000780687,637.6081000780687,155.5411503999494,156.1883068000083,156.19894260005094,157.28894270005404,EMOCONPILOT003,2020_Dec_30_1304,EmoCon_Pilot_120Hz,2020.2.4,120.26921069094792,
,,,,0,0,0,0,27,0,27,0,,,,,,,,,,,,,,,,,,,,,,,,,,,,,,,,,,,,,,,,,,,,,,27,8.0,f,019_m_f_h_a.jpg,happy,d,3,1,157.29476099996828,157.58883639998967,157.61075850005727,157.63392139998032,157.63405989995226,157.67333639998688,157.67496710002888,158.2724931999459,d,1,0.5837383000180125,583.7383000180125,157.67496710002888,158.2724931999459,158.28082009998616,160.0138494000188,EMOCONPILOT003,2020_Dec_30_1304,EmoCon_Pilot_120Hz,2020.2.4,120.26921069094792,
,,,,0,0,0,0,28,0,28,0,,,,,,,,,,,,,,,,,,,,,,,,,,,,,,,,,,,,,,,,,,,,,,28,8.0,f,019_m_f_s_a.jpg,sad,a,3,1,160.01800589996856,160.3139070000383,160.57064249995165,160.59655429996783,160.59686890000012,160.6315707000089,160.63129389996175,161.51776650004322,s,0,0.8754065000684932,875.4065000684932,160.63129389996175,161.51776650004322,161.52624929999,163.21400680000662,EMOCONPILOT003,2020_Dec_30_1304,EmoCon_Pilot_120Hz,2020.2.4,120.26921069094792,
,,,,0,0,0,0,29,0,29,0,,,,,,,,,,,,,,,,,,,,,,,,,,,,,,,,,,,,,,,,,,,,,,29,10.0,f,028_y_f_n_a.jpg,neutral,s,17,1,163.21949110005517,163.5140408999636,163.7214783000527,163.88585090000416,163.89063210005406,163.9312006000313,163.93630609998945,164.69637519997778,s,1,0.7463620000053197,746.3620000053197,163.93630609998945,164.69637519997778,164.70443729998078,165.7057138999575,EMOCONPILOT003,2020_Dec_30_1304,EmoCon_Pilot_120Hz,2020.2.4,120.26921069094792,
,,,,0,0,0,0,30,0,30,0,,,,,,,,,,,,,,,,,,,,,,,,,,,,,,,,,,,,,,,,,,,,,,30,12.0,f,040_y_f_n_a.jpg,neutral,s,17,1,165.70874569995794,166.00568029998104,166.22894960001577,166.3851649000193,166.3889777000295,166.42924989996246,166.43432500003837,167.04258010004415,s,1,0.6003930999431759,600.3930999431759,166.43432500003837,167.04258010004415,167.05608989996836,169.0391521000187,EMOCONPILOT003,2020_Dec_30_1304,EmoCon_Pilot_120Hz,2020.2.4,120.26921069094792,
,,,,0,0,0,0,31,0,31,0,,,,,,,,,,,,,,,,,,,,,,,,,,,,,,,,,,,,,,,,,,,,,,31,5.0,m,027_o_m_n_a.jpg,neutral,s,3,1,169.04467440000735,169.33918279994978,169.5473587999586,169.573113799945,169.57318369997665,169.60741930004443,169.60687460005283,171.22563689997187,None,0,,,169.60687460005283,171.22563689997187,171.23045849998016,172.34745779997903,EMOCONPILOT003,2020_Dec_30_1304,EmoCon_Pilot_120Hz,2020.2.4,120.26921069094792,
,,,,0,0,0,0,32,0,32,0,,,,,,,,,,,,,,,,,,,,,,,,,,,,,,,,,,,,,,,,,,,,,,32,8.0,f,019_m_f_n_a.jpg,neutral,s,17,1,172.35153139999602,172.64745820002864,172.89694110001437,173.0525430000038,173.05607849999797,173.0930051999516,173.0964978999691,174.92170580002713,None,0,,,173.0964978999691,174.92170580002713,174.9289248000132,176.82267930001254,EMOCONPILOT003,2020_Dec_30_1304,EmoCon_Pilot_120Hz,2020.2.4,120.26921069094792,
,,,,0,0,0,0,33,0,33,0,,,,,,,,,,,,,,,,,,,,,,,,,,,,,,,,,,,,,,,,,,,,,,33,4.0,m,016_y_m_n_a.jpg,neutral,s,3,1,176.8282571999589,177.12260130004725,177.3601853,177.3858513000072,177.3864525000099,177.4238234999706,177.4239020999521,179.027641100029,None,0,,,177.4239020999521,179.027641100029,179.03171410004143,180.8727807000163,EMOCONPILOT003,2020_Dec_30_1304,EmoCon_Pilot_120Hz,2020.2.4,120.26921069094792,
,,,,0,0,0,0,34,0,34,0,,,,,,,,,,,,,,,,,,,,,,,,,,,,,,,,,,,,,,,,,,,,,,34,11.0,f,030_o_f_n_a.jpg,neutral,s,17,1,180.87841480004136,181.17277530002175,181.3802412999794,181.54920509996592,181.55373699998017,181.5946986000403,181.6000157999806,183.27469120003516,None,0,,,181.6000157999806,183.27469120003516,183.27944339998066,184.72278330001282,EMOCONPILOT003,2020_Dec_30_1304,EmoCon_Pilot_120Hz,2020.2.4,120.26921069094792,
,,,,0,0,0,0,35,0,35,0,,,,,,,,,,,,,,,,,,,,,,,,,,,,,,,,,,,,,,,,,,,,,,35,9.0,f,021_o_f_h_a.jpg,happy,d,17,1,184.72683529998176,185.02273710005684,185.23480410000775,185.3943291999516,185.39828049996868,185.43876540000784,185.44383720005862,186.1637365999981,d,1,0.7109116999199614,710.9116999199614,185.44383720005862,186.1637365999981,186.1741999000078,188.1062533000135,EMOCONPILOT003,2020_Dec_30_1304,EmoCon_Pilot_120Hz,2020.2.4,120.26921069094792,
,,,,0,0,0,0,36,0,36,0,,,,,,,,,,,,,,,,,,,,,,,,,,,,,,,,,,,,,,,,,,,,,,36,11.0,f,030_o_f_s_a.jpg,sad,a,17,1,188.11177199997474,188.40623809994432,188.61337020003702,188.78154519995442,188.78526999999303,188.82681939998875,188.83209200005513,189.66706549996744,a,1,0.81887839990668,818.87839990668,188.83209200005513,189.66706549996744,189.67832649999764,190.81449659998762,EMOCONPILOT003,2020_Dec_30_1304,EmoCon_Pilot_120Hz,2020.2.4,120.26921069094792,
,,,,0,0,0,0,37,0,37,0,,,,,,,,,,,,,,,,,,,,,,,,,,,,,,,,,,,,,,,,,,,,,,37,12.0,f,040_y_f_n_a.jpg,neutral,s,17,1,190.81856000004336,191.11449850004865,191.32563750003465,191.49206110000378,191.49675699998625,191.53786469999469,191.5427720999578,192.17215969999089,s,1,0.6122248000465333,612.2248000465333,191.5427720999578,192.17215969999089,192.1822005000431,193.5480378000415,EMOCONPILOT003,2020_Dec_30_1304,EmoCon_Pilot_120Hz,2020.2.4,120.26921069094792,
,,,,0,0,0,0,38,0,38,0,,,,,,,,,,,,,,,,,,,,,,,,,,,,,,,,,,,,,,,,,,,,,,38,9.0,f,021_o_f_s_a.jpg,sad,a,3,1,193.553462699987,193.84802670000354,193.87525619997177,193.8978949999786,193.89853729994502,193.93280460002134,193.93443470005877,195.2749532000511,d,0,1.3244346999563277,1324.4346999563277,193.93443470005877,195.2749532000511,195.28335899999365,196.7479057000368,EMOCONPILOT003,2020_Dec_30_1304,EmoCon_Pilot_120Hz,2020.2.4,120.26921069094792,
,,,,0,0,0,0,39,0,39,0,,,,,,,,,,,,,,,,,,,,,,,,,,,,,,,,,,,,,,,,,,,,,,39,4.0,m,016_y_m_n_a.jpg,neutral,s,3,1,196.75080509996042,197.0478831000277,197.29226070002187,197.3180456000031,197.3189057999989,197.35481049997034,197.35535530000925,198.99828480001307,None,0,,,197.35535530000925,198.99828480001307,199.00312090001535,200.089809399948,EMOCONPILOT003,2020_Dec_30_1304,EmoCon_Pilot_120Hz,2020.2.4,120.26921069094792,
,,,,0,0,0,0,40,0,40,0,,,,,,,,,,,,,,,,,,,,,,,,,,,,,,,,,,,,,,,,,,,,,,40,9.0,f,021_o_f_s_a.jpg,sad,a,3,1,200.09385299996939,200.38986559995683,200.40319880004972,200.42623649995076,200.4263956999639,200.46598929996836,200.4678696000483,202.1826320999884,None,0,,,200.4678696000483,202.1826320999884,202.18742149998434,203.47320759998402,EMOCONPILOT003,2020_Dec_30_1304,EmoCon_Pilot_120Hz,2020.2.4,120.26921069094792,
,,,,0,0,0,0,41,0,41,0,,,,,,,,,,,,,,,,,,,,,,,,,,,,,,,,,,,,,,,,,,,,,,41,11.0,f,030_o_f_h_a.jpg,happy,d,3,1,203.47858300001826,203.7731808999437,203.9828440999845,204.00939289996168,204.0121446000412,204.04949629997137,204.05484110000543,205.0203644000343,d,1,0.9559991999994963,955.9991999994963,204.05484110000543,205.0203644000343,205.0309018000262,206.63995440005093,EMOCONPILOT003,2020_Dec_30_1304,EmoCon_Pilot_120Hz,2020.2.4,120.26921069094792,
,,,,0,0,0,0,42,0,42,0,,,,,,,,,,,,,,,,,,,,,,,,,,,,,,,,,,,,,,,,,,,,,,42,4.0,m,016_y_m_h_a.jpg,happy,d,3,1,206.64624150004238,206.93991029999452,206.96674569998868,206.98994599996368,206.9905041999882,207.0264766000095,207.02728260005824,208.23332959999098,d,1,1.199209500104189,1199.209500104189,207.02728260005824,208.23332959999098,208.23735089995898,209.72328379998217,EMOCONPILOT003,2020_Dec_30_1304,EmoCon_Pilot_120Hz,2020.2.4,120.26921069094792,
,,,,0,0,0,0,43,0,43,0,,,,,,,,,,,,,,,,,,,,,,,,,,,,,,,,,,,,,,,,,,,,,,43,1.0,m,004_o_m_s_a.jpg,sad,a,17,1,209.72865319997072,210.02338549998822,210.04778539994732,210.1832835999434,210.1883419000078,210.22889399997658,210.23399710003287,211.93597969998373,None,0,,,210.23399710003287,211.93597969998373,211.93988489999902,213.48998959994643,EMOCONPILOT003,2020_Dec_30_1304,EmoCon_Pilot_120Hz,2020.2.4,120.26921069094792,
,,,,0,0,0,0,44,0,44,0,,,,,,,,,,,,,,,,,,,,,,,,,,,,,,,,,,,,,,,,,,,,,,44,4.0,m,016_y_m_h_a.jpg,happy,d,17,1,213.49416939995717,213.7901411999832,213.8113219999941,213.94169990000083,213.9467818000121,213.98751979999943,213.99273179995362,215.01719830002403,d,1,1.0100472000194713,1010.0472000194713,213.99273179995362,215.01719830002403,215.02650170004927,216.68171950002434,EMOCONPILOT003,2020_Dec_30_1304,EmoCon_Pilot_120Hz,2020.2.4,120.26921069094792,
,,,,0,0,0,0,45,0,45,0,,,,,,,,,,,,,,,,,,,,,,,,,,,,,,,,,,,,,,,,,,,,,,45,7.0,f,012_o_f_s_a.jpg,sad,a,3,1,216.68577009998262,216.9817396999919,217.00907459994778,217.03157360005426,217.03230600000825,217.0667652000324,217.06764050002676,218.65288400001592,None,0,,,217.06764050002676,218.65288400001592,218.65792529995088,220.0986084000091,EMOCONPILOT003,2020_Dec_30_1304,EmoCon_Pilot_120Hz,2020.2.4,120.26921069094792,
,,,,0,0,0,0,46,0,46,0,,,,,,,,,,,,,,,,,,,,,,,,,,,,,,,,,,,,,,,,,,,,,,46,8.0,f,019_m_f_n_a.jpg,neutral,s,3,1,220.1042159999488,220.3986121999682,220.6497412000317,220.67578329999233,220.6765445000492,220.71144889997086,220.71304810000584,222.40993530004053,None,0,,,220.71304810000584,222.40993530004053,222.41599090001546,223.49026020002785,EMOCONPILOT003,2020_Dec_30_1304,EmoCon_Pilot_120Hz,2020.2.4,120.26921069094792,
,,,,0,0,0,0,47,0,47,0,,,,,,,,,,,,,,,,,,,,,,,,,,,,,,,,,,,,,,,,,,,,,,47,2.0,m,008_y_m_h_a.jpg,happy,d,3,1,223.4953843000112,223.7902448999579,223.81597090000287,223.83814859999111,223.8389772999799,223.87469340002863,223.87596830003895,225.4167559000547,None,0,,,223.87596830003895,225.4167559000547,225.41965679998975,226.80698390005855,EMOCONPILOT003,2020_Dec_30_1304,EmoCon_Pilot_120Hz,2020.2.4,120.26921069094792,
,,,,0,0,0,0,48,0,48,0,,,,,,,,,,,,,,,,,,,,,,,,,,,,,,,,,,,,,,,,,,,,,,48,12.0,f,040_y_f_n_a.jpg,neutral,s,17,1,226.81243749998976,227.10674210001017,227.31517379998695,227.46895309995162,227.4727168000536,227.5128246000153,227.51802039996255,228.93298670001096,a,0,1.4047082000179216,1404.7082000179216,227.51802039996255,228.93298670001096,228.94240039994475,230.28206429994898,EMOCONPILOT003,2020_Dec_30_1304,EmoCon_Pilot_120Hz,2020.2.4,120.26921069094792,
,,,,0,0,0,0,49,0,49,0,,,,,,,,,,,,,,,,,,,,,,,,,,,,,,,,,,,,,,,,,,,,,,49,11.0,f,030_o_f_n_a.jpg,neutral,s,17,1,230.28561899997294,230.58197430000874,230.79106409999076,230.9597372999764,230.96403899998404,231.00489629994846,231.0100179000292,232.56448590002256,s,1,1.5369427999248728,1536.9427999248728,231.0100179000292,232.56448590002256,232.5754539000336,234.05717009996297,EMOCONPILOT003,2020_Dec_30_1304,EmoCon_Pilot_120Hz,2020.2.4,120.26921069094792,
,,,,0,0,0,0,50,0,50,0,,,,,,,,,,,,,,,,,,,,,,,,,,,,,,,,,,,,,,,,,,,,,,50,8.0,f,019_m_f_h_a.jpg,happy,d,17,1,234.06127679999918,234.3571191999712,234.37406359997112,234.50889470000985,234.51251399994362,234.55008830005536,234.55329239997081,235.21191340001533,d,1,0.6415679999627173,641.5679999627173,234.55329239997081,235.21191340001533,235.22299549996387,236.47393320003758,EMOCONPILOT003,2020_Dec_30_1304,EmoCon_Pilot_120Hz,2020.2.4,120.26921069094792,
,,,,0,0,0,0,51,0,51,0,,,,,,,,,,,,,,,,,,,,,,,,,,,,,,,,,,,,,,,,,,,,,,51,8.0,f,019_m_f_n_a.jpg,neutral,s,17,1,236.47860949998721,236.77383740005317,237.02334079996217,237.18115520003485,237.18604219995905,237.22752999995137,237.23167739994824,239.0083426999976,None,0,,,237.23167739994824,239.0083426999976,239.01337830000557,240.54897160005058,EMOCONPILOT003,2020_Dec_30_1304,EmoCon_Pilot_120Hz,2020.2.4,120.26921069094792,
,,,,0,0,0,0,52,0,52,0,,,,,,,,,,,,,,,,,,,,,,,,,,,,,,,,,,,,,,,,,,,,,,52,12.0,f,040_y_f_n_a.jpg,neutral,s,3,1,240.55369299999438,240.84892569998047,241.06841509998776,241.09437089998974,241.09493679995649,241.12959850000917,241.1293588000117,242.7292029000004,None,0,,,241.1293588000117,242.7292029000004,242.7348150999751,244.15738599995385,EMOCONPILOT003,2020_Dec_30_1304,EmoCon_Pilot_120Hz,2020.2.4,120.26921069094792,
,,,,0,0,0,0,53,0,53,0,,,,,,,,,,,,,,,,,,,,,,,,,,,,,,,,,,,,,,,,,,,,,,53,9.0,f,021_o_f_h_a.jpg,happy,d,3,1,244.16268569999374,244.45742240004475,244.6699000999797,244.69605229996378,244.69649999996182,244.7335292999982,244.73474139999598,245.4986450999626,d,1,0.7559977000346407,755.9977000346407,244.73474139999598,245.4986450999626,245.50789879995864,247.37405659995275,EMOCONPILOT003,2020_Dec_30_1304,EmoCon_Pilot_120Hz,2020.2.4,120.26921069094792,
,,,,0,0,0,0,54,0,54,0,,,,,,,,,,,,,,,,,,,,,,,,,,,,,,,,,,,,,,,,,,,,,,54,2.0,m,008_y_m_n_a.jpg,neutral,s,3,1,247.37739609996788,247.6741419999511,247.94069910002872,247.96619139999385,247.96934489998966,248.00657500004164,248.00955439999234,249.63050340003102,None,0,,,248.00955439999234,249.63050340003102,249.6337886999827,250.83248579994543,EMOCONPILOT003,2020_Dec_30_1304,EmoCon_Pilot_120Hz,2020.2.4,120.26921069094792,
,,,,0,0,0,0,55,0,55,0,,,,,,,,,,,,,,,,,,,,,,,,,,,,,,,,,,,,,,,,,,,,,,55,10.0,f,028_y_f_n_a.jpg,neutral,s,17,1,250.83761459996458,251.1324686999782,251.3387469999725,251.50411080002087,251.5089289000025,251.54986199996202,251.55498060001992,252.30639219997684,s,1,0.7439574999734759,743.9574999734759,251.55498060001992,252.30639219997684,252.3160950000165,253.78254670001334,EMOCONPILOT003,2020_Dec_30_1304,EmoCon_Pilot_120Hz,2020.2.4,120.26921069094792,
,,,,0,0,0,0,56,0,56,0,,,,,,,,,,,,,,,,,,,,,,,,,,,,,,,,,,,,,,,,,,,,,,56,12.0,f,040_y_f_h_a.jpg,happy,d,17,1,253.78667750000022,254.08254610005534,254.10931490000803,254.24248980000849,254.2459212000249,254.28419700000669,254.2893554000184,255.12153719997733,d,1,0.8255964999552816,825.5964999552816,254.2893554000184,255.12153719997733,255.1327822000021,256.632587699953,EMOCONPILOT003,2020_Dec_30_1304,EmoCon_Pilot_120Hz,2020.2.4,120.26921069094792,
,,,,0,0,0,0,57,0,57,0,,,,,,,,,,,,,,,,,,,,,,,,,,,,,,,,,,,,,,,,,,,,,,57,2.0,m,008_y_m_n_a.jpg,neutral,s,17,1,256.63681199995335,256.93264359995953,257.18144199997187,257.3486633999622,257.3535197000019,257.39153449997536,257.39526200003456,258.4135772999492,s,1,1.0076835999498144,1007.6835999498144,257.39526200003456,258.4135772999492,258.42539490002673,260.0410297999973,EMOCONPILOT003,2020_Dec_30_1304,EmoCon_Pilot_120Hz,2020.2.4,120.26921069094792,
,,,,0,0,0,0,58,0,58,0,,,,,,,,,,,,,,,,,,,,,,,,,,,,,,,,,,,,,,,,,,,,,,58,9.0,f,021_o_f_n_a.jpg,neutral,s,17,1,260.0466889999807,260.3410351999686,260.5410124999471,260.7017991999513,260.70620040001813,260.7472209999454,260.7521545999916,261.437710900011,s,1,0.6746092999819666,674.6092999819666,260.7521545999916,261.437710900011,261.4479135000147,263.0410464000073,EMOCONPILOT003,2020_Dec_30_1304,EmoCon_Pilot_120Hz,2020.2.4,120.26921069094792,
,,,,0,0,0,0,59,0,59,0,,,,,,,,,,,,,,,,,,,,,,,,,,,,,,,,,,,,,,,,,,,,,,59,4.0,m,016_y_m_n_a.jpg,neutral,s,17,1,263.0451936000027,263.3410534999915,263.5763306999579,263.73047610003266,263.7348219000269,263.7758428999572,263.7809328000294,264.8586634999723,s,1,1.0700503999833018,1070.0503999833018,263.7809328000294,264.8586634999723,264.8703228000086,266.28276809995293,EMOCONPILOT003,2020_Dec_30_1304,EmoCon_Pilot_120Hz,2020.2.4,120.26921069094792,
,,,,0,0,0,0,60,0,60,0,,,,,,,,,,,,,,,,,,,,,,,,,,,,,,,,,,,,,,,,,,,,,,60,6.0,m,033_o_m_s_a.jpg,sad,a,3,1,266.2865865000058,266.5827696000109,266.60801109997556,266.63105070000745,266.6315073999576,266.66734900003064,266.6686478999909,268.20981529998824,None,0,,,266.6686478999909,268.20981529998824,268.2122115000384,270.17460990002144,EMOCONPILOT003,2020_Dec_30_1304,EmoCon_Pilot_120Hz,2020.2.4,120.26921069094792,
,,,,0,0,0,0,61,0,61,0,,,,,,,,,,,,,,,,,,,,,,,,,,,,,,,,,,,,,,,,,,,,,,61,7.0,f,012_o_f_n_a.jpg,neutral,s,3,1,270.17995360004716,270.4746640000143,270.6975518000545,270.7235713999602,270.7242993999971,270.7592027000268,270.7606364999665,272.3325530999922,None,0,,,270.7606364999665,272.3325530999922,272.33640210004523,273.5246261000051,EMOCONPILOT003,2020_Dec_30_1304,EmoCon_Pilot_120Hz,2020.2.4,120.26921069094792,
,,,,0,0,0,0,62,0,62,0,,,,,,,,,,,,,,,,,,,,,,,,,,,,,,,,,,,,,,,,,,,,,,62,2.0,m,008_y_m_h_a.jpg,happy,d,17,1,273.5287789000431,273.8246445999597,273.84838640003,273.98462629996936,273.98943139996845,274.030002699967,274.035086399992,274.7553037000238,d,1,0.7038352000527084,703.8352000527084,274.035086399992,274.7553037000238,274.766064299969,276.33300749995976,EMOCONPILOT003,2020_Dec_30_1304,EmoCon_Pilot_120Hz,2020.2.4,120.26921069094792,
,,,,0,0,0,0,63,0,63,0,,,,,,,,,,,,,,,,,,,,,,,,,,,,,,,,,,,,,,,,,,,,,,63,10.0,f,028_y_f_h_a.jpg,happy,d,3,1,276.33696580003016,276.63304679995633,276.65304120001383,276.67543179999336,276.67605150002055,276.7115216999431,276.7112554999767,277.3657192000304,d,1,0.6436371000017971,643.6371000017971,276.7112554999767,277.3657192000304,277.3752537999535,278.96649759999707,EMOCONPILOT003,2020_Dec_30_1304,EmoCon_Pilot_120Hz,2020.2.4,120.26921069094792,
,,,,0,0,0,0,64,0,64,0,,,,,,,,,,,,,,,,,,,,,,,,,,,,,,,,,,,,,,,,,,,,,,64,4.0,m,016_y_m_h_a.jpg,happy,d,3,1,278.9721695999615,279.2664940000162,279.28951260005124,279.311327699956,279.31217199994717,279.3509216000442,279.3524421999464,280.00339250002287,d,1,0.6427630999824032,642.7630999824032,279.3524421999464,280.00339250002287,280.0114809999941,281.6165535999811,EMOCONPILOT003,2020_Dec_30_1304,EmoCon_Pilot_120Hz,2020.2.4,120.26921069094792,
,,,,0,0,0,0,65,0,65,0,,,,,,,,,,,,,,,,,,,,,,,,,,,,,,,,,,,,,,,,,,,,,,65,9.0,f,021_o_f_s_a.jpg,sad,a,17,1,281.62217690004036,281.916593599983,281.94029589998536,282.0764697000035,282.08135969995055,282.12201570001196,282.1271283000242,283.76997169995445,a,1,1.6357906999764964,1635.7906999764964,282.1271283000242,283.76997169995445,283.7818634000141,284.78318699999943,EMOCONPILOT003,2020_Dec_30_1304,EmoCon_Pilot_120Hz,2020.2.4,120.26921069094792,
,,,,0,0,0,0,66,0,66,0,,,,,,,,,,,,,,,,,,,,,,,,,,,,,,,,,,,,,,,,,,,,,,66,7.0,f,012_o_f_h_a.jpg,happy,d,3,1,284.787485799985,285.0831992000225,285.0985823000083,285.12011429996926,285.12098859995604,285.1594364999677,285.1611981999595,286.13830380005527,d,1,0.9617087999358773,961.7087999358773,285.1611981999595,286.13830380005527,286.1465737000108,287.61668130002215,EMOCONPILOT003,2020_Dec_30_1304,EmoCon_Pilot_120Hz,2020.2.4,120.26921069094792,
,,,,0,0,0,0,67,0,67,0,,,,,,,,,,,,,,,,,,,,,,,,,,,,,,,,,,,,,,,,,,,,,,67,9.0,f,021_o_f_h_a.jpg,happy,d,3,1,287.6209502000129,287.9165871000499,288.1447358999867,288.1716753000277,288.1759077999741,288.216342999984,288.22141140000895,288.79025230001423,d,1,0.5575817000353709,557.5817000353709,288.22141140000895,288.79025230001423,288.8017791999737,289.79165529998716,EMOCONPILOT003,2020_Dec_30_1304,EmoCon_Pilot_120Hz,2020.2.4,120.26921069094792,
,,,,0,0,0,0,68,0,68,0,,,,,,,,,,,,,,,,,,,,,,,,,,,,,,,,,,,,,,,,,,,,,,68,8.0,f,019_m_f_h_a.jpg,happy,d,17,1,289.7957441000035,290.0916452999576,290.1157734999433,290.2516025000135,290.25541029998567,290.2943730999599,290.2996567999944,290.7879411999951,d,1,0.4793753999983892,479.3753999983892,290.2996567999944,290.7879411999951,290.79971199994907,292.4667350000585,EMOCONPILOT003,2020_Dec_30_1304,EmoCon_Pilot_120Hz,2020.2.4,120.26921069094792,
,,,,0,0,0,0,69,0,69,0,,,,,,,,,,,,,,,,,,,,,,,,,,,,,,,,,,,,,,,,,,,,,,69,9.0,f,021_o_f_s_a.jpg,sad,a,3,1,292.4718597000465,292.766820999945,292.7914871999528,292.81478439996715,292.8154815000016,292.8511953000328,292.852539399988,293.7422046000487,d,0,0.878341400064528,878.341400064528,292.852539399988,293.7422046000487,293.74966790003236,295.7000579999643,EMOCONPILOT003,2020_Dec_30_1304,EmoCon_Pilot_120Hz,2020.2.4,120.26921069094792,
,,,,0,0,0,0,70,0,70,0,,,,,,,,,,,,,,,,,,,,,,,,,,,,,,,,,,,,,,,,,,,,,,70,2.0,m,008_y_m_h_a.jpg,happy,d,3,1,295.7031997999875,296.00013980005167,296.0219553000061,296.04461559994377,296.04497010004707,296.0846865000552,296.0849265999859,296.7098495000158,d,1,0.6139536999398842,613.9536999398842,296.0849265999859,296.7098495000158,296.72168590000365,298.5836181999533,EMOCONPILOT003,2020_Dec_30_1304,EmoCon_Pilot_120Hz,2020.2.4,120.26921069094792,
,,,,0,0,0,0,71,0,71,0,,,,,,,,,,,,,,,,,,,,,,,,,,,,,,,,,,,,,,,,,,,,,,71,1.0,m,004_o_m_h_a.jpg,happy,d,3,1,298.5893058000365,298.88358369997,299.09512730001006,299.1210969000007,299.1213929000078,299.1568074999726,299.1567242000019,300.19313359997466,d,1,1.0221766999457031,1022.1766999457031,299.1567242000019,300.19313359997466,300.1998057999881,301.42535890002034,EMOCONPILOT003,2020_Dec_30_1304,EmoCon_Pilot_120Hz,2020.2.4,120.26921069094792,
,,,,0,0,0,0,72,0,72,0,,,,,,,,,,,,,,,,,,,,,,,,,,,,,,,,,,,,,,,,,,,,,,72,11.0,f,030_o_f_h_a.jpg,happy,d,17,1,301.4307299000211,301.7253418000531,301.9294164000312,302.0881288999575,302.09187640005257,302.1315516999806,302.1365394999739,302.4416825999855,d,1,0.2984500000020489,298.4500000020489,302.1365394999739,302.4416825999855,302.45333699998446,304.2254110999987,EMOCONPILOT003,2020_Dec_30_1304,EmoCon_Pilot_120Hz,2020.2.4,120.26921069094792,
,,,,0,0,0,0,73,0,73,0,,,,,,,,,,,,,,,,,,,,,,,,,,,,,,,,,,,,,,,,,,,,,,73,8.0,f,019_m_f_s_a.jpg,sad,a,3,1,304.23085149994586,304.5254216000088,304.7562024999643,304.7822919000522,304.7831196000334,304.8181179999723,304.8193895999575,305.7024076000438,d,0,0.8713982000481337,871.3982000481337,304.8193895999575,305.7024076000438,305.7099655000493,307.33379410001214,EMOCONPILOT003,2020_Dec_30_1304,EmoCon_Pilot_120Hz,2020.2.4,120.26921069094792,
,,,,0,0,0,0,74,0,74,0,,,,,,,,,,,,,,,,,,,,,,,,,,,,,,,,,,,,,,,,,,,,,,74,5.0,m,027_o_m_h_a.jpg,happy,d,3,1,307.33931239997037,307.63372930003095,307.8428112999536,307.86854329999767,307.8686207999708,307.9046728000161,307.90480869996827,308.7199193999753,d,1,0.8020585000049323,802.0585000049323,307.90480869996827,308.7199193999753,308.72290839999914,310.10878289995014,EMOCONPILOT003,2020_Dec_30_1304,EmoCon_Pilot_120Hz,2020.2.4,120.26921069094792,
,,,,0,0,0,0,75,0,75,0,,,,,,,,,,,,,,,,,,,,,,,,,,,,,,,,,,,,,,,,,,,,,,75,8.0,f,019_m_f_s_a.jpg,sad,a,3,1,310.1148848000448,310.40883010000687,310.6473441000562,310.6734780000173,310.67372870002873,310.70975860002216,310.7101165000349,311.652253899991,a,1,0.9327924000099301,932.7924000099301,310.7101165000349,311.652253899991,311.6627536000451,313.06722859995205,EMOCONPILOT003,2020_Dec_30_1304,EmoCon_Pilot_120Hz,2020.2.4,120.26921069094792,
,,,,0,0,0,0,76,0,76,0,,,,,,,,,,,,,,,,,,,,,,,,,,,,,,,,,,,,,,,,,,,,,,76,7.0,f,012_o_f_n_a.jpg,neutral,s,17,1,313.07323570002336,313.3671775999595,313.57080420001876,313.7329943999997,313.7379597000545,313.7775886999792,313.7825406000484,314.70767169996395,s,1,0.9163029999472201,916.3029999472201,313.7825406000484,314.70767169996395,314.71899770002346,315.81719829995416,EMOCONPILOT003,2020_Dec_30_1304,EmoCon_Pilot_120Hz,2020.2.4,120.26921069094792,
,,,,0,0,0,0,77,0,77,0,,,,,,,,,,,,,,,,,,,,,,,,,,,,,,,,,,,,,,,,,,,,,,77,6.0,m,033_o_m_s_a.jpg,sad,a,17,1,315.82132240000647,316.11729859994955,316.14114720001817,316.277170700056,316.2816920999903,316.32061510001074,316.3251450000098,317.9871309999493,s,0,1.6457392999436706,1645.7392999436706,316.3251450000098,317.9871309999493,317.9954604000086,319.5840823999955,EMOCONPILOT003,2020_Dec_30_1304,EmoCon_Pilot_120Hz,2020.2.4,120.26921069094792,
,,,,0,0,0,0,78,0,78,0,,,,,,,,,,,,,,,,,,,,,,,,,,,,,,,,,,,,,,,,,,,,,,78,1.0,m,004_o_m_h_a.jpg,happy,d,17,1,319.5897277999902,319.88406820005036,320.09082329995,320.24748549998037,320.25244660000317,320.29290080004137,320.29812709998805,321.57035760002907,d,1,1.2567603000206873,1256.7603000206873,320.29812709998805,321.57035760002907,321.57856809999794,323.1756043000263,EMOCONPILOT003,2020_Dec_30_1304,EmoCon_Pilot_120Hz,2020.2.4,120.26921069094792,
,,,,0,0,0,0,79,0,79,0,,,,,,,,,,,,,,,,,,,,,,,,,,,,,,,,,,,,,,,,,,,,,,79,5.0,m,027_o_m_s_a.jpg,sad,a,17,1,323.17847449996043,323.4756098999991,323.4989585999865,323.6356615999597,323.63882670004386,323.6780661000288,323.68319130002055,324.44873820004284,a,1,0.7517031999304891,751.7031999304891,323.68319130002055,324.44873820004284,324.4591788999969,325.45073059996355,EMOCONPILOT003,2020_Dec_30_1304,EmoCon_Pilot_120Hz,2020.2.4,120.26921069094792,
,,,,0,0,0,0,80,0,80,0,,,,,,,,,,,,,,,,,,,,,,,,,,,,,,,,,,,,,,,,,,,,,,80,9.0,f,021_o_f_s_a.jpg,sad,a,3,1,325.4549872999778,325.75081979999084,325.7733800000278,325.79562669995937,325.79617790004704,325.8352282999898,325.83605839998927,327.4150892000529,None,0,,,325.83605839998927,327.4150892000529,327.42084849998355,328.7177302999538,EMOCONPILOT003,2020_Dec_30_1304,EmoCon_Pilot_120Hz,2020.2.4,120.26921069094792,
,,,,0,0,0,0,81,0,81,0,,,,,,,,,,,,,,,,,,,,,,,,,,,,,,,,,,,,,,,,,,,,,,81,5.0,m,027_o_m_s_a.jpg,sad,a,3,1,328.71778559999075,329.01756009998496,329.04803730000276,329.06971320001173,329.07142379996367,329.1103998000384,329.1116623999551,330.42998699998714,s,0,1.3073909999802709,1307.3909999802709,329.1116623999551,330.42998699998714,330.4416451000143,331.8925784000079,EMOCONPILOT003,2020_Dec_30_1304,EmoCon_Pilot_120Hz,2020.2.4,120.26921069094792,
,,,,0,0,0,0,82,0,82,0,,,,,,,,,,,,,,,,,,,,,,,,,,,,,,,,,,,,,,,,,,,,,,82,7.0,f,012_o_f_h_a.jpg,happy,d,17,1,331.8986630999716,332.1925718000042,332.20491209998727,332.335867299966,332.33908529998735,332.37723809996385,332.3806592000183,333.14685549997955,d,1,0.7584322999464348,758.4322999464348,332.3806592000183,333.14685549997955,333.155316999997,334.66763620000563,EMOCONPILOT003,2020_Dec_30_1304,EmoCon_Pilot_120Hz,2020.2.4,120.26921069094792,
,,,,0,0,0,0,83,0,83,0,,,,,,,,,,,,,,,,,,,,,,,,,,,,,,,,,,,,,,,,,,,,,,83,3.0,m,013_y_m_s_a.jpg,sad,a,3,1,334.6730251000263,334.9676649000379,334.9844557000324,335.0067480999627,335.0070205000229,335.0438204999431,335.0453843000578,336.7771093000541,None,0,,,335.0453843000578,336.7771093000541,336.7837213999592,337.7843252000515,EMOCONPILOT003,2020_Dec_30_1304,EmoCon_Pilot_120Hz,2020.2.4,120.26921069094792,
,,,,0,0,0,0,84,0,84,0,,,,,,,,,,,,,,,,,,,,,,,,,,,,,,,,,,,,,,,,,,,,,,84,5.0,m,027_o_m_s_a.jpg,sad,a,3,1,337.7885571999941,338.084325899987,338.10851639998145,338.13104709998004,338.1318821000168,338.1688512999448,338.16993700002786,339.5313706000219,a,1,1.3529592999257147,1352.9592999257147,338.16993700002786,339.5313706000219,339.54302610002924,341.2594952000421,EMOCONPILOT003,2020_Dec_30_1304,EmoCon_Pilot_120Hz,2020.2.4,120.26921069094792,
,,,,0,0,0,0,85,0,85,0,,,,,,,,,,,,,,,,,,,,,,,,,,,,,,,,,,,,,,,,,,,,,,85,4.0,m,016_y_m_s_a.jpg,sad,a,3,1,341.26554880000185,341.5594382000039,341.5823777000187,341.6046985000488,341.6046585999429,341.64402040004495,341.6450885999948,343.19038179997585,a,1,1.5338015999877825,1533.8015999877825,341.6450885999948,343.19038179997585,343.1999684999464,344.90947650003943,EMOCONPILOT003,2020_Dec_30_1304,EmoCon_Pilot_120Hz,2020.2.4,120.26921069094792,
,,,,0,0,0,0,86,0,86,0,,,,,,,,,,,,,,,,,,,,,,,,,,,,,,,,,,,,,,,,,,,,,,86,5.0,m,027_o_m_n_a.jpg,neutral,s,3,1,344.91379529994447,345.20948250001527,345.4427354000509,345.4687063000514,345.46885049995035,345.5038833000348,345.5033299999777,347.1439887000364,None,0,,,345.5033299999777,347.1439887000364,347.15069919999223,348.83461990001376,EMOCONPILOT003,2020_Dec_30_1304,EmoCon_Pilot_120Hz,2020.2.4,120.26921069094792,
,,,,0,0,0,0,87,0,87,0,,,,,,,,,,,,,,,,,,,,,,,,,,,,,,,,,,,,,,,,,,,,,,87,3.0,m,013_y_m_h_a.jpg,happy,d,17,1,348.83942219999153,349.1346327000414,349.3941710999934,349.5505416000145,349.5552243000129,349.59560409995026,349.600704499986,350.4513672000379,d,1,0.8341973000206053,834.1973000206053,349.600704499986,350.4513672000379,350.45949339994695,352.30131279994964,EMOCONPILOT003,2020_Dec_30_1304,EmoCon_Pilot_120Hz,2020.2.4,120.26921069094792,
,,,,0,0,0,0,88,0,88,0,,,,,,,,,,,,,,,,,,,,,,,,,,,,,,,,,,,,,,,,,,,,,,88,5.0,m,027_o_m_s_a.jpg,sad,a,17,1,352.3061742000282,352.60131430000763,352.62746790004894,352.76128220002863,352.76632519997656,352.8068806999712,352.81206699996255,353.56389849997356,a,1,0.7428663000464439,742.8663000464439,352.81206699996255,353.56389849997356,353.57581209996715,355.5014906999771,EMOCONPILOT003,2020_Dec_30_1304,EmoCon_Pilot_120Hz,2020.2.4,120.26921069094792,
,,,,0,0,0,0,89,0,89,0,,,,,,,,,,,,,,,,,,,,,,,,,,,,,,,,,,,,,,,,,,,,,,89,5.0,m,027_o_m_s_a.jpg,sad,a,3,1,355.5058373999782,355.8013581999461,355.8225230999524,355.8452141000074,355.8462436000118,355.8801326000015,355.8801269000396,357.2669989000191,a,1,1.3791733999969438,1379.1733999969438,355.8801269000396,357.2669989000191,357.2785300000105,358.57657199996754,EMOCONPILOT003,2020_Dec_30_1304,EmoCon_Pilot_120Hz,2020.2.4,120.26921069094792,
,,,,0,0,0,0,90,0,90,0,,,,,,,,,,,,,,,,,,,,,,,,,,,,,,,,,,,,,,,,,,,,,,90,12.0,f,040_y_f_s_a.jpg,sad,a,3,1,358.582107400056,358.876578999951,358.902811500011,358.9257151000551,358.9260629999917,358.9609100999427,358.9624315999681,360.05929060004416,s,0,1.0885056999977678,1088.5056999977678,358.9624315999681,360.05929060004416,360.07022100000177,361.7182563000009,EMOCONPILOT003,2020_Dec_30_1304,EmoCon_Pilot_120Hz,2020.2.4,120.26921069094792,
,,,,0,0,0,0,91,0,91,0,,,,,,,,,,,,,,,,,,,,,,,,,,,,,,,,,,,,,,,,,,,,,,91,3.0,m,013_y_m_n_a.jpg,neutral,s,17,1,361.722374200006,362.01822150001533,362.2666632999899,362.4219195000245,362.42569059995003,362.4658500999561,362.47110169997904,364.1372481000493,s,1,1.6518564000725746,1651.8564000725746,362.47110169997904,364.1372481000493,364.1438318999717,365.7099677999853,EMOCONPILOT003,2020_Dec_30_1304,EmoCon_Pilot_120Hz,2020.2.4,120.26921069094792,
,,,,0,0,0,0,92,0,92,0,,,,,,,,,,,,,,,,,,,,,,,,,,,,,,,,,,,,,,,,,,,,,,92,12.0,f,040_y_f_s_a.jpg,sad,a,3,1,365.7150976000121,366.0100388999912,366.0354677999858,366.0569004000048,366.05783549998887,366.09435940001856,366.0945169000188,367.0828053000499,s,0,0.9803660999750718,980.3660999750718,366.0945169000188,367.0828053000499,367.09295009996276,368.2015554999583,EMOCONPILOT003,2020_Dec_30_1304,EmoCon_Pilot_120Hz,2020.2.4,120.26921069094792,
,,,,0,0,0,0,93,0,93,0,,,,,,,,,,,,,,,,,,,,,,,,,,,,,,,,,,,,,,,,,,,,,,93,6.0,m,033_o_m_s_a.jpg,sad,a,17,1,368.20450160000473,368.5015688999905,368.5220023000147,368.6532934999908,368.6570978000527,368.6945322000305,368.69756170001347,369.99775390004504,s,0,1.2893533000024036,1289.3533000024036,368.69756170001347,369.99775390004504,370.0075985000003,371.743367500056,EMOCONPILOT003,2020_Dec_30_1304,EmoCon_Pilot_120Hz,2020.2.4,120.26921069094792,
,,,,0,0,0,0,94,0,94,0,,,,,,,,,,,,,,,,,,,,,,,,,,,,,,,,,,,,,,,,,,,,,,94,2.0,m,008_y_m_s_a.jpg,sad,a,3,1,371.7471775000449,372.04347159996394,372.5264269999461,372.5538953000563,372.5577025000239,372.59848530000306,372.60358100000303,373.55826989995546,a,1,0.9432974000228569,943.2974000228569,372.60358100000303,373.55826989995546,373.5689136000583,375.1185044000507,EMOCONPILOT003,2020_Dec_30_1304,EmoCon_Pilot_120Hz,2020.2.4,120.26921069094792,
,,,,0,0,0,0,95,0,95,0,,,,,,,,,,,,,,,,,,,,,,,,,,,,,,,,,,,,,,,,,,,,,,95,8.0,f,019_m_f_s_a.jpg,sad,a,17,1,375.1237145999912,375.4185058999923,375.66533760004677,375.82602479999184,375.8307159000542,375.87100019996285,375.8759921999881,376.4064772000187,a,1,0.518871600041166,518.871600041166,375.8759921999881,376.4064772000187,376.4151167999953,377.46021910003617,EMOCONPILOT003,2020_Dec_30_1304,EmoCon_Pilot_120Hz,2020.2.4,120.26921069094792,
,,,,0,0,0,0,96,0,96,0,,,,,,,,,,,,,,,,,,,,,,,,,,,,,,,,,,,,,,,,,,,,,,96,9.0,f,021_o_f_n_a.jpg,neutral,s,17,1,377.4661874000449,377.76032200005136,377.9742298000492,378.1373585999594,378.1408398000058,378.18062549995955,378.18607189995237,379.9247108999756,a,0,1.7289146000985056,1728.9146000985056,378.18607189995237,379.9247108999756,379.935252700001,381.23525319996986,EMOCONPILOT003,2020_Dec_30_1304,EmoCon_Pilot_120Hz,2020.2.4,120.26921069094792,
,,,,0,0,0,0,97,0,97,0,,,,,,,,,,,,,,,,,,,,,,,,,,,,,,,,,,,,,,,,,,,,,,97,11.0,f,030_o_f_h_a.jpg,happy,d,17,1,381.23919160000514,381.53521429995305,381.72607309999876,381.8849324999959,381.8895741000306,381.9291243000538,381.9340560999699,382.6492552999756,d,1,0.70085410005413,700.85410005413,381.9340560999699,382.6492552999756,382.65353220002726,384.0687040000106,EMOCONPILOT003,2020_Dec_30_1304,EmoCon_Pilot_120Hz,2020.2.4,120.26921069094792,
,,,,0,0,0,0,98,0,98,0,,,,,,,,,,,,,,,,,,,,,,,,,,,,,,,,,,,,,,,,,,,,,,98,12.0,f,040_y_f_n_a.jpg,neutral,s,3,1,384.0740436000051,384.3687534999684,384.592885900056,384.6181208000402,384.6185578999575,384.6537106000236,384.65324530005455,385.69949539998777,s,1,1.037962899892591,1037.962899892591,384.65324530005455,385.69949539998777,385.711070499965,387.2771363000269,EMOCONPILOT003,2020_Dec_30_1304,EmoCon_Pilot_120Hz,2020.2.4,120.26921069094792,
,,,,0,0,0,0,99,0,99,0,,,,,,,,,,,,,,,,,,,,,,,,,,,,,,,,,,,,,,,,,,,,,,99,12.0,f,040_y_f_s_a.jpg,sad,a,17,1,387.2811399999773,387.57714820004765,387.6078598999884,387.7453347000177,387.74843769997824,387.78669789995763,387.79006469994783,388.5552958000102,a,1,0.7568726999452338,756.8726999452338,387.79006469994783,388.5552958000102,388.5658916999819,390.0104361999896,EMOCONPILOT003,2020_Dec_30_1304,EmoCon_Pilot_120Hz,2020.2.4,120.26921069094792,
,,,,0,0,0,0,100,0,100,0,,,,,,,,,,,,,,,,,,,,,,,,,,,,,,,,,,,,,,,,,,,,,,100,4.0,m,016_y_m_n_a.jpg,neutral,s,17,1,390.01465569995344,390.31046660003483,390.55645270005334,390.7230175000499,390.72707150003407,390.76792960000455,390.77309739997145,391.4750085999607,s,1,0.694067700067535,694.067700067535,390.77309739997145,391.4750085999607,391.4865088999504,392.6938687999849,EMOCONPILOT003,2020_Dec_30_1304,EmoCon_Pilot_120Hz,2020.2.4,120.26921069094792,
,,,,0,0,0,0,101,0,101,0,,,,,,,,,,,,,,,,,,,,,,,,,,,,,,,,,,,,,,,,,,,,,,101,11.0,f,030_o_f_s_a.jpg,sad,a,17,1,392.6978318999754,392.99390170004915,393.1949655000353,393.3584733000374,393.3631908999523,393.40451249995965,393.40935169998556,394.01168389994416,a,1,0.5934489000355825,593.4489000355825,393.40935169998556,394.01168389994416,394.01800979999825,395.51060249997533,EMOCONPILOT003,2020_Dec_30_1304,EmoCon_Pilot_120Hz,2020.2.4,120.26921069094792,
,,,,0,0,0,0,102,0,102,0,,,,,,,,,,,,,,,,,,,,,,,,,,,,,,,,,,,,,,,,,,,,,,102,3.0,m,013_y_m_h_a.jpg,happy,d,17,1,395.51645899994764,395.8105933999526,396.044275799999,396.20333940003763,396.20749239996076,396.24730289998695,396.2517258999869,396.99301060001596,d,1,0.7272136000683531,727.2136000683531,396.2517258999869,396.99301060001596,397.0039919000119,398.0440061999601,EMOCONPILOT003,2020_Dec_30_1304,EmoCon_Pilot_120Hz,2020.2.4,120.26921069094792,
,,,,0,0,0,0,103,0,103,0,,,,,,,,,,,,,,,,,,,,,,,,,,,,,,,,,,,,,,,,,,,,,,103,2.0,m,008_y_m_s_a.jpg,sad,a,3,1,398.04810560005717,398.343963000027,398.5713626999641,398.5968800000031,398.59697700000834,398.63200080002423,398.63181910000276,399.6573282999801,a,1,1.0112018999643624,1011.2018999643624,398.63181910000276,399.6573282999801,399.663606600021,401.1606883999542,EMOCONPILOT003,2020_Dec_30_1304,EmoCon_Pilot_120Hz,2020.2.4,120.26921069094792,
,,,,0,0,0,0,104,0,104,0,,,,,,,,,,,,,,,,,,,,,,,,,,,,,,,,,,,,,,,,,,,,,,104,11.0,f,030_o_f_s_a.jpg,sad,a,3,1,401.1660526000196,401.46071070005416,401.6637097999919,401.69083839996017,401.6915596999461,401.7286012999597,401.7297125000041,402.838962300017,a,1,1.0973211999516934,1097.3211999516934,401.7297125000041,402.838962300017,402.8506084999535,404.419205199962,EMOCONPILOT003,2020_Dec_30_1304,EmoCon_Pilot_120Hz,2020.2.4,120.26921069094792,
,,,,0,0,0,0,105,0,105,0,,,,,,,,,,,,,,,,,,,,,,,,,,,,,,,,,,,,,,,,,,,,,,105,4.0,m,016_y_m_h_a.jpg,happy,d,3,1,404.4244875999866,404.71920630001694,404.7461294999812,404.76845480004556,404.7690007999772,404.8034361000522,404.8032626999775,406.0122908000252,d,1,1.1995498000178486,1199.5498000178486,404.8032626999775,406.0122908000252,406.01861779997125,407.49417670004766,EMOCONPILOT003,2020_Dec_30_1304,EmoCon_Pilot_120Hz,2020.2.4,120.26921069094792,
,,,,0,0,0,0,106,0,106,0,,,,,,,,,,,,,,,,,,,,,,,,,,,,,,,,,,,,,,,,,,,,,,106,7.0,f,012_o_f_n_a.jpg,neutral,s,3,1,407.49934480001684,407.79425970002774,408.01344490004703,408.040912700037,408.044640099979,408.08434019997947,408.09032720001414,409.9134375000489,None,0,,,408.09032720001414,409.9134375000489,409.9209177000448,411.1858099999721,EMOCONPILOT003,2020_Dec_30_1304,EmoCon_Pilot_120Hz,2020.2.4,120.26921069094792,
,,,,0,0,0,0,107,0,107,0,,,,,,,,,,,,,,,,,,,,,,,,,,,,,,,,,,,,,,,,,,,,,,107,11.0,f,030_o_f_h_a.jpg,happy,d,17,1,411.188830900006,411.4860046999878,411.683950799983,411.841832099983,411.8468983999919,411.8877842000569,411.89286979997996,412.69660499998133,d,1,0.7900983999716118,790.0983999716118,411.89286979997996,412.69660499998133,412.7076812000014,414.31927669994764,EMOCONPILOT003,2020_Dec_30_1304,EmoCon_Pilot_120Hz,2020.2.4,120.26921069094792,
,,,,0,0,0,0,108,0,108,0,,,,,,,,,,,,,,,,,,,,,,,,,,,,,,,,,,,,,,,,,,,,,,108,1.0,m,004_o_m_s_a.jpg,sad,a,17,1,414.32336919999216,414.619325300015,414.64220570004545,414.7792235999717,414.78230990003794,414.8206181000336,414.8240838999627,415.33847740005,a,1,0.5069038999499753,506.9038999499753,414.8240838999627,415.33847740005,415.3506884999806,416.6026705999742,EMOCONPILOT003,2020_Dec_30_1304,EmoCon_Pilot_120Hz,2020.2.4,120.26921069094792,
,,,,0,0,0,0,109,0,109,0,,,,,,,,,,,,,,,,,,,,,,,,,,,,,,,,,,,,,,,,,,,,,,109,3.0,m,013_y_m_n_a.jpg,neutral,s,3,1,416.6068139000563,416.9026860000216,417.14428200002294,417.16987130002815,417.1709294000175,417.2065274999826,417.2077956000576,418.6641235000337,s,1,1.4433694999897853,1443.3694999897853,417.2077956000576,418.6641235000337,418.6731187000405,420.20277170002225,EMOCONPILOT003,2020_Dec_30_1304,EmoCon_Pilot_120Hz,2020.2.4,120.26921069094792,
,,,,0,0,0,0,110,0,110,0,,,,,,,,,,,,,,,,,,,,,,,,,,,,,,,,,,,,,,,,,,,,,,110,10.0,f,028_y_f_s_a.jpg,sad,a,17,1,420.20698709995486,420.50276069998506,420.5152584000025,420.6469947999925,420.6505515000317,420.68901030000995,420.6926151999505,421.30793899999696,a,1,0.5985306999646127,598.5306999646127,420.6926151999505,421.30793899999696,421.31783069996163,423.06114100004777,EMOCONPILOT003,2020_Dec_30_1304,EmoCon_Pilot_120Hz,2020.2.4,120.26921069094792,
,,,,0,0,0,0,111,0,111,0,,,,,,,,,,,,,,,,,,,,,,,,,,,,,,,,,,,,,,,,,,,,,,111,11.0,f,030_o_f_h_a.jpg,happy,d,17,1,423.06496550003067,423.3611323000281,423.56402639998123,423.7340147999697,423.73758519999683,423.7785935999476,423.7836309999693,424.23010379999175,d,1,0.435413800063543,435.413800063543,423.7836309999693,424.23010379999175,424.23674920003396,426.06957089997593,EMOCONPILOT003,2020_Dec_30_1304,EmoCon_Pilot_120Hz,2020.2.4,120.26921069094792,
,,,,0,0,0,0,112,0,112,0,,,,,,,,,,,,,,,,,,,,,,,,,,,,,,,,,,,,,,,,,,,,,,112,7.0,f,012_o_f_n_a.jpg,neutral,s,17,1,426.0736720999703,426.36955290000185,426.578354199999,426.7422615000163,426.74536429997534,426.78312379998385,426.7862558000488,427.49142849995985,s,1,0.6887286999262869,688.7286999262869,426.7862558000488,427.49142849995985,427.50277400005143,429.094656299951,EMOCONPILOT003,2020_Dec_30_1304,EmoCon_Pilot_120Hz,2020.2.4,120.26921069094792,
,,,,0,0,0,0,113,0,113,0,,,,,,,,,,,,,,,,,,,,,,,,,,,,,,,,,,,,,,,,,,,,,,113,2.0,m,008_y_m_s_a.jpg,sad,a,3,1,429.0997997999657,429.3946211999631,429.6302851999644,429.65669020001076,429.6614748999709,429.70237119999945,429.7075925000245,430.52963949999537,a,1,0.8152136000571772,815.2136000571772,429.7075925000245,430.52963949999537,430.5364902999718,432.42802140003766,EMOCONPILOT003,2020_Dec_30_1304,EmoCon_Pilot_120Hz,2020.2.4,120.26921069094792,
,,,,0,0,0,0,114,0,114,0,,,,,,,,,,,,,,,,,,,,,,,,,,,,,,,,,,,,,,,,,,,,,,114,11.0,f,030_o_f_h_a.jpg,happy,d,3,1,432.4333823999623,432.7278244999819,432.9193182999734,432.94534729995064,432.9456325999927,432.9807215000386,432.98070039995946,433.7339328000438,d,1,0.7421816000714898,742.1816000714898,432.98070039995946,433.7339328000438,433.7413203000324,435.13643430002264,EMOCONPILOT003,2020_Dec_30_1304,EmoCon_Pilot_120Hz,2020.2.4,120.26921069094792,
,,,,0,0,0,0,115,0,115,0,,,,,,,,,,,,,,,,,,,,,,,,,,,,,,,,,,,,,,,,,,,,,,115,3.0,m,013_y_m_h_a.jpg,happy,d,17,1,435.1424385999562,435.43646439994916,435.6709888000041,435.83115819996453,435.8350619999692,435.87521340003,435.88077589997556,436.65400949997127,d,1,0.7623354999814183,762.3354999814183,435.88077589997556,436.65400949997127,436.66185929998755,437.95317869997814,EMOCONPILOT003,2020_Dec_30_1304,EmoCon_Pilot_120Hz,2020.2.4,120.26921069094792,
,,,,0,0,0,0,116,0,116,0,,,,,,,,,,,,,,,,,,,,,,,,,,,,,,,,,,,,,,,,,,,,,,116,2.0,m,008_y_m_s_a.jpg,sad,a,17,1,437.9595173000125,438.25327410005264,438.47659960004967,438.63430630000073,438.63922699994873,438.68048300003863,438.6855127000017,439.3965014999616,a,1,0.7016344000585377,701.6344000585377,438.6855127000017,439.3965014999616,439.40670060005505,440.69490689997326,EMOCONPILOT003,2020_Dec_30_1304,EmoCon_Pilot_120Hz,2020.2.4,120.26921069094792,
,,,,0,0,0,0,117,0,117,0,,,,,,,,,,,,,,,,,,,,,,,,,,,,,,,,,,,,,,,,,,,,,,117,3.0,m,013_y_m_n_a.jpg,neutral,s,17,1,440.69883080001455,440.99483669995095,441.2274522000225,441.3888496000203,441.3934439000441,441.4347510000574,441.439657800016,442.2732972000143,s,1,0.819251999957487,819.251999957487,441.439657800016,442.2732972000143,442.28573570004664,443.5366294000181,EMOCONPILOT003,2020_Dec_30_1304,EmoCon_Pilot_120Hz,2020.2.4,120.26921069094792,
,,,,0,0,0,0,118,0,118,0,,,,,,,,,,,,,,,,,,,,,,,,,,,,,,,,,,,,,,,,,,,,,,118,6.0,m,033_o_m_n_a.jpg,neutral,s,17,1,443.54222059994936,443.8366371000069,444.03653879999183,444.20367879994444,444.20848290005233,444.247570300044,444.25290610000957,444.88174929997183,s,1,0.6220747999614105,622.0747999614105,444.25290610000957,444.88174929997183,444.8936598999426,446.83663519999243,EMOCONPILOT003,2020_Dec_30_1304,EmoCon_Pilot_120Hz,2020.2.4,120.26921069094792,
,,,,0,0,0,0,119,0,119,0,,,,,,,,,,,,,,,,,,,,,,,,,,,,,,,,,,,,,,,,,,,,,,119,6.0,m,033_o_m_n_a.jpg,neutral,s,17,1,446.84077610005625,447.13665759997673,447.3310354000423,447.4996644000406,447.5032432000153,447.5440585000091,447.5494178000372,448.24004820004336,s,1,0.6774568000109866,677.4568000109866,447.5494178000372,448.24004820004336,448.2493256999878,449.96170270004075,EMOCONPILOT003,2020_Dec_30_1304,EmoCon_Pilot_120Hz,2020.2.4,120.26921069094792,
,,,,1,0,1,0,0,0,0,0,,,,,,,,,,,,,,,,,,,,,,,,,,,,,,,,,,,,,,,450.04675350000616,453.9015485999756,a,3.844261800055392,3844.261800055392,450.04675350000616,453.9015485999756,0,1.0,m,004_o_m_s_a.jpg,sad,a,2,2,453.90881749999244,454.20347149999577,454.2267720999662,454.2416380000417,454.2435897999676,454.27962249998234,454.28001580003183,455.6534366000327,s,0,1.3629466999555007,1362.9466999555007,454.28001580003183,455.6534366000327,455.6624634000473,456.90353549997087,EMOCONPILOT003,2020_Dec_30_1304,EmoCon_Pilot_120Hz,2020.2.4,120.26921069094792,
,,,,1,0,1,0,1,0,1,0,,,,,,,,,,,,,,,,,,,,,,,,,,,,,,,,,,,,,,,,,,,,,,1,9.0,f,021_o_f_n_a.jpg,neutral,s,2,2,456.90901019994635,457.20355869996126,457.4517177999951,457.46880780000936,457.46910560003016,457.50477110004283,457.504917299957,458.3166046999744,s,1,0.8019749000668526,801.9749000668526,457.504917299957,458.3166046999744,458.3240333000431,459.98694510004714,EMOCONPILOT003,2020_Dec_30_1304,EmoCon_Pilot_120Hz,2020.2.4,120.26921069094792,
,,,,1,0,1,0,2,0,2,0,,,,,,,,,,,,,,,,,,,,,,,,,,,,,,,,,,,,,,,,,,,,,,2,11.0,f,030_o_f_s_a.jpg,sad,a,17,2,459.99102670000866,460.2869564999477,460.489055300015,460.64784060003,460.6516120999586,460.6889942000038,460.69226020004135,461.34779349997405,a,1,0.6388279000530019,638.8279000530019,460.69226020004135,461.34779349997405,461.357624999946,463.0370234999922,EMOCONPILOT003,2020_Dec_30_1304,EmoCon_Pilot_120Hz,2020.2.4,120.26921069094792,
,,,,1,0,1,0,3,0,3,0,,,,,,,,,,,,,,,,,,,,,,,,,,,,,,,,,,,,,,,,,,,,,,3,10.0,f,028_y_f_s_a.jpg,sad,a,17,2,463.0411108999979,463.33699679995186,463.3579880000325,463.4889194999472,463.49306859995704,463.5337847000104,463.53867399995215,464.3186852999846,a,1,0.7684739000396803,768.4739000396803,463.53867399995215,464.3186852999846,464.33056879998185,466.2954566999455,EMOCONPILOT003,2020_Dec_30_1304,EmoCon_Pilot_120Hz,2020.2.4,120.26921069094792,
,,,,1,0,1,0,4,0,4,0,,,,,,,,,,,,,,,,,,,,,,,,,,,,,,,,,,,,,,,,,,,,,,4,6.0,m,033_o_m_n_a.jpg,neutral,s,17,2,466.2996984999627,466.59538760004796,466.7903768999968,466.9514215999865,466.9562682999531,466.9969055999885,467.00218269997276,467.786111800035,a,0,0.7765679000876844,776.5679000876844,467.00218269997276,467.786111800035,467.78966050001327,469.1288448999752,EMOCONPILOT003,2020_Dec_30_1304,EmoCon_Pilot_120Hz,2020.2.4,120.26921069094792,
,,,,1,0,1,0,5,0,5,0,,,,,,,,,,,,,,,,,,,,,,,,,,,,,,,,,,,,,,,,,,,,,,5,1.0,m,004_o_m_n_a.jpg,neutral,s,2,2,469.1342865000479,469.42888970001366,469.6272413999541,469.64481290002584,469.6473871000344,469.68754069999557,469.69255659997,471.36085189998846,None,0,,,469.69255659997,471.36085189998846,471.3656511999434,473.19546059999846,EMOCONPILOT003,2020_Dec_30_1304,EmoCon_Pilot_120Hz,2020.2.4,120.26921069094792,
,,,,1,0,1,0,6,0,6,0,,,,,,,,,,,,,,,,,,,,,,,,,,,,,,,,,,,,,,,,,,,,,,6,12.0,f,040_y_f_s_a.jpg,sad,a,2,2,473.19838349998463,473.4955738999764,473.51827140001114,473.5338439999963,473.5340212000301,473.57173430003456,473.571874700021,475.17883230004225,s,0,1.5990061999764293,1599.0061999764293,473.571874700021,475.17883230004225,475.18735350004863,476.50395600000627,EMOCONPILOT003,2020_Dec_30_1304,EmoCon_Pilot_120Hz,2020.2.4,120.26921069094792,
,,,,1,0,1,0,7,0,7,0,,,,,,,,,,,,,,,,,,,,,,,,,,,,,,,,,,,,,,,,,,,,,,7,9.0,f,021_o_f_n_a.jpg,neutral,s,2,2,476.5088046999881,476.80395899995926,477.0190786999883,477.036112200038,477.0366638000123,477.0717266999767,477.0717915999703,477.93690070001173,s,1,0.8511471999809146,851.1471999809146,477.0717915999703,477.93690070001173,477.94516410003416,479.820736,EMOCONPILOT003,2020_Dec_30_1304,EmoCon_Pilot_120Hz,2020.2.4,120.26921069094792,
,,,,1,0,1,0,8,0,8,0,,,,,,,,,,,,,,,,,,,,,,,,,,,,,,,,,,,,,,,,,,,,,,8,9.0,f,021_o_f_s_a.jpg,sad,a,17,2,479.82484909996856,480.12072359995216,480.1332912000362,480.2640260999673,480.2672241999535,480.3053034999524,480.30986809998285,482.01630709999006,None,0,,,480.30986809998285,482.01630709999006,482.0195585000329,483.7208711000043,EMOCONPILOT003,2020_Dec_30_1304,EmoCon_Pilot_120Hz,2020.2.4,120.26921069094792,
,,,,1,0,1,0,9,0,9,0,,,,,,,,,,,,,,,,,,,,,,,,,,,,,,,,,,,,,,,,,,,,,,9,4.0,m,016_y_m_s_a.jpg,sad,a,2,2,483.7259458999615,484.0208855000441,484.04553829994984,484.0607846000115,484.0616152000148,484.09733840000115,484.0969365000492,485.389960899984,s,0,1.2822332999203354,1282.2332999203354,484.0969365000492,485.389960899984,485.402307500015,486.42084930002454,EMOCONPILOT003,2020_Dec_30_1304,EmoCon_Pilot_120Hz,2020.2.4,120.26921069094792,
,,,,1,0,1,0,10,0,10,0,,,,,,,,,,,,,,,,,,,,,,,,,,,,,,,,,,,,,,,,,,,,,,10,7.0,f,012_o_f_n_a.jpg,neutral,s,17,2,486.4258272999432,486.72084270002085,486.9396281000227,487.1035235999501,487.10800929996185,487.1481223999639,487.15306799998507,487.92529309998497,s,1,0.7621062999824062,762.1062999824062,487.15306799998507,487.92529309998497,487.9329078999581,489.8542385000386,EMOCONPILOT003,2020_Dec_30_1304,EmoCon_Pilot_120Hz,2020.2.4,120.26921069094792,
,,,,1,0,1,0,11,0,11,0,,,,,,,,,,,,,,,,,,,,,,,,,,,,,,,,,,,,,,,,,,,,,,11,2.0,m,008_y_m_n_a.jpg,neutral,s,17,2,489.8585597999627,490.154252899962,490.38978970004246,490.54861740003105,490.55341080005746,490.59179340003755,490.5950198000064,491.25421269998185,s,1,0.6479916999815032,647.9916999815032,490.5950198000064,491.25421269998185,491.265712399967,492.8459922999958,EMOCONPILOT003,2020_Dec_30_1304,EmoCon_Pilot_120Hz,2020.2.4,120.26921069094792,
,,,,1,0,1,0,12,0,12,0,,,,,,,,,,,,,,,,,,,,,,,,,,,,,,,,,,,,,,,,,,,,,,12,1.0,m,004_o_m_s_a.jpg,sad,a,2,2,492.847553199972,493.1460278999642,493.17003399995156,493.18517700004156,493.18586710002273,493.2220874999533,493.2222031999845,494.3306641000439,s,0,1.0929655999643728,1092.9655999643728,493.2222031999845,494.3306641000439,494.3414575000061,495.7710141999763,EMOCONPILOT003,2020_Dec_30_1304,EmoCon_Pilot_120Hz,2020.2.4,120.26921069094792,
,,,,1,0,1,0,13,0,13,0,,,,,,,,,,,,,,,,,,,,,,,,,,,,,,,,,,,,,,,,,,,,,,13,7.0,f,012_o_f_h_a.jpg,happy,d,17,2,495.7751483999891,496.07102199996586,496.09108469996136,496.22269050000466,496.2275744000217,496.2682007999741,496.2735841999529,496.92377439994596,d,1,0.6415159000316635,641.5159000316635,496.2735841999529,496.92377439994596,496.9355945000425,498.3628662999603,EMOCONPILOT003,2020_Dec_30_1304,EmoCon_Pilot_120Hz,2020.2.4,120.26921069094792,
,,,,1,0,1,0,14,0,14,0,,,,,,,,,,,,,,,,,,,,,,,,,,,,,,,,,,,,,,,,,,,,,,14,3.0,m,013_y_m_h_a.jpg,happy,d,17,2,498.36882900004275,498.66288670004576,498.89793670002837,499.05309800003886,499.0565739000449,499.0974637000239,499.102507899981,499.64053949996594,d,1,0.5247762000653893,524.7762000653893,499.102507899981,499.64053949996594,499.6513411999913,501.55453520003937,EMOCONPILOT003,2020_Dec_30_1304,EmoCon_Pilot_120Hz,2020.2.4,120.26921069094792,
,,,,1,0,1,0,15,0,15,0,,,,,,,,,,,,,,,,,,,,,,,,,,,,,,,,,,,,,,,,,,,,,,15,11.0,f,030_o_f_n_a.jpg,neutral,s,17,2,501.56008229998406,501.8545390999992,502.0496041000588,502.2098697000532,502.214935899945,502.255842900055,502.2610272000311,502.99401729999806,s,1,0.7179861000040546,717.9861000040546,502.2610272000311,502.99401729999806,503.0037679000525,504.9380177000188,EMOCONPILOT003,2020_Dec_30_1304,EmoCon_Pilot_120Hz,2020.2.4,120.26921069094792,
,,,,1,0,1,0,16,0,16,0,,,,,,,,,,,,,,,,,,,,,,,,,,,,,,,,,,,,,,,,,,,,,,16,3.0,m,013_y_m_n_a.jpg,neutral,s,2,2,504.943115400034,505.2379367000307,505.4623439999996,505.47850819994926,505.4791508000344,505.5139475999516,505.51377600000706,506.24901770000577,s,1,0.7210764000192285,721.0764000192285,505.51377600000706,506.24901770000577,506.25312120001763,507.3712879999424,EMOCONPILOT003,2020_Dec_30_1304,EmoCon_Pilot_120Hz,2020.2.4,120.26921069094792,
,,,,1,0,1,0,17,0,17,0,,,,,,,,,,,,,,,,,,,,,,,,,,,,,,,,,,,,,,,,,,,,,,17,9.0,f,021_o_f_h_a.jpg,happy,d,2,2,507.37555949995294,507.67128619997527,507.88428770005703,507.90195170001823,507.9022559999721,507.9391998000559,507.9392672999529,508.68243319998726,d,1,0.7360464000375941,736.0464000375941,507.9392672999529,508.68243319998726,508.6939492999809,510.4797155999462,EMOCONPILOT003,2020_Dec_30_1304,EmoCon_Pilot_120Hz,2020.2.4,120.26921069094792,
,,,,1,0,1,0,18,0,18,0,,,,,,,,,,,,,,,,,,,,,,,,,,,,,,,,,,,,,,,,,,,,,,18,3.0,m,013_y_m_s_a.jpg,sad,a,17,2,510.4853624999523,510.7796769000473,510.80250790005084,510.9424151999759,510.94690169999376,510.9873811999918,510.99253789999057,512.3623654999886,s,0,1.362657899968326,1362.657899968326,510.99253789999057,512.3623654999886,512.3721078999806,513.5797073999769,EMOCONPILOT003,2020_Dec_30_1304,EmoCon_Pilot_120Hz,2020.2.4,120.26921069094792,
,,,,1,0,1,0,19,0,19,0,,,,,,,,,,,,,,,,,,,,,,,,,,,,,,,,,,,,,,,,,,,,,,19,10.0,f,028_y_f_h_a.jpg,happy,d,17,2,513.5858079999452,513.8798687999719,513.9032622999512,514.0396417000214,514.0428841999965,514.080974799965,514.0840235999785,514.7559745000093,d,1,0.6629511999199167,662.9511999199167,514.0840235999785,514.7559745000093,514.7671375999926,515.9549483999493,EMOCONPILOT003,2020_Dec_30_1304,EmoCon_Pilot_120Hz,2020.2.4,120.26921069094792,
,,,,1,0,1,0,20,0,20,0,,,,,,,,,,,,,,,,,,,,,,,,,,,,,,,,,,,,,,,,,,,,,,20,4.0,m,016_y_m_h_a.jpg,happy,d,2,2,515.9589222000213,516.2547745999531,516.2757671000436,516.2911342999781,516.2920378999552,516.326644900057,516.326894100057,517.3098403000389,d,1,0.9720729000400752,972.0729000400752,516.326894100057,517.3098403000389,517.3173454999924,519.2550124000176,EMOCONPILOT003,2020_Dec_30_1304,EmoCon_Pilot_120Hz,2020.2.4,120.26921069094792,
,,,,1,0,1,0,21,0,21,0,,,,,,,,,,,,,,,,,,,,,,,,,,,,,,,,,,,,,,,,,,,,,,21,6.0,m,033_o_m_h_a.jpg,happy,d,17,2,519.2605964000104,519.5550104000489,519.5773567999713,519.7148619999992,519.7196641999763,519.7603243999532,519.7655471999897,520.3768547999556,d,1,0.5974573000567034,597.4573000567034,519.7655471999897,520.3768547999556,520.387677700026,522.3465772000258,EMOCONPILOT003,2020_Dec_30_1304,EmoCon_Pilot_120Hz,2020.2.4,120.26921069094792,
,,,,1,0,1,0,22,0,22,0,,,,,,,,,,,,,,,,,,,,,,,,,,,,,,,,,,,,,,,,,,,,,,22,5.0,m,027_o_m_s_a.jpg,sad,a,2,2,522.3506076999474,522.6465673999977,522.6629667000379,522.6780098999501,522.6799777999986,522.7144561000517,522.7161671000067,524.3316380000091,None,0,,,522.7161671000067,524.3316380000091,524.3355513999704,526.321737699944,EMOCONPILOT003,2020_Dec_30_1304,EmoCon_Pilot_120Hz,2020.2.4,120.26921069094792,
,,,,1,0,1,0,23,0,23,0,,,,,,,,,,,,,,,,,,,,,,,,,,,,,,,,,,,,,,,,,,,,,,23,10.0,f,028_y_f_n_a.jpg,neutral,s,2,2,526.3271540000569,526.6218336000223,526.8370998000028,526.853546100005,526.8541801000247,526.8896973999566,526.8911585999886,528.465173000039,None,0,,,526.8911585999886,528.465173000039,528.469043900026,529.7134683999815,EMOCONPILOT003,2020_Dec_30_1304,EmoCon_Pilot_120Hz,2020.2.4,120.26921069094792,
,,,,1,0,1,0,24,0,24,0,,,,,,,,,,,,,,,,,,,,,,,,,,,,,,,,,,,,,,,,,,,,,,24,9.0,f,021_o_f_n_a.jpg,neutral,s,17,2,529.7188035000581,530.013482500019,530.2207299000584,530.3803314000019,530.3856991999783,530.4260746999993,530.4314041000325,531.4067600999609,s,1,0.9637956999940798,963.7956999940798,530.4314041000325,531.4067600999609,531.4181744999951,533.1635377999977,EMOCONPILOT003,2020_Dec_30_1304,EmoCon_Pilot_120Hz,2020.2.4,120.26921069094792,
,,,,1,0,1,0,25,0,25,0,,,,,,,,,,,,,,,,,,,,,,,,,,,,,,,,,,,,,,,,,,,,,,25,8.0,f,019_m_f_h_a.jpg,happy,d,2,2,533.1688524000347,533.4635836000438,533.4875632999465,533.5038667000248,533.5076970000518,533.5478904999676,533.553190000006,534.2140319999656,d,1,0.6499664000002667,649.9664000002667,533.553190000006,534.2140319999656,534.2254745999817,535.5552393000456,EMOCONPILOT003,2020_Dec_30_1304,EmoCon_Pilot_120Hz,2020.2.4,120.26921069094792,
,,,,1,0,1,0,26,0,26,0,,,,,,,,,,,,,,,,,,,,,,,,,,,,,,,,,,,,,,,,,,,,,,26,4.0,m,016_y_m_n_a.jpg,neutral,s,2,2,535.5606375000207,535.855324700044,536.0834327000193,536.1004774000379,536.1014621000504,536.1368715999764,536.1367788000498,537.3795320999692,s,1,1.2342993998900056,1234.2993998900056,536.1367788000498,537.3795320999692,537.3909020000137,538.9304044000222,EMOCONPILOT003,2020_Dec_30_1304,EmoCon_Pilot_120Hz,2020.2.4,120.26921069094792,
,,,,1,0,1,0,27,0,27,0,,,,,,,,,,,,,,,,,,,,,,,,,,,,,,,,,,,,,,,,,,,,,,27,1.0,m,004_o_m_h_a.jpg,happy,d,2,2,538.9360494000139,539.2303272999474,539.4221988000209,539.4393048000405,539.43970550003,539.4749026999692,539.4750044000102,540.8763746000244,d,1,1.39202699996531,1392.02699996531,539.4750044000102,540.8763746000244,540.8859116999665,541.9388018000521,EMOCONPILOT003,2020_Dec_30_1304,EmoCon_Pilot_120Hz,2020.2.4,120.26921069094792,
,,,,1,0,1,0,28,0,28,0,,,,,,,,,,,,,,,,,,,,,,,,,,,,,,,,,,,,,,,,,,,,,,28,10.0,f,028_y_f_s_a.jpg,sad,a,17,2,541.9447283999762,542.2387486000429,542.255350899999,542.3905199000495,542.3937372999499,542.4327445000293,542.4361900000367,543.1656308999867,a,1,0.7189330999972299,718.9330999972299,542.4361900000367,543.1656308999867,543.1781143000117,544.697106599959,EMOCONPILOT003,2020_Dec_30_1304,EmoCon_Pilot_120Hz,2020.2.4,120.26921069094792,
,,,,1,0,1,0,29,0,29,0,,,,,,,,,,,,,,,,,,,,,,,,,,,,,,,,,,,,,,,,,,,,,,29,5.0,m,027_o_m_h_a.jpg,happy,d,17,2,544.7031286000274,544.9972314000246,545.213763799984,545.3750789000536,545.379594399943,545.4204290999681,545.4248021000531,546.0136249000556,d,1,0.5783873999025673,578.3873999025673,545.4248021000531,546.0136249000556,546.0253442999674,547.9221797000267,EMOCONPILOT003,2020_Dec_30_1304,EmoCon_Pilot_120Hz,2020.2.4,120.26921069094792,
,,,,1,0,1,0,30,0,30,0,,,,,,,,,,,,,,,,,,,,,,,,,,,,,,,,,,,,,,,,,,,,,,30,10.0,f,028_y_f_h_a.jpg,happy,d,2,2,547.927598600043,548.2222415999626,548.2470816000132,548.262385400047,548.2631654000143,548.2983262000256,548.2997661000118,549.2111854999442,d,1,0.9036256999243051,903.6256999243051,548.2997661000118,549.2111854999442,549.2225028000539,550.9389555000583,EMOCONPILOT003,2020_Dec_30_1304,EmoCon_Pilot_120Hz,2020.2.4,120.26921069094792,
,,,,1,0,1,0,31,0,31,0,,,,,,,,,,,,,,,,,,,,,,,,,,,,,,,,,,,,,,,,,,,,,,31,5.0,m,027_o_m_h_a.jpg,happy,d,2,2,550.9432846000418,551.2388713000458,551.4522975999862,551.4688591000507,551.4688767000334,551.5067626999574,551.5065675999504,552.8142040999722,d,1,1.296374100027606,1296.374100027606,551.5065675999504,552.8142040999722,552.8187172999606,553.9473247999907,EMOCONPILOT003,2020_Dec_30_1304,EmoCon_Pilot_120Hz,2020.2.4,120.26921069094792,
,,,,1,0,1,0,32,0,32,0,,,,,,,,,,,,,,,,,,,,,,,,,,,,,,,,,,,,,,,,,,,,,,32,9.0,f,021_o_f_n_a.jpg,neutral,s,17,2,553.9514858999755,554.247226199985,554.4612733999966,554.6212238000356,554.6257369000232,554.6665172999841,554.6715894000372,555.360552500037,s,1,0.6753483999054879,675.3483999054879,554.6715894000372,555.360552500037,555.3662153000478,556.463972599979,EMOCONPILOT003,2020_Dec_30_1304,EmoCon_Pilot_120Hz,2020.2.4,120.26921069094792,
,,,,1,0,1,0,33,0,33,0,,,,,,,,,,,,,,,,,,,,,,,,,,,,,,,,,,,,,,,,,,,,,,33,3.0,m,013_y_m_s_a.jpg,sad,a,2,2,556.4679683999857,556.7639747000416,556.7794004000025,556.7946107000229,556.7949246000499,556.8318312999676,556.8327426000033,557.9052180999773,s,0,1.0583322000456974,1058.3322000456974,556.8327426000033,557.9052180999773,557.9135863999836,559.8974171999492,EMOCONPILOT003,2020_Dec_30_1304,EmoCon_Pilot_120Hz,2020.2.4,120.26921069094792,
,,,,1,0,1,0,34,0,34,0,,,,,,,,,,,,,,,,,,,,,,,,,,,,,,,,,,,,,,,,,,,,,,34,1.0,m,004_o_m_n_a.jpg,neutral,s,17,2,559.9022468000185,560.1974267999525,560.4051219000248,560.570519199979,560.5751981999492,560.6161762000178,560.6214289000491,562.3554524999694,a,0,1.7259531000163406,1725.9531000163406,560.6214289000491,562.3554524999694,562.3675228999928,564.3558757000486,EMOCONPILOT003,2020_Dec_30_1304,EmoCon_Pilot_120Hz,2020.2.4,120.26921069094792,
,,,,1,0,1,0,35,0,35,0,,,,,,,,,,,,,,,,,,,,,,,,,,,,,,,,,,,,,,,,,,,,,,35,12.0,f,040_y_f_h_a.jpg,happy,d,2,2,564.3598503000103,564.6558174000005,564.6790867999662,564.6941873999662,564.694384100032,564.7320904999855,564.7322084000334,565.563292400015,d,1,0.8149733999744058,814.9733999744058,564.7322084000334,565.563292400015,565.5714292000048,566.6059260999667,EMOCONPILOT003,2020_Dec_30_1304,EmoCon_Pilot_120Hz,2020.2.4,120.26921069094792,
,,,,1,0,1,0,36,0,36,0,,,,,,,,,,,,,,,,,,,,,,,,,,,,,,,,,,,,,,,,,,,,,,36,10.0,f,028_y_f_n_a.jpg,neutral,s,17,2,566.6113310999935,566.9059405000065,567.2192074999912,567.384352600004,567.3880865999963,567.4289030999993,567.4336930999998,568.1148988999543,s,1,0.665490600047633,665.490600047633,567.4336930999998,568.1148988999543,568.1254416999873,569.8393427000032,EMOCONPILOT003,2020_Dec_30_1304,EmoCon_Pilot_120Hz,2020.2.4,120.26921069094792,
,,,,1,0,1,0,37,0,37,0,,,,,,,,,,,,,,,,,,,,,,,,,,,,,,,,,,,,,,,,,,,,,,37,11.0,f,030_o_f_n_a.jpg,neutral,s,17,2,569.8445996999508,570.1393953999853,570.338047199999,570.4990648000152,570.503709499957,570.544384800049,570.5495669000084,571.2646150000277,s,1,0.7014316000277176,701.4316000277176,570.5495669000084,571.2646150000277,571.2729177000001,573.1977054999792,EMOCONPILOT003,2020_Dec_30_1304,EmoCon_Pilot_120Hz,2020.2.4,120.26921069094792,
,,,,1,0,1,0,38,0,38,0,,,,,,,,,,,,,,,,,,,,,,,,,,,,,,,,,,,,,,,,,,,,,,38,1.0,m,004_o_m_h_a.jpg,happy,d,17,2,573.2026533000171,573.4977040000143,573.6974807999795,573.8544913999852,573.8576640000101,573.894613900024,573.8978139000246,574.4019056000164,d,1,0.4973368999781087,497.3368999781087,573.8978139000246,574.4019056000164,574.4153016000055,575.5644377000048,EMOCONPILOT003,2020_Dec_30_1304,EmoCon_Pilot_120Hz,2020.2.4,120.26921069094792,
,,,,1,0,1,0,39,0,39,0,,,,,,,,,,,,,,,,,,,,,,,,,,,,,,,,,,,,,,,,,,,,,,39,6.0,m,033_o_m_h_a.jpg,happy,d,17,2,575.5695932999952,575.8644524000468,575.8871726000216,576.0244522999623,576.0282752000494,576.0657239000196,576.0698798999656,576.6652802999946,d,1,0.5810494000324979,581.0494000324979,576.0698798999656,576.6652802999946,576.6686744999606,577.9312394999782,EMOCONPILOT003,2020_Dec_30_1304,EmoCon_Pilot_120Hz,2020.2.4,120.26921069094792,
,,,,1,0,1,0,40,0,40,0,,,,,,,,,,,,,,,,,,,,,,,,,,,,,,,,,,,,,,,,,,,,,,40,7.0,f,012_o_f_h_a.jpg,happy,d,2,2,577.9366935000289,578.2312192999874,578.2555572000565,578.270791400026,578.271450900007,578.3073022000375,578.3081914000213,578.8899468999938,d,1,0.5749638999113813,574.9638999113813,578.3081914000213,578.8899468999938,578.8973764999537,580.6562662000418,EMOCONPILOT003,2020_Dec_30_1304,EmoCon_Pilot_120Hz,2020.2.4,120.26921069094792,
,,,,1,0,1,0,41,0,41,0,,,,,,,,,,,,,,,,,,,,,,,,,,,,,,,,,,,,,,,,,,,,,,41,6.0,m,033_o_m_n_a.jpg,neutral,s,17,2,580.6603691000491,580.9562487999559,581.1616932000034,581.3207308999612,581.3255102999974,581.3654369999771,581.3706624000333,582.659132599982,s,1,1.280675599933602,1280.675599933602,581.3706624000333,582.659132599982,582.6709852999775,584.0312511000433,EMOCONPILOT003,2020_Dec_30_1304,EmoCon_Pilot_120Hz,2020.2.4,120.26921069094792,
,,,,1,0,1,0,42,0,42,0,,,,,,,,,,,,,,,,,,,,,,,,,,,,,,,,,,,,,,,,,,,,,,42,7.0,f,012_o_f_h_a.jpg,happy,d,17,2,584.0350581000093,584.3313022000133,584.3463801000034,584.4828870999976,584.4870302999625,584.5277720999787,584.5323141999543,585.213399900042,d,1,0.6708770000841469,670.8770000841469,584.5323141999543,585.213399900042,585.2249773000367,587.1396222999668,EMOCONPILOT003,2020_Dec_30_1304,EmoCon_Pilot_120Hz,2020.2.4,120.26921069094792,
,,,,1,0,1,0,43,0,43,0,,,,,,,,,,,,,,,,,,,,,,,,,,,,,,,,,,,,,,,,,,,,,,43,5.0,m,027_o_m_h_a.jpg,happy,d,17,2,587.1438225000165,587.4396725000464,587.6481255999533,587.8077119000139,587.8113302000565,587.8515835999627,587.8556402999675,588.4231945999549,d,1,0.555631999974139,555.631999974139,587.8556402999675,588.4231945999549,588.4334500000114,590.3147637000424,EMOCONPILOT003,2020_Dec_30_1304,EmoCon_Pilot_120Hz,2020.2.4,120.26921069094792,
,,,,1,0,1,0,44,0,44,0,,,,,,,,,,,,,,,,,,,,,,,,,,,,,,,,,,,,,,,,,,,,,,44,10.0,f,028_y_f_s_a.jpg,sad,a,17,2,590.3201243999647,590.6147959999856,590.6310998999979,590.7663777999463,590.7698745999951,590.8093230999424,590.8137272000313,592.090416300029,s,0,1.2694189000176266,1269.4189000176266,590.8137272000313,592.090416300029,592.1021195000503,593.3647789999726,EMOCONPILOT003,2020_Dec_30_1304,EmoCon_Pilot_120Hz,2020.2.4,120.26921069094792,
,,,,1,0,1,0,45,0,45,0,,,,,,,,,,,,,,,,,,,,,,,,,,,,,,,,,,,,,,,,,,,,,,45,7.0,f,012_o_f_n_a.jpg,neutral,s,2,2,593.3687783000059,593.6648781999596,593.8859070000472,593.9036861999542,593.9036598999519,593.941059900017,593.941005300032,594.9389407999464,s,1,0.9900247999466956,990.0247999466956,593.941005300032,594.9389407999464,594.9494043999584,596.2482679000008,EMOCONPILOT003,2020_Dec_30_1304,EmoCon_Pilot_120Hz,2020.2.4,120.26921069094792,
,,,,1,0,1,0,46,0,46,0,,,,,,,,,,,,,,,,,,,,,,,,,,,,,,,,,,,,,,,,,,,,,,46,1.0,m,004_o_m_n_a.jpg,neutral,s,2,2,596.2522881999612,596.5482117999694,596.7457424999448,596.7628838000004,596.7633752999827,596.7994601000449,596.7994209999451,597.8586328999721,s,1,1.0437289000255987,1043.7289000255987,596.7994209999451,597.8586328999721,597.8653772999533,599.7316331999958,EMOCONPILOT003,2020_Dec_30_1304,EmoCon_Pilot_120Hz,2020.2.4,120.26921069094792,
,,,,1,0,1,0,47,0,47,0,,,,,,,,,,,,,,,,,,,,,,,,,,,,,,,,,,,,,,,,,,,,,,47,9.0,f,021_o_f_h_a.jpg,happy,d,2,2,599.7368979000021,600.0317300999653,600.2435734999599,600.2608693000278,600.2638960999902,600.3009237000136,600.3042778000236,601.0262943000183,d,1,0.7069604999851435,706.9604999851435,600.3042778000236,601.0262943000183,601.0377060000319,602.6483487000572,EMOCONPILOT003,2020_Dec_30_1304,EmoCon_Pilot_120Hz,2020.2.4,120.26921069094792,
,,,,1,0,1,0,48,0,48,0,,,,,,,,,,,,,,,,,,,,,,,,,,,,,,,,,,,,,,,,,,,,,,48,10.0,f,028_y_f_n_a.jpg,neutral,s,17,2,602.653975400026,602.9483703000354,603.1496305000037,603.3054035000154,603.3093313999707,603.3499710000236,603.3548998000333,604.3816892999806,s,1,1.0161503999261186,1016.1503999261186,603.3548998000333,604.3816892999806,604.3901491999859,605.490045000019,EMOCONPILOT003,2020_Dec_30_1304,EmoCon_Pilot_120Hz,2020.2.4,120.26921069094792,
,,,,1,0,1,0,49,0,49,0,,,,,,,,,,,,,,,,,,,,,,,,,,,,,,,,,,,,,,,,,,,,,,49,7.0,f,012_o_f_h_a.jpg,happy,d,2,2,605.4961322000017,605.7901033000438,605.8159957999596,605.831333000015,605.8320147000486,605.867994000006,605.8683068000246,606.472903399996,d,1,0.5908060999354348,590.8060999354348,605.8683068000246,606.472903399996,606.4814139000373,607.8318866000394,EMOCONPILOT003,2020_Dec_30_1304,EmoCon_Pilot_120Hz,2020.2.4,120.26921069094792,
,,,,1,0,1,0,50,0,50,0,,,,,,,,,,,,,,,,,,,,,,,,,,,,,,,,,,,,,,,,,,,,,,50,5.0,m,027_o_m_h_a.jpg,happy,d,2,2,607.83748560003,608.1316876999684,608.3491575999651,608.3663641000516,608.3669757000171,608.4026688000071,608.4024794000434,609.0457549000042,d,1,0.6326850999612361,632.6850999612361,608.4024794000434,609.0457549000042,609.057322000037,610.2234838999924,EMOCONPILOT003,2020_Dec_30_1304,EmoCon_Pilot_120Hz,2020.2.4,120.26921069094792,
,,,,1,0,1,0,51,0,51,0,,,,,,,,,,,,,,,,,,,,,,,,,,,,,,,,,,,,,,,,,,,,,,51,12.0,f,040_y_f_n_a.jpg,neutral,s,17,2,610.2288198999595,610.5234862000565,610.7420894999523,610.9023253999534,610.9056192999706,610.9424843000364,610.9457846999867,612.1371101000462,s,1,1.177231700043194,1177.231700043194,610.9457846999867,612.1371101000462,612.1454555999953,613.8152742999722,EMOCONPILOT003,2020_Dec_30_1304,EmoCon_Pilot_120Hz,2020.2.4,120.26921069094792,
,,,,1,0,1,0,52,0,52,0,,,,,,,,,,,,,,,,,,,,,,,,,,,,,,,,,,,,,,,,,,,,,,52,2.0,m,008_y_m_h_a.jpg,happy,d,17,2,613.8205715999939,614.1153261999483,614.1380077999784,614.2752244000206,614.280133799999,614.3207037999877,614.3260201000376,614.9461160999839,d,1,0.6051234999904409,605.1234999904409,614.3260201000376,614.9461160999839,614.9567273999564,616.8987698000041,EMOCONPILOT003,2020_Dec_30_1304,EmoCon_Pilot_120Hz,2020.2.4,120.26921069094792,
,,,,1,0,1,0,53,0,53,0,,,,,,,,,,,,,,,,,,,,,,,,,,,,,,,,,,,,,,,,,,,,,,53,6.0,m,033_o_m_h_a.jpg,happy,d,17,2,616.9041189999552,617.1986628000508,617.2208460000111,617.3586088000214,617.3629573000362,617.4038343000342,617.4088127999566,617.9360154000227,d,1,0.514240000047721,514.240000047721,617.4088127999566,617.9360154000227,617.9390301000094,619.8154071000521,EMOCONPILOT003,2020_Dec_30_1304,EmoCon_Pilot_120Hz,2020.2.4,120.26921069094792,
,,,,1,0,1,0,54,0,54,0,,,,,,,,,,,,,,,,,,,,,,,,,,,,,,,,,,,,,,,,,,,,,,54,2.0,m,008_y_m_h_a.jpg,happy,d,2,2,619.8209359999746,620.1153958000126,620.1356180999428,620.1506544000353,620.1514571999433,620.1859705000301,620.1854787999764,620.6909674000111,d,1,0.49758209998253733,497.58209998253733,620.1854787999764,620.6909674000111,620.6984547999455,621.9238082999713,EMOCONPILOT003,2020_Dec_30_1304,EmoCon_Pilot_120Hz,2020.2.4,120.26921069094792,
,,,,1,0,1,0,55,0,55,0,,,,,,,,,,,,,,,,,,,,,,,,,,,,,,,,,,,,,,,,,,,,,,55,12.0,f,040_y_f_h_a.jpg,happy,d,17,2,621.9278976999922,622.2237541999551,622.249093899969,622.3837216999731,622.387247000006,622.4249376999563,622.4285064999713,622.8908598999609,d,1,0.4466750000137836,446.6750000137836,622.4285064999713,622.8908598999609,622.9008412000258,624.082211599953,EMOCONPILOT003,2020_Dec_30_1304,EmoCon_Pilot_120Hz,2020.2.4,120.26921069094792,
,,,,1,0,1,0,56,0,56,0,,,,,,,,,,,,,,,,,,,,,,,,,,,,,,,,,,,,,,,,,,,,,,56,10.0,f,028_y_f_n_a.jpg,neutral,s,17,2,624.087728500017,624.3821382000227,624.6035083000315,624.757213100011,624.7619927000487,624.7994096000097,624.8025057000341,625.5990304999635,s,1,0.7846206999383867,784.6206999383867,624.8025057000341,625.5990304999635,625.6084416999947,627.2156110999989,EMOCONPILOT003,2020_Dec_30_1304,EmoCon_Pilot_120Hz,2020.2.4,120.26921069094792,
,,,,1,0,1,0,57,0,57,0,,,,,,,,,,,,,,,,,,,,,,,,,,,,,,,,,,,,,,,,,,,,,,57,12.0,f,040_y_f_s_a.jpg,sad,a,17,2,627.221578800003,627.5156381000182,627.5318846999435,627.6671125999768,627.6703094999539,627.7085396000533,627.7118470000569,628.3987567000207,a,1,0.6752869000192732,675.2869000192732,627.7118470000569,628.3987567000207,628.4109290000051,629.8572777000139,EMOCONPILOT003,2020_Dec_30_1304,EmoCon_Pilot_120Hz,2020.2.4,120.26921069094792,
,,,,1,0,1,0,58,0,58,0,,,,,,,,,,,,,,,,,,,,,,,,,,,,,,,,,,,,,,,,,,,,,,58,5.0,m,027_o_m_n_a.jpg,neutral,s,17,2,629.8579483999638,630.1572345999651,630.3743302000221,630.5362326000235,630.539795299992,630.5808812999516,630.5858979000477,631.5810737000196,s,1,0.9853919999441132,985.3919999441132,630.5858979000477,631.5810737000196,631.5926961000077,632.8074522000155,EMOCONPILOT003,2020_Dec_30_1304,EmoCon_Pilot_120Hz,2020.2.4,120.26921069094792,
,,,,1,0,1,0,59,0,59,0,,,,,,,,,,,,,,,,,,,,,,,,,,,,,,,,,,,,,,,,,,,,,,59,4.0,m,016_y_m_s_a.jpg,sad,a,17,2,632.8130076000234,633.1073249000241,633.1342100000475,633.267258800019,633.2698163000168,633.3084678999497,633.3109446000308,634.0054867000202,a,1,0.6841011999640614,684.1011999640614,633.3109446000308,634.0054867000202,634.0139115999918,635.6323706000461,EMOCONPILOT003,2020_Dec_30_1304,EmoCon_Pilot_120Hz,2020.2.4,120.26921069094792,
,,,,1,0,1,0,60,0,60,0,,,,,,,,,,,,,,,,,,,,,,,,,,,,,,,,,,,,,,,,,,,,,,60,5.0,m,027_o_m_n_a.jpg,neutral,s,2,2,635.6366125999484,635.9324778999784,636.1458066999912,636.1631039999542,636.1661562999943,636.2043463000213,636.2083201999776,637.8594758999883,None,0,,,636.2083201999776,637.8594758999883,637.8645083999727,639.8407854000455,EMOCONPILOT003,2020_Dec_30_1304,EmoCon_Pilot_120Hz,2020.2.4,120.26921069094792,
,,,,1,0,1,0,61,0,61,0,,,,,,,,,,,,,,,,,,,,,,,,,,,,,,,,,,,,,,,,,,,,,,61,10.0,f,028_y_f_s_a.jpg,sad,a,17,2,639.8460799000459,640.1407922000275,640.1639189999551,640.3007930999505,640.3041331999702,640.3419870999991,640.3456239999505,641.0116700999555,a,1,0.6574320000363514,657.4320000363514,640.3456239999505,641.0116700999555,641.0211652000435,642.8407996000373,EMOCONPILOT003,2020_Dec_30_1304,EmoCon_Pilot_120Hz,2020.2.4,120.26921069094792,
,,,,1,0,1,0,62,0,62,0,,,,,,,,,,,,,,,,,,,,,,,,,,,,,,,,,,,,,,,,,,,,,,62,3.0,m,013_y_m_n_a.jpg,neutral,s,17,2,642.8447407999774,643.1408253000467,643.3765197000466,643.5423261999734,643.547210299992,643.5879699000274,643.5932843999472,644.2752423000405,s,1,0.6740895999828354,674.0895999828354,643.5932843999472,644.2752423000405,644.2867274000309,646.1576319999643,EMOCONPILOT003,2020_Dec_30_1304,EmoCon_Pilot_120Hz,2020.2.4,120.26921069094792,
,,,,1,0,1,0,63,0,63,0,,,,,,,,,,,,,,,,,,,,,,,,,,,,,,,,,,,,,,,,,,,,,,63,4.0,m,016_y_m_s_a.jpg,sad,a,17,2,646.1631665000459,646.4576310000033,646.4805388000095,646.6175894999527,646.6225226999959,646.6631224999786,646.6684687000234,647.3376837999443,a,1,0.654674299992621,654.674299992621,646.6684687000234,647.3376837999443,647.3480908999918,648.6576779999654,EMOCONPILOT003,2020_Dec_30_1304,EmoCon_Pilot_120Hz,2020.2.4,120.26921069094792,
,,,,1,0,1,0,64,0,64,0,,,,,,,,,,,,,,,,,,,,,,,,,,,,,,,,,,,,,,,,,,,,,,64,12.0,f,040_y_f_h_a.jpg,happy,d,17,2,648.663052399992,648.957693700015,648.980651000049,649.1176087999833,649.1209835000336,649.158925000031,649.1622452000156,649.8349332999554,d,1,0.657009300077334,657.009300077334,649.1622452000156,649.8349332999554,649.8450599999633,651.2409982999437,EMOCONPILOT003,2020_Dec_30_1304,EmoCon_Pilot_120Hz,2020.2.4,120.26921069094792,
,,,,1,0,1,0,65,0,65,0,,,,,,,,,,,,,,,,,,,,,,,,,,,,,,,,,,,,,,,,,,,,,,65,5.0,m,027_o_m_n_a.jpg,neutral,s,17,2,651.2450638000155,651.5410169000155,651.7623732000357,651.9247522000572,651.9294598000124,651.9702761000138,651.9738462000387,652.6855568000232,s,1,0.7013435999397188,701.3435999397188,651.9738462000387,652.6855568000232,652.6972873000195,654.3911025999463,EMOCONPILOT003,2020_Dec_30_1304,EmoCon_Pilot_120Hz,2020.2.4,120.26921069094792,
,,,,1,0,1,0,66,0,66,0,,,,,,,,,,,,,,,,,,,,,,,,,,,,,,,,,,,,,,,,,,,,,,66,6.0,m,033_o_m_s_a.jpg,sad,a,2,2,654.3957606999902,654.6910900000133,654.7117881999584,654.727527800051,654.7281715000281,654.7629467000137,654.7626869999804,656.4777620999724,s,0,1.7046559000154957,1704.6559000154957,654.7626869999804,656.4777620999724,656.4897031000583,657.9828796000569,EMOCONPILOT003,2020_Dec_30_1304,EmoCon_Pilot_120Hz,2020.2.4,120.26921069094792,
,,,,1,0,1,0,67,0,67,0,,,,,,,,,,,,,,,,,,,,,,,,,,,,,,,,,,,,,,,,,,,,,,67,6.0,m,033_o_m_h_a.jpg,happy,d,2,2,657.9882201000582,658.2829774000332,658.2982021999778,658.3130241999519,658.3138135999907,658.3507005999912,658.351598600042,659.0897530999849,d,1,0.723575200070627,723.575200070627,658.351598600042,659.0897530999849,659.1010046999436,660.9329954999615,EMOCONPILOT003,2020_Dec_30_1304,EmoCon_Pilot_120Hz,2020.2.4,120.26921069094792,
,,,,1,0,1,0,68,0,68,0,,,,,,,,,,,,,,,,,,,,,,,,,,,,,,,,,,,,,,,,,,,,,,68,2.0,m,008_y_m_s_a.jpg,sad,a,17,2,660.9372204999672,661.2328897000174,661.5254151000408,661.6939766999916,661.698630800005,661.7397854000213,661.7447843999835,662.3236903000274,a,1,0.5624299000483006,562.4299000483006,661.7447843999835,662.3236903000274,662.3333513999823,664.2913435000577,EMOCONPILOT003,2020_Dec_30_1304,EmoCon_Pilot_120Hz,2020.2.4,120.26921069094792,
,,,,1,0,1,0,69,0,69,0,,,,,,,,,,,,,,,,,,,,,,,,,,,,,,,,,,,,,,,,,,,,,,69,1.0,m,004_o_m_n_a.jpg,neutral,s,17,2,664.297487200005,664.5913396999589,664.7801243000431,664.9473471000441,664.9522141000489,664.9930537999957,664.9981235000305,666.290380799945,a,0,1.2772067999467254,1277.2067999467254,664.9981235000305,666.290380799945,666.3008363000117,667.9829936999944,EMOCONPILOT003,2020_Dec_30_1304,EmoCon_Pilot_120Hz,2020.2.4,120.26921069094792,
,,,,1,0,1,0,70,0,70,0,,,,,,,,,,,,,,,,,,,,,,,,,,,,,,,,,,,,,,,,,,,,,,70,2.0,m,008_y_m_s_a.jpg,sad,a,2,2,667.9830211000517,668.2831007000408,668.5250636000419,668.5416861999896,668.5418524000561,668.576300799998,668.5759653999703,670.1136781999725,a,1,1.5231914999894798,1523.1914999894798,668.5759653999703,670.1136781999725,670.1234120000154,671.174904400052,EMOCONPILOT003,2020_Dec_30_1304,EmoCon_Pilot_120Hz,2020.2.4,120.26921069094792,
,,,,1,0,1,0,71,0,71,0,,,,,,,,,,,,,,,,,,,,,,,,,,,,,,,,,,,,,,,,,,,,,,71,11.0,f,030_o_f_n_a.jpg,neutral,s,17,2,671.1803823000519,671.4749339999747,671.6808270999463,671.840894499945,671.8455924999435,671.8869449999532,671.8922801000299,672.5040836000466,s,1,0.5986326999263838,598.6326999263838,671.8922801000299,672.5040836000466,672.5077087000245,674.0415481999866,EMOCONPILOT003,2020_Dec_30_1304,EmoCon_Pilot_120Hz,2020.2.4,120.26921069094792,
,,,,1,0,1,0,72,0,72,0,,,,,,,,,,,,,,,,,,,,,,,,,,,,,,,,,,,,,,,,,,,,,,72,11.0,f,030_o_f_n_a.jpg,neutral,s,2,2,674.0468807000434,674.341607100016,674.5335031000432,674.5510113999829,674.5544498000527,674.5914159999578,674.5967412999598,676.25275609995,s,1,1.6464145000791177,1646.4145000791177,674.5967412999598,676.25275609995,676.2631444999715,677.9332424999797,EMOCONPILOT003,2020_Dec_30_1304,EmoCon_Pilot_120Hz,2020.2.4,120.26921069094792,
,,,,1,0,1,0,73,0,73,0,,,,,,,,,,,,,,,,,,,,,,,,,,,,,,,,,,,,,,,,,,,,,,73,2.0,m,008_y_m_s_a.jpg,sad,a,17,2,677.9371082000434,678.2332559000118,678.4643974000355,678.6200105999945,678.6237370000454,678.6646770000574,678.6696905000135,679.1865413999534,a,1,0.5095117000164464,509.5117000164464,678.6696905000135,679.1865413999534,679.1985615999438,681.0416544999811,EMOCONPILOT003,2020_Dec_30_1304,EmoCon_Pilot_120Hz,2020.2.4,120.26921069094792,
,,,,1,0,1,0,74,0,74,0,,,,,,,,,,,,,,,,,,,,,,,,,,,,,,,,,,,,,,,,,,,,,,74,11.0,f,030_o_f_n_a.jpg,neutral,s,17,2,681.0458025999833,681.341638600023,681.5485587000148,681.7169918000349,681.7215529000387,681.7622568999999,681.766684900038,682.3693524999893,s,1,0.5885644999798387,588.5644999798387,681.766684900038,682.3693524999893,682.3806121000089,684.3000743999495,EMOCONPILOT003,2020_Dec_30_1304,EmoCon_Pilot_120Hz,2020.2.4,120.26921069094792,
,,,,1,0,1,0,75,0,75,0,,,,,,,,,,,,,,,,,,,,,,,,,,,,,,,,,,,,,,,,,,,,,,75,1.0,m,004_o_m_s_a.jpg,sad,a,2,2,684.3042644000379,684.6000673000584,684.6171407999936,684.6321886000572,684.6325367999962,684.668582699995,684.6681684999494,686.3999462999985,None,0,,,684.6681684999494,686.3999462999985,686.4086611999664,687.916837699979,EMOCONPILOT003,2020_Dec_30_1304,EmoCon_Pilot_120Hz,2020.2.4,120.26921069094792,
,,,,1,0,1,0,76,0,76,0,,,,,,,,,,,,,,,,,,,,,,,,,,,,,,,,,,,,,,,,,,,,,,76,3.0,m,013_y_m_n_a.jpg,neutral,s,2,2,687.9229581999825,688.2168555000447,688.4545176000101,688.4718431999557,688.4755727000302,688.5120068999589,688.51512310002,690.1422151000355,None,0,,,688.51512310002,690.1422151000355,690.1423609999474,692.1003380000242,EMOCONPILOT003,2020_Dec_30_1304,EmoCon_Pilot_120Hz,2020.2.4,120.26921069094792,
,,,,1,0,1,0,77,0,77,0,,,,,,,,,,,,,,,,,,,,,,,,,,,,,,,,,,,,,,,,,,,,,,77,7.0,f,012_o_f_s_a.jpg,sad,a,2,2,692.1059043999994,692.4003480000305,692.424911799957,692.4398916999693,692.4408009999897,692.4779064000235,692.4793829000555,694.117305099999,None,0,,,692.4793829000555,694.117305099999,694.123143899953,695.6171051999903,EMOCONPILOT003,2020_Dec_30_1304,EmoCon_Pilot_120Hz,2020.2.4,120.26921069094792,
,,,,1,0,1,0,78,0,78,0,,,,,,,,,,,,,,,,,,,,,,,,,,,,,,,,,,,,,,,,,,,,,,78,12.0,f,040_y_f_n_a.jpg,neutral,s,2,2,695.6224575999659,695.9170049999724,696.1693089000182,696.1860745000071,696.1869139999617,696.2219434000202,696.221540599945,697.266562799958,s,1,1.0296810999279842,1029.6810999279842,696.221540599945,697.266562799958,697.2732430000324,698.5004292000434,EMOCONPILOT003,2020_Dec_30_1304,EmoCon_Pilot_120Hz,2020.2.4,120.26921069094792,
,,,,1,0,1,0,79,0,79,0,,,,,,,,,,,,,,,,,,,,,,,,,,,,,,,,,,,,,,,,,,,,,,79,6.0,m,033_o_m_h_a.jpg,happy,d,17,2,698.506862499984,698.8004221000359,698.820568599971,698.9519738000002,698.9561070000054,698.9944036000292,698.9975749000441,699.5781696000253,d,1,0.5655109999934211,565.5109999934211,698.9975749000441,699.5781696000253,699.5865287999623,700.5920913999784,EMOCONPILOT003,2020_Dec_30_1304,EmoCon_Pilot_120Hz,2020.2.4,120.26921069094792,
,,,,1,0,1,0,80,0,80,0,,,,,,,,,,,,,,,,,,,,,,,,,,,,,,,,,,,,,,,,,,,,,,80,2.0,m,008_y_m_n_a.jpg,neutral,s,2,2,700.5962661999511,700.8921436999575,701.1309485000093,701.1472678999766,701.1480652999599,701.1849654999445,701.1852140000556,702.5146013000398,s,1,1.314013000112027,1314.013000112027,701.1852140000556,702.5146013000398,702.5227092000423,703.7255026999977,EMOCONPILOT003,2020_Dec_30_1304,EmoCon_Pilot_120Hz,2020.2.4,120.26921069094792,
,,,,1,0,1,0,81,0,81,0,,,,,,,,,,,,,,,,,,,,,,,,,,,,,,,,,,,,,,,,,,,,,,81,12.0,f,040_y_f_h_a.jpg,happy,d,2,2,703.7314456000458,704.0255299000186,704.0518850999651,704.0673675999627,704.0678658999968,704.1040434999508,704.1038821999682,704.7948359999922,d,1,0.6755045000463724,675.5045000463724,704.1038821999682,704.7948359999922,704.8038970000343,706.7839726000442,EMOCONPILOT003,2020_Dec_30_1304,EmoCon_Pilot_120Hz,2020.2.4,120.26921069094792,
,,,,1,0,1,0,82,0,82,0,,,,,,,,,,,,,,,,,,,,,,,,,,,,,,,,,,,,,,,,,,,,,,82,9.0,f,021_o_f_h_a.jpg,happy,d,2,2,706.7895205999957,707.0840098000248,707.3231041999534,707.33984549999,707.3426806000061,707.3822651000577,707.3878144000191,708.0227395999594,d,1,0.6233442999655381,623.3442999655381,707.3878144000191,708.0227395999594,708.0323353999993,709.2922479999601,EMOCONPILOT003,2020_Dec_30_1304,EmoCon_Pilot_120Hz,2020.2.4,120.26921069094792,
,,,,1,0,1,0,83,0,83,0,,,,,,,,,,,,,,,,,,,,,,,,,,,,,,,,,,,,,,,,,,,,,,83,6.0,m,033_o_m_h_a.jpg,happy,d,17,2,709.2964339000173,709.5922296999837,709.6121221999638,709.743898400024,709.7479962999932,709.7867624999839,709.7908524000086,710.1649556999677,d,1,0.36428970005363226,364.28970005363226,709.7908524000086,710.1649556999677,710.1756664999994,711.7506172999623,EMOCONPILOT003,2020_Dec_30_1304,EmoCon_Pilot_120Hz,2020.2.4,120.26921069094792,
,,,,1,0,1,0,84,0,84,0,,,,,,,,,,,,,,,,,,,,,,,,,,,,,,,,,,,,,,,,,,,,,,84,2.0,m,008_y_m_n_a.jpg,neutral,s,2,2,711.7535324000055,712.0506890999735,712.3000543999951,712.3165369000402,712.3202176999766,712.3569876000169,712.3623348999536,713.5625712999957,a,0,1.1927418999839574,1192.7418999839574,712.3623348999536,713.5625712999957,713.570888999966,714.6840839999844,EMOCONPILOT003,2020_Dec_30_1304,EmoCon_Pilot_120Hz,2020.2.4,120.26921069094792,
,,,,1,0,1,0,85,0,85,0,,,,,,,,,,,,,,,,,,,,,,,,,,,,,,,,,,,,,,,,,,,,,,85,10.0,f,028_y_f_n_a.jpg,neutral,s,2,2,714.6882897999603,714.984061099973,715.1954145999625,715.2122284999699,715.2155613000505,715.2532379000098,715.2577696000226,716.3850345999584,s,1,1.1137351000215858,1113.7351000215858,715.2577696000226,716.3850345999584,716.3959836000577,717.6340813000337,EMOCONPILOT003,2020_Dec_30_1304,EmoCon_Pilot_120Hz,2020.2.4,120.26921069094792,
,,,,1,0,1,0,86,0,86,0,,,,,,,,,,,,,,,,,,,,,,,,,,,,,,,,,,,,,,,,,,,,,,86,6.0,m,033_o_m_h_a.jpg,happy,d,2,2,717.6370996000478,717.9341564999544,717.9508744999766,717.96579339999,717.9665355000179,718.0033329000347,718.0047741000308,718.6288332000025,d,1,0.6143181999213994,614.3181999213994,718.0047741000308,718.6288332000025,718.6361805000342,720.3091747999773,EMOCONPILOT003,2020_Dec_30_1304,EmoCon_Pilot_120Hz,2020.2.4,120.26921069094792,
,,,,1,0,1,0,87,0,87,0,,,,,,,,,,,,,,,,,,,,,,,,,,,,,,,,,,,,,,,,,,,,,,87,5.0,m,027_o_m_s_a.jpg,sad,a,17,2,720.3134017999982,720.6091708999942,720.6313416999765,720.7691190999816,720.7725684000179,720.8134558999794,720.8187403000193,721.4902316000429,a,1,0.6564956000074744,656.4956000074744,720.8187403000193,721.4902316000429,721.5000277999789,723.3342691000202,EMOCONPILOT003,2020_Dec_30_1304,EmoCon_Pilot_120Hz,2020.2.4,120.26921069094792,
,,,,1,0,1,0,88,0,88,0,,,,,,,,,,,,,,,,,,,,,,,,,,,,,,,,,,,,,,,,,,,,,,88,7.0,f,012_o_f_s_a.jpg,sad,a,17,2,723.3396625999594,723.6343294999446,723.6612727999454,723.794147199986,723.7971538000274,723.8354644000414,723.8393934000051,724.4070703999954,a,1,0.5558696000371128,555.8696000371128,723.8393934000051,724.4070703999954,724.4171244000318,726.1177455999772,EMOCONPILOT003,2020_Dec_30_1304,EmoCon_Pilot_120Hz,2020.2.4,120.26921069094792,
,,,,1,0,1,0,89,0,89,0,,,,,,,,,,,,,,,,,,,,,,,,,,,,,,,,,,,,,,,,,,,,,,89,2.0,m,008_y_m_h_a.jpg,happy,d,2,2,726.1229969999986,726.4177213999559,726.4338492000243,726.4491487000254,726.449780600029,726.4855538000469,726.4871204999508,727.5409704000107,s,0,1.0440412999596447,1044.0412999596447,726.4871204999508,727.5409704000107,727.5492013000185,728.634436000057,EMOCONPILOT003,2020_Dec_30_1304,EmoCon_Pilot_120Hz,2020.2.4,120.26921069094792,
,,,,1,0,1,0,90,0,90,0,,,,,,,,,,,,,,,,,,,,,,,,,,,,,,,,,,,,,,,,,,,,,,90,7.0,f,012_o_f_h_a.jpg,happy,d,17,2,728.6387766000116,728.9343492000247,728.9543553000549,729.0859811000176,729.090430399985,729.1307826999458,729.1360002999427,729.6455889999983,d,1,0.4991888999938965,499.1888999938965,729.1360002999427,729.6455889999983,729.656047699973,730.7260379999992,EMOCONPILOT003,2020_Dec_30_1304,EmoCon_Pilot_120Hz,2020.2.4,120.26921069094792,
,,,,1,0,1,0,91,0,91,0,,,,,,,,,,,,,,,,,,,,,,,,,,,,,,,,,,,,,,,,,,,,,,91,10.0,f,028_y_f_s_a.jpg,sad,a,17,2,730.7300928999903,731.0261377999908,731.0463174999459,731.1776582999504,731.1818957000505,731.2196684000431,731.2241082000546,731.676701499999,a,1,0.44302919995971024,443.02919995971024,731.2241082000546,731.676701499999,731.6839765999466,733.4262050999445,EMOCONPILOT003,2020_Dec_30_1304,EmoCon_Pilot_120Hz,2020.2.4,120.26921069094792,
,,,,1,0,1,0,92,0,92,0,,,,,,,,,,,,,,,,,,,,,,,,,,,,,,,,,,,,,,,,,,,,,,92,12.0,f,040_y_f_s_a.jpg,sad,a,2,2,733.4322290000273,733.7261597999953,733.7490975999972,733.7639378999942,733.7645852999995,733.8023164000246,733.8021722000558,734.853129099973,s,0,1.0409629000350833,1040.9629000350833,733.8021722000558,734.853129099973,734.8603963999776,736.6929465999477,EMOCONPILOT003,2020_Dec_30_1304,EmoCon_Pilot_120Hz,2020.2.4,120.26921069094792,
,,,,1,0,1,0,93,0,93,0,,,,,,,,,,,,,,,,,,,,,,,,,,,,,,,,,,,,,,,,,,,,,,93,2.0,m,008_y_m_n_a.jpg,neutral,s,17,2,736.6983511999715,736.9928868000046,737.2445808999473,737.4092353999498,737.4138244000496,737.4553261000314,737.4597781000193,738.4578980000573,s,1,0.9833443999523297,983.3443999523297,737.4597781000193,738.4578980000573,738.4645439999877,740.0013820999651,EMOCONPILOT003,2020_Dec_30_1304,EmoCon_Pilot_120Hz,2020.2.4,120.26921069094792,
,,,,1,0,1,0,94,0,94,0,,,,,,,,,,,,,,,,,,,,,,,,,,,,,,,,,,,,,,,,,,,,,,94,11.0,f,030_o_f_s_a.jpg,sad,a,17,2,740.0065671999473,740.3013799999957,740.5032594000222,740.6610618000035,740.6656342999777,740.7060542999883,740.7114298000233,741.2292733999551,a,1,0.5079124999465421,507.9124999465421,740.7114298000233,741.2292733999551,741.2410289000254,743.1013870999799,EMOCONPILOT003,2020_Dec_30_1304,EmoCon_Pilot_120Hz,2020.2.4,120.26921069094792,
,,,,1,0,1,0,95,0,95,0,,,,,,,,,,,,,,,,,,,,,,,,,,,,,,,,,,,,,,,,,,,,,,95,9.0,f,021_o_f_n_a.jpg,neutral,s,17,2,743.1069268999854,743.40144610001,743.6088057999732,743.7694468000321,743.7739632000448,743.8111708000419,743.8142398999771,744.812384199968,s,1,0.9891390999546275,989.1390999546275,743.8142398999771,744.812384199968,744.8239010999678,745.8264004000579,EMOCONPILOT003,2020_Dec_30_1304,EmoCon_Pilot_120Hz,2020.2.4,120.26921069094792,
