trials_example.thisRepN,trials_example.thisTrialN,trials_example.thisN,trials_example.thisIndex,block.thisRepN,block.thisTrialN,block.thisN,block.thisIndex,trials_study.thisRepN,trials_study.thisTrialN,trials_study.thisN,trials_study.thisIndex,text_welcome.started,text_welcome.stopped,text_intro.started,text_intro.stopped,key_resp_intro.keys,key_resp_intro.started,key_resp_intro.stopped,text_intro2.started,text_intro2.stopped,key_resp_intro2.keys,key_resp_intro2.rt,key_resp_intro2.started,key_resp_intro2.stopped,example trial,personPrimeExample,genderPrimeExample,primeExample,emotionPrimeExample,corrAnsPrimeExample,example mask time,fix300_example.started,fix300_example.stopped,image_primer_example.started,image_primer_example.stopped,scrambled.started,scrambled.stopped,text_response_example.started,text_response_example.stopped,key_resp_example.keys,key_resp_example.corr,key_resp_example.started,key_resp_example.stopped,Jitter_example.started,Jitter_example.stopped,key_resp_example.rt,key_resp_example.rt in ms,text_start.started,text_start.stopped,text_pause.started,text_pause.stopped,key_resp_pause.keys,key_resp_pause.rt,key_resp_pause.rt in ms,key_resp_pause.started,key_resp_pause.stopped,study trial,personPrimeStudy,genderPrimeStudy,primeStudy,emotionPrimeStudy,corrAnsPrimeStudy,study mask time,Block,fix300_study.started,fix300_study.stopped,image_primer_study.started,image_primer_study.stopped,scrambled_study.started,scrambled_study.stopped,text_response_study.started,text_response_study.stopped,key_resp_study.keys,key_resp_study.corr,key_resp_study.started,key_resp_study.stopped,Jitter_study.started,Jitter_study.stopped,key_resp_study.rt,key_resp_study.rt in ms,participant,date,expName,psychopyVersion,frameRate,
,,,,,,,,,,,,564.8150207999861,567.8001714999555,567.8048096999992,573.4882524999557,None,567.8048096999992,573.4882524999557,,,,,,,,,,,,,,,,,,,,,,,,,,,,,,,,,,,,,,,,,,,,,,,,,,,,,,,,,,,,,,,EMOCONPILOT007,2020_Dec_30_1509,EmoCon_Pilot_120Hz,2020.2.4,119.81414427901761,
,,,,,,,,,,,,,,,,,,,573.4905925999628,576.5390299999854,a,3.034907800029032,573.4905925999628,576.5390299999854,,,,,,,,,,,,,,,,,,,,,,,,,,,,,,,,,,,,,,,,,,,,,,,,,,,,,,,,,EMOCONPILOT007,2020_Dec_30_1509,EmoCon_Pilot_120Hz,2020.2.4,119.81414427901761,
0,0,0,0,,,,,,,,,,,,,,,,,,,,,,0,3.0,f,1113_y_f_s_a.jpg,sad,a,17,576.5453792000189,576.8335828999989,577.6851722999709,577.8469008000102,577.8675744000357,577.9020559999626,577.9023698000237,579.5883285999298,None,0,577.9023698000237,579.5883285999298,579.5887214000104,581.1004132999806,,,,,,,,,,,,,,,,,,,,,,,,,,,,,,,,,,,,EMOCONPILOT007,2020_Dec_30_1509,EmoCon_Pilot_120Hz,2020.2.4,119.81414427901761,
1,0,1,0,,,,,,,,,,,,,,,,,,,,,,1,1.0,m,1111_m_m_s_a.jpg,sad,a,17,581.1026569999522,581.400416099932,581.6143719999818,581.773187499959,581.7742927999934,581.8121487000026,581.814477799926,583.5517226000084,None,0,581.814477799926,583.5517226000084,583.5544342999347,585.2005015999312,,,,,,,,,,,,,,,,,,,,,,,,,,,,,,,,,,,,EMOCONPILOT007,2020_Dec_30_1509,EmoCon_Pilot_120Hz,2020.2.4,119.81414427901761,
2,0,2,0,,,,,,,,,,,,,,,,,,,,,,2,3.0,f,1113_y_f_n_a.jpg,neutral,s,3,585.2019790000049,585.5005299999611,585.7056398999412,585.7316954999696,585.7346993000247,585.7754941999447,585.7783582999837,587.6073600000236,None,0,585.7783582999837,587.6073600000236,587.6101595000364,588.9589395000366,,,,,,,,,,,,,,,,,,,,,,,,,,,,,,,,,,,,EMOCONPILOT007,2020_Dec_30_1509,EmoCon_Pilot_120Hz,2020.2.4,119.81414427901761,
3,0,3,0,,,,,,,,,,,,,,,,,,,,,,3,2.0,f,1112_m_f_h_a.jpg,happy,d,17,588.9603155000368,589.2589355999371,589.4540568999946,589.6158939999295,589.618618199951,589.6585259999847,589.661694200011,590.8445814999286,d,1,589.661694200011,590.8445814999286,590.8474320999812,591.8922151000006,1.16785870003514,1167.85870003514,,,,,,,,,,,,,,,,,,,,,,,,,,,,,,,,,,EMOCONPILOT007,2020_Dec_30_1509,EmoCon_Pilot_120Hz,2020.2.4,119.81414427901761,
4,0,4,0,,,,,,,,,,,,,,,,,,,,,,4,2.0,f,1112_m_f_n_a.jpg,neutral,s,17,591.893314099987,592.192209300003,592.3986072000116,592.5605605000164,592.5631188999396,592.6042124000378,592.607316599926,594.2801490999991,None,0,592.607316599926,594.2801490999991,594.2811862999806,595.4590218999656,,,,,,,,,,,,,,,,,,,,,,,,,,,,,,,,,,,,EMOCONPILOT007,2020_Dec_30_1509,EmoCon_Pilot_120Hz,2020.2.4,119.81414427901761,
,,,,0,0,0,0,0,0,0,0,,,,,,,,,,,,,,,,,,,,,,,,,,,,,,,,,,,,,595.5089335000375,598.5007322999882,598.5035406999523,600.8527982999803,a,2.3420767999486998,2342.0767999486998,598.5035406999523,600.8527982999803,0,8.0,f,019_m_f_s_a.jpg,sad,a,3,1,600.8589536999352,601.1506973999785,602.031160500017,602.058097400004,602.0625211999286,602.1029684999958,602.1102329000132,603.7247074999614,None,0,602.1102329000132,603.7247074999614,603.7307523000054,605.4675219999626,,,EMOCONPILOT007,2020_Dec_30_1509,EmoCon_Pilot_120Hz,2020.2.4,119.81414427901761,
,,,,0,0,0,0,1,0,1,0,,,,,,,,,,,,,,,,,,,,,,,,,,,,,,,,,,,,,,,,,,,,,,1,6.0,m,033_o_m_n_a.jpg,neutral,s,3,1,605.472815199988,605.7674951000372,605.9761823000154,606.0020166999893,606.0024364999263,606.0378720000153,606.0384723999305,607.1324965000385,d,0,606.0384723999305,607.1324965000385,607.1437517999439,608.8093408999266,1.0793677000328898,1079.3677000328898,EMOCONPILOT007,2020_Dec_30_1509,EmoCon_Pilot_120Hz,2020.2.4,119.81414427901761,
,,,,0,0,0,0,2,0,2,0,,,,,,,,,,,,,,,,,,,,,,,,,,,,,,,,,,,,,,,,,,,,,,2,2.0,m,008_y_m_s_a.jpg,sad,a,17,1,608.8135536999907,609.1093144000042,609.3585241000401,609.5162840000121,609.520831599948,609.5620185999433,609.566542699933,610.9670238000108,a,1,609.566542699933,610.9670238000108,610.9732875999762,612.4759922999656,1.3909045999171212,1390.9045999171212,EMOCONPILOT007,2020_Dec_30_1509,EmoCon_Pilot_120Hz,2020.2.4,119.81414427901761,
,,,,0,0,0,0,3,0,3,0,,,,,,,,,,,,,,,,,,,,,,,,,,,,,,,,,,,,,,,,,,,,,,3,11.0,f,030_o_f_h_a.jpg,happy,d,3,1,612.4802989999298,612.7759926000144,612.9771334000397,613.0055143999634,613.0090129999444,613.0498561999993,613.0549339000136,614.0708278999664,d,1,613.0549339000136,614.0708278999664,614.076668499969,615.8759610999841,1.0065127999987453,1006.5127999987453,EMOCONPILOT007,2020_Dec_30_1509,EmoCon_Pilot_120Hz,2020.2.4,119.81414427901761,
,,,,0,0,0,0,4,0,4,0,,,,,,,,,,,,,,,,,,,,,,,,,,,,,,,,,,,,,,,,,,,,,,4,11.0,f,030_o_f_s_a.jpg,sad,a,17,1,615.878834299976,616.1760915999766,616.4014277999522,616.5532073000213,616.5532677000156,616.5896399000194,616.5895387999481,618.1294209000189,a,1,616.5895387999481,618.1294209000189,618.1412310999585,619.3261220999993,1.5280360000906512,1528.0360000906512,EMOCONPILOT007,2020_Dec_30_1509,EmoCon_Pilot_120Hz,2020.2.4,119.81414427901761,
,,,,0,0,0,0,5,0,5,0,,,,,,,,,,,,,,,,,,,,,,,,,,,,,,,,,,,,,,,,,,,,,,5,11.0,f,030_o_f_s_a.jpg,sad,a,3,1,619.3303785999306,619.626122299931,619.8309869000223,619.8586072999751,619.8628107999684,619.9026468000375,619.9078901000321,621.7398535000393,None,0,619.9078901000321,621.7398535000393,621.7470824000193,623.6595763999503,,,EMOCONPILOT007,2020_Dec_30_1509,EmoCon_Pilot_120Hz,2020.2.4,119.81414427901761,
,,,,0,0,0,0,6,0,6,0,,,,,,,,,,,,,,,,,,,,,,,,,,,,,,,,,,,,,,,,,,,,,,6,5.0,m,027_o_m_n_a.jpg,neutral,s,3,1,623.6650119000115,623.9595702999504,624.1766551999608,624.2023592999903,624.2030251999386,624.2385495000053,624.2403227000032,625.2678056999575,s,1,624.2403227000032,625.2678056999575,625.2770064999349,627.1679903999902,1.0132478000596166,1013.2478000596166,EMOCONPILOT007,2020_Dec_30_1509,EmoCon_Pilot_120Hz,2020.2.4,119.81414427901761,
,,,,0,0,0,0,7,0,7,0,,,,,,,,,,,,,,,,,,,,,,,,,,,,,,,,,,,,,,,,,,,,,,7,8.0,f,019_m_f_n_a.jpg,neutral,s,3,1,627.1736394999316,627.467993499944,627.7095519999275,627.7361111999489,627.7367584999884,627.7714858999243,627.7719749000389,628.8198651999701,s,1,627.7719749000389,628.8198651999701,628.825634400011,630.0348084999714,1.0335773000260815,1033.5773000260815,EMOCONPILOT007,2020_Dec_30_1509,EmoCon_Pilot_120Hz,2020.2.4,119.81414427901761,
,,,,0,0,0,0,8,0,8,0,,,,,,,,,,,,,,,,,,,,,,,,,,,,,,,,,,,,,,,,,,,,,,8,5.0,m,027_o_m_h_a.jpg,happy,d,17,1,630.0403836999321,630.33480219997,630.5543903999496,630.7169810000341,630.7217192000244,630.7623786999611,630.767630700022,631.6948943999596,d,1,630.767630700022,631.6948943999596,631.7032304999884,633.3014259999618,0.9179324000142515,917.9324000142515,EMOCONPILOT007,2020_Dec_30_1509,EmoCon_Pilot_120Hz,2020.2.4,119.81414427901761,
,,,,0,0,0,0,9,0,9,0,,,,,,,,,,,,,,,,,,,,,,,,,,,,,,,,,,,,,,,,,,,,,,9,8.0,f,019_m_f_n_a.jpg,neutral,s,3,1,633.3055668999441,633.6014234999893,633.843258799985,633.8693987999577,633.8697228999808,633.9045143999392,633.9049772999715,634.8865196999395,s,1,633.9049772999715,634.8865196999395,634.8938093000324,636.0515477999579,0.9725691999774426,972.5691999774426,EMOCONPILOT007,2020_Dec_30_1509,EmoCon_Pilot_120Hz,2020.2.4,119.81414427901761,
,,,,0,0,0,0,10,0,10,0,,,,,,,,,,,,,,,,,,,,,,,,,,,,,,,,,,,,,,,,,,,,,,10,11.0,f,030_o_f_h_a.jpg,happy,d,3,1,636.0570948999375,636.3515499000205,636.5582701000385,636.5846548000118,636.5851186999353,636.6219835999655,636.621721799951,637.6055542000104,d,1,636.621721799951,637.6055542000104,637.6143458000151,638.6183158999775,0.9681176000740379,968.1176000740379,EMOCONPILOT007,2020_Dec_30_1509,EmoCon_Pilot_120Hz,2020.2.4,119.81414427901761,
,,,,0,0,0,0,11,0,11,0,,,,,,,,,,,,,,,,,,,,,,,,,,,,,,,,,,,,,,,,,,,,,,11,3.0,m,013_y_m_s_a.jpg,sad,a,17,1,638.6226554999594,638.9182335999794,639.0192626999924,639.1532332999632,639.1565590000246,639.1955790999345,639.2007790999487,640.124918699963,a,1,639.2007790999487,640.124918699963,640.135168000008,641.134907700005,0.9169557000277564,916.9557000277564,EMOCONPILOT007,2020_Dec_30_1509,EmoCon_Pilot_120Hz,2020.2.4,119.81414427901761,
,,,,0,0,0,0,12,0,12,0,,,,,,,,,,,,,,,,,,,,,,,,,,,,,,,,,,,,,,,,,,,,,,12,12.0,f,040_y_f_n_a.jpg,neutral,s,3,1,641.1389571999898,641.4349095999496,641.6533336000284,641.6786572999554,641.6819361000089,641.719545800006,641.7246326999739,643.1244664000114,d,0,641.7246326999739,643.1244664000114,643.1298728999682,644.9517082000384,1.3849270000355318,1384.9270000355318,EMOCONPILOT007,2020_Dec_30_1509,EmoCon_Pilot_120Hz,2020.2.4,119.81414427901761,
,,,,0,0,0,0,13,0,13,0,,,,,,,,,,,,,,,,,,,,,,,,,,,,,,,,,,,,,,,,,,,,,,13,12.0,f,040_y_f_h_a.jpg,happy,d,17,1,644.9571034000255,645.2517713999841,645.2737916000187,645.4116915999912,645.4144413999747,645.4528399999253,645.4554840000346,645.901759600034,d,1,645.4554840000346,645.901759600034,645.9102211999707,647.6850451999344,0.4382987000280991,438.2987000280991,EMOCONPILOT007,2020_Dec_30_1509,EmoCon_Pilot_120Hz,2020.2.4,119.81414427901761,
,,,,0,0,0,0,14,0,14,0,,,,,,,,,,,,,,,,,,,,,,,,,,,,,,,,,,,,,,,,,,,,,,14,7.0,f,012_o_f_h_a.jpg,happy,d,3,1,647.6891029999824,647.9850549999392,648.008417999954,648.0308473999612,648.031494099996,648.0695987000363,648.0709902000381,648.8198717000196,d,1,648.0709902000381,648.8198717000196,648.8280742999632,650.6601147999754,0.7346934000961483,734.6934000961483,EMOCONPILOT007,2020_Dec_30_1509,EmoCon_Pilot_120Hz,2020.2.4,119.81414427901761,
,,,,0,0,0,0,15,0,15,0,,,,,,,,,,,,,,,,,,,,,,,,,,,,,,,,,,,,,,,,,,,,,,15,9.0,f,021_o_f_n_a.jpg,neutral,s,3,1,650.6654543000041,650.9602098999312,651.3756604000228,651.4020152000012,651.4027410999406,651.4367761999601,651.4364157000091,653.0371176999761,None,0,651.4364157000091,653.0371176999761,653.041871799971,654.601741499966,,,EMOCONPILOT007,2020_Dec_30_1509,EmoCon_Pilot_120Hz,2020.2.4,119.81414427901761,
,,,,0,0,0,0,16,0,16,0,,,,,,,,,,,,,,,,,,,,,,,,,,,,,,,,,,,,,,,,,,,,,,16,10.0,f,028_y_f_s_a.jpg,sad,a,17,1,654.6023251999868,654.9018708999502,654.9172129000071,655.0535437000217,655.057716100011,655.0987655000063,655.1038918999257,656.2939382999903,a,1,655.1038918999257,656.2939382999903,656.3052859000163,658.1353793999879,1.1739460999378935,1173.9460999378935,EMOCONPILOT007,2020_Dec_30_1509,EmoCon_Pilot_120Hz,2020.2.4,119.81414427901761,
,,,,0,0,0,0,17,0,17,0,,,,,,,,,,,,,,,,,,,,,,,,,,,,,,,,,,,,,,,,,,,,,,17,10.0,f,028_y_f_h_a.jpg,happy,d,17,1,658.1406998999882,658.4354202999966,658.4595939000137,658.5952300999779,658.5984182000393,658.6366253999295,658.6395223999862,659.183090699953,d,1,658.6395223999862,659.183090699953,659.1915739999386,660.9269952999894,0.5340269999578595,534.0269999578595,EMOCONPILOT007,2020_Dec_30_1509,EmoCon_Pilot_120Hz,2020.2.4,119.81414427901761,
,,,,0,0,0,0,18,0,18,0,,,,,,,,,,,,,,,,,,,,,,,,,,,,,,,,,,,,,,,,,,,,,,18,9.0,f,021_o_f_h_a.jpg,happy,d,3,1,660.9310366000282,661.2270000999561,661.4690719000064,661.4952565999702,661.496065699961,661.5301391000394,661.5298655999359,662.5899703999748,d,1,661.5298655999359,662.5899703999748,662.5995142000029,664.0854221000336,1.0517747000558302,1051.7747000558302,EMOCONPILOT007,2020_Dec_30_1509,EmoCon_Pilot_120Hz,2020.2.4,119.81414427901761,
,,,,0,0,0,0,19,0,19,0,,,,,,,,,,,,,,,,,,,,,,,,,,,,,,,,,,,,,,,,,,,,,,19,6.0,m,033_o_m_h_a.jpg,happy,d,3,1,664.0895755999954,664.3854514999548,664.4087536999723,664.4305429999949,664.4314649000298,664.4699959999416,664.4699017000385,665.4811882999493,d,1,664.4699017000385,665.4811882999493,665.4895696999738,667.2605753999669,0.999754499993287,999.754499993287,EMOCONPILOT007,2020_Dec_30_1509,EmoCon_Pilot_120Hz,2020.2.4,119.81414427901761,
,,,,0,0,0,0,20,0,20,0,,,,,,,,,,,,,,,,,,,,,,,,,,,,,,,,,,,,,,,,,,,,,,20,1.0,m,004_o_m_h_a.jpg,happy,d,3,1,667.264989099931,667.5605789999245,667.7693833999801,667.7964276999701,667.7965624999488,667.8328750999644,667.8331708000042,668.5286805999931,d,1,667.8331708000042,668.5286805999931,668.5361351999454,669.7356441000011,0.6843825000105426,684.3825000105426,EMOCONPILOT007,2020_Dec_30_1509,EmoCon_Pilot_120Hz,2020.2.4,119.81414427901761,
,,,,0,0,0,0,21,0,21,0,,,,,,,,,,,,,,,,,,,,,,,,,,,,,,,,,,,,,,,,,,,,,,21,2.0,m,008_y_m_s_a.jpg,sad,a,17,1,669.7415198000381,670.0356106000254,670.277948700008,670.4302883000346,670.4350419000257,670.4768165999558,670.4812603000319,671.6284034999553,a,1,670.4812603000319,671.6284034999553,671.6403687000275,673.3772206000285,1.1404500999487936,1140.4500999487936,EMOCONPILOT007,2020_Dec_30_1509,EmoCon_Pilot_120Hz,2020.2.4,119.81414427901761,
,,,,0,0,0,0,22,0,22,0,,,,,,,,,,,,,,,,,,,,,,,,,,,,,,,,,,,,,,,,,,,,,,22,4.0,m,016_y_m_s_a.jpg,sad,a,3,1,673.3814966999926,673.6772848999826,673.7035067999968,673.7263661000179,673.727008100017,673.7616700000362,673.7630554999923,675.377411799971,None,0,673.7630554999923,675.377411799971,675.3820855999365,676.3856686999789,,,EMOCONPILOT007,2020_Dec_30_1509,EmoCon_Pilot_120Hz,2020.2.4,119.81414427901761,
,,,,0,0,0,0,23,0,23,0,,,,,,,,,,,,,,,,,,,,,,,,,,,,,,,,,,,,,,,,,,,,,,23,8.0,f,019_m_f_h_a.jpg,happy,d,17,1,676.3899553000228,676.6856439999538,676.6959917999338,676.8292135000229,676.8296270000283,676.8703261000337,676.8695671999594,677.6844928000355,d,1,676.8695671999594,677.6844928000355,677.6950615999522,679.5274445000105,0.8002000000560656,800.2000000560656,EMOCONPILOT007,2020_Dec_30_1509,EmoCon_Pilot_120Hz,2020.2.4,119.81414427901761,
,,,,0,0,0,0,24,0,24,0,,,,,,,,,,,,,,,,,,,,,,,,,,,,,,,,,,,,,,,,,,,,,,24,8.0,f,019_m_f_h_a.jpg,happy,d,3,1,679.5330467999447,679.8274801999796,679.8516095000086,679.8742462999653,679.8749269000255,679.9118997999467,679.9127122999635,680.6557572999736,d,1,679.9127122999635,680.6557572999736,680.664149499964,682.1024677000241,0.7328655000310391,732.8655000310391,EMOCONPILOT007,2020_Dec_30_1509,EmoCon_Pilot_120Hz,2020.2.4,119.81414427901761,
,,,,0,0,0,0,25,0,25,0,,,,,,,,,,,,,,,,,,,,,,,,,,,,,,,,,,,,,,,,,,,,,,25,4.0,m,016_y_m_n_a.jpg,neutral,s,17,1,682.1066732000327,682.4025240000337,682.6567106000148,682.8171322999988,682.822051599971,682.8629978999961,682.8677203999832,683.6992435000138,s,1,682.8677203999832,683.6992435000138,683.7107978999848,685.0692141000181,0.8181596000213176,818.1596000213176,EMOCONPILOT007,2020_Dec_30_1509,EmoCon_Pilot_120Hz,2020.2.4,119.81414427901761,
,,,,0,0,0,0,26,0,26,0,,,,,,,,,,,,,,,,,,,,,,,,,,,,,,,,,,,,,,,,,,,,,,26,4.0,m,016_y_m_h_a.jpg,happy,d,3,1,685.0748068999965,685.3692330999766,685.3910216999939,685.4141825999832,685.4143350999802,685.4537541000172,685.4552412999328,686.582725699991,d,1,685.4552412999328,686.582725699991,686.594394100015,688.3192519999575,1.1185562000609934,1118.5562000609934,EMOCONPILOT007,2020_Dec_30_1509,EmoCon_Pilot_120Hz,2020.2.4,119.81414427901761,
,,,,0,0,0,0,27,0,27,0,,,,,,,,,,,,,,,,,,,,,,,,,,,,,,,,,,,,,,,,,,,,,,27,8.0,f,019_m_f_h_a.jpg,happy,d,17,1,688.3232571999542,688.619243199937,688.6446344000287,688.7791765999282,688.7823172999779,688.8204817000078,688.8206159999827,689.3666117999237,d,1,688.8206159999827,689.3666117999237,689.3745286000194,690.8777432999341,0.537091700010933,537.091700010933,EMOCONPILOT007,2020_Dec_30_1509,EmoCon_Pilot_120Hz,2020.2.4,119.81414427901761,
,,,,0,0,0,0,28,0,28,0,,,,,,,,,,,,,,,,,,,,,,,,,,,,,,,,,,,,,,,,,,,,,,28,8.0,f,019_m_f_s_a.jpg,sad,a,3,1,690.8839373999508,691.1777880999725,691.5373946999898,691.5637411000207,691.5644412999973,691.5998347999994,691.600489399978,693.1270897999639,a,1,691.600489399978,693.1270897999639,693.1355265999446,694.8277359999483,1.5171125999186188,1517.1125999186188,EMOCONPILOT007,2020_Dec_30_1509,EmoCon_Pilot_120Hz,2020.2.4,119.81414427901761,
,,,,0,0,0,0,29,0,29,0,,,,,,,,,,,,,,,,,,,,,,,,,,,,,,,,,,,,,,,,,,,,,,29,10.0,f,028_y_f_n_a.jpg,neutral,s,17,1,694.8328854999272,695.1277467999607,695.3350461999653,695.4940815999871,695.4988879000302,695.5389424000168,695.5441090000095,696.1652924999362,s,1,695.5441090000095,696.1652924999362,696.1757613000227,697.286131800036,0.6055844000075012,605.5844000075012,EMOCONPILOT007,2020_Dec_30_1509,EmoCon_Pilot_120Hz,2020.2.4,119.81414427901761,
,,,,0,0,0,0,30,0,30,0,,,,,,,,,,,,,,,,,,,,,,,,,,,,,,,,,,,,,,,,,,,,,,30,12.0,f,040_y_f_n_a.jpg,neutral,s,17,1,697.2899387000361,697.5861646999838,697.7993104000343,697.9640115000075,697.9686120999977,698.0098876999691,698.0147813999793,698.6864300000016,s,1,698.0147813999793,698.6864300000016,698.6911767999409,699.7194267000305,0.6627494000131264,662.7494000131264,EMOCONPILOT007,2020_Dec_30_1509,EmoCon_Pilot_120Hz,2020.2.4,119.81414427901761,
,,,,0,0,0,0,31,0,31,0,,,,,,,,,,,,,,,,,,,,,,,,,,,,,,,,,,,,,,,,,,,,,,31,5.0,m,027_o_m_n_a.jpg,neutral,s,17,1,699.7222618999658,700.0195044999709,700.2347783999285,700.3966594999656,700.4012748999521,700.4421593999723,700.4473194000311,701.1360964999767,s,1,700.4473194000311,701.1360964999767,701.1461924000178,703.0279706999427,0.6785400999942794,678.5400999942794,EMOCONPILOT007,2020_Dec_30_1509,EmoCon_Pilot_120Hz,2020.2.4,119.81414427901761,
,,,,0,0,0,0,32,0,32,0,,,,,,,,,,,,,,,,,,,,,,,,,,,,,,,,,,,,,,,,,,,,,,32,8.0,f,019_m_f_n_a.jpg,neutral,s,3,1,703.0335037999321,703.3279536999762,703.5717054000124,703.5972066000104,703.5973102999851,703.6314910999499,703.6314530000091,704.5473294999683,s,1,703.6314530000091,704.5473294999683,704.5563847000012,705.5530795999803,0.9024261999875307,902.4261999875307,EMOCONPILOT007,2020_Dec_30_1509,EmoCon_Pilot_120Hz,2020.2.4,119.81414427901761,
,,,,0,0,0,0,33,0,33,0,,,,,,,,,,,,,,,,,,,,,,,,,,,,,,,,,,,,,,,,,,,,,,33,4.0,m,016_y_m_n_a.jpg,neutral,s,3,1,705.558432699996,705.853007699945,706.0969398999587,706.1235389999347,706.1270879999502,706.1668759000022,706.1720853999723,706.9445930999937,s,1,706.1720853999723,706.9445930999937,706.9561616999563,708.328156100004,0.7617068000836298,761.7068000836298,EMOCONPILOT007,2020_Dec_30_1509,EmoCon_Pilot_120Hz,2020.2.4,119.81414427901761,
,,,,0,0,0,0,34,0,34,0,,,,,,,,,,,,,,,,,,,,,,,,,,,,,,,,,,,,,,,,,,,,,,34,11.0,f,030_o_f_n_a.jpg,neutral,s,3,1,708.3333126000362,708.6280722999945,708.8397933000233,708.8662875000155,708.8670045000035,708.9042788000079,708.9055887999712,709.5745803000173,s,1,708.9055887999712,709.5745803000173,709.58409629995,711.3365249999333,0.660092500038445,660.092500038445,EMOCONPILOT007,2020_Dec_30_1509,EmoCon_Pilot_120Hz,2020.2.4,119.81414427901761,
,,,,0,0,0,0,35,0,35,0,,,,,,,,,,,,,,,,,,,,,,,,,,,,,,,,,,,,,,,,,,,,,,35,9.0,f,021_o_f_h_a.jpg,happy,d,3,1,711.3434723999817,711.6364562000381,711.8406997999409,711.8663632000098,711.866723199957,711.904277499998,711.9043042999692,712.5758139999816,d,1,711.9043042999692,712.5758139999816,712.5840869999956,713.5781672999728,0.6612876000581309,661.2876000581309,EMOCONPILOT007,2020_Dec_30_1509,EmoCon_Pilot_120Hz,2020.2.4,119.81414427901761,
,,,,0,0,0,0,36,0,36,0,,,,,,,,,,,,,,,,,,,,,,,,,,,,,,,,,,,,,,,,,,,,,,36,11.0,f,030_o_f_s_a.jpg,sad,a,17,1,713.5837613999611,713.878199800034,714.0816105999984,714.2510558000067,714.2558221999789,714.2969844000181,714.3019727999344,715.0619808000047,s,0,714.3019727999344,715.0619808000047,715.0703508999432,716.8032397000352,0.7516447999514639,751.6447999514639,EMOCONPILOT007,2020_Dec_30_1509,EmoCon_Pilot_120Hz,2020.2.4,119.81414427901761,
,,,,0,0,0,0,37,0,37,0,,,,,,,,,,,,,,,,,,,,,,,,,,,,,,,,,,,,,,,,,,,,,,37,12.0,f,040_y_f_n_a.jpg,neutral,s,3,1,716.8085761000402,717.1032475000247,717.3165473999688,717.3425411999924,717.3431077999994,717.3793385999743,717.3793435000116,718.1630868000211,s,1,717.3793435000116,718.1630868000211,718.1704513999866,719.2616969000082,0.7702944999327883,770.2944999327883,EMOCONPILOT007,2020_Dec_30_1509,EmoCon_Pilot_120Hz,2020.2.4,119.81414427901761,
,,,,0,0,0,0,38,0,38,0,,,,,,,,,,,,,,,,,,,,,,,,,,,,,,,,,,,,,,,,,,,,,,38,9.0,f,021_o_f_s_a.jpg,sad,a,3,1,719.2659048000351,719.5617591999471,719.5846325999591,719.6068424999248,719.6073252999922,719.646194800036,719.6474781000288,721.3769557999913,None,0,719.6474781000288,721.3769557999913,721.3835732999723,722.7533266999526,,,EMOCONPILOT007,2020_Dec_30_1509,EmoCon_Pilot_120Hz,2020.2.4,119.81414427901761,
,,,,0,0,0,0,39,0,39,0,,,,,,,,,,,,,,,,,,,,,,,,,,,,,,,,,,,,,,,,,,,,,,39,4.0,m,016_y_m_n_a.jpg,neutral,s,3,1,722.7586958999746,723.0533412999939,723.2982623999706,723.3242131000152,723.3273139999947,723.3648158999858,723.3700855999487,723.9892113000387,s,1,723.3700855999487,723.9892113000387,723.9957558999304,725.0618581000017,0.611517500015907,611.517500015907,EMOCONPILOT007,2020_Dec_30_1509,EmoCon_Pilot_120Hz,2020.2.4,119.81414427901761,
,,,,0,0,0,0,40,0,40,0,,,,,,,,,,,,,,,,,,,,,,,,,,,,,,,,,,,,,,,,,,,,,,40,9.0,f,021_o_f_s_a.jpg,sad,a,17,1,725.0671812000219,725.3617614000104,725.3870965000242,725.521735999966,725.526083100005,725.5672072999878,725.572411900037,726.725675499998,a,1,725.572411900037,726.725675499998,726.7374518000288,728.1867713999236,1.1455298999790102,1145.5298999790102,EMOCONPILOT007,2020_Dec_30_1509,EmoCon_Pilot_120Hz,2020.2.4,119.81414427901761,
,,,,0,0,0,0,41,0,41,0,,,,,,,,,,,,,,,,,,,,,,,,,,,,,,,,,,,,,,,,,,,,,,41,11.0,f,030_o_f_h_a.jpg,happy,d,3,1,728.1907780999318,728.4868898999412,728.6957470999332,728.7212702999823,728.7219187000301,728.7597462999402,728.7647159999469,729.6688062000321,s,0,728.7647159999469,729.6688062000321,729.6817171999719,730.711895299959,0.8890713000437245,889.0713000437245,EMOCONPILOT007,2020_Dec_30_1509,EmoCon_Pilot_120Hz,2020.2.4,119.81414427901761,
,,,,0,0,0,0,42,0,42,0,,,,,,,,,,,,,,,,,,,,,,,,,,,,,,,,,,,,,,,,,,,,,,42,4.0,m,016_y_m_h_a.jpg,happy,d,3,1,730.7151086999802,731.0119836999802,731.036319399951,731.0585789999459,731.0591112999246,731.0962673999602,731.0964978999691,731.9565299999667,d,1,731.0964978999691,731.9565299999667,731.963896399946,733.7286623999244,0.8531725000357255,853.1725000357255,EMOCONPILOT007,2020_Dec_30_1509,EmoCon_Pilot_120Hz,2020.2.4,119.81414427901761,
,,,,0,0,0,0,43,0,43,0,,,,,,,,,,,,,,,,,,,,,,,,,,,,,,,,,,,,,,,,,,,,,,43,1.0,m,004_o_m_s_a.jpg,sad,a,17,1,733.7346818000078,734.0285982999485,734.0530457999557,734.1885824999772,734.1927879999857,734.233801699942,734.2391305000056,735.0624483999563,a,1,734.2391305000056,735.0624483999563,735.073799100006,736.8286386999534,0.8067241000244394,806.7241000244394,EMOCONPILOT007,2020_Dec_30_1509,EmoCon_Pilot_120Hz,2020.2.4,119.81414427901761,
,,,,0,0,0,0,44,0,44,0,,,,,,,,,,,,,,,,,,,,,,,,,,,,,,,,,,,,,,,,,,,,,,44,4.0,m,016_y_m_h_a.jpg,happy,d,17,1,736.8338693999685,737.128245400032,737.1385302999988,737.2755717999535,737.2791771999327,737.3198447999312,737.3249386999523,738.0163912000135,d,1,737.3249386999523,738.0163912000135,738.028935499955,739.2203404000029,0.6809247001074255,680.9247001074255,EMOCONPILOT007,2020_Dec_30_1509,EmoCon_Pilot_120Hz,2020.2.4,119.81414427901761,
,,,,0,0,0,0,45,0,45,0,,,,,,,,,,,,,,,,,,,,,,,,,,,,,,,,,,,,,,,,,,,,,,45,7.0,f,012_o_f_s_a.jpg,sad,a,3,1,739.2244595999364,739.5203547999263,739.5456039999845,739.5681651999475,739.5697377999313,739.6069173000287,739.6075834999792,740.7943650999805,s,0,739.6075834999792,740.7943650999805,740.8053948000306,742.5537482999498,1.174446600023657,1174.446600023657,EMOCONPILOT007,2020_Dec_30_1509,EmoCon_Pilot_120Hz,2020.2.4,119.81414427901761,
,,,,0,0,0,0,46,0,46,0,,,,,,,,,,,,,,,,,,,,,,,,,,,,,,,,,,,,,,,,,,,,,,46,8.0,f,019_m_f_n_a.jpg,neutral,s,3,1,742.5578328999691,742.8538480999414,743.119767599972,743.1458999000024,743.1460938999662,743.1813104000175,743.1809969999595,743.9588660999434,s,1,743.1809969999595,743.9588660999434,743.96838570002,745.4288090999471,0.7686711000278592,768.6711000278592,EMOCONPILOT007,2020_Dec_30_1509,EmoCon_Pilot_120Hz,2020.2.4,119.81414427901761,
,,,,0,0,0,0,47,0,47,0,,,,,,,,,,,,,,,,,,,,,,,,,,,,,,,,,,,,,,,,,,,,,,47,2.0,m,008_y_m_h_a.jpg,happy,d,3,1,745.4327961000381,745.728834599955,745.7451571000274,745.7677487999899,745.7687265999848,745.8051000999985,745.8081153000239,747.4284119999502,None,0,745.8081153000239,747.4284119999502,747.433453500038,749.0289336999413,,,EMOCONPILOT007,2020_Dec_30_1509,EmoCon_Pilot_120Hz,2020.2.4,119.81414427901761,
,,,,0,0,0,0,48,0,48,0,,,,,,,,,,,,,,,,,,,,,,,,,,,,,,,,,,,,,,,,,,,,,,48,12.0,f,040_y_f_n_a.jpg,neutral,s,3,1,749.032135299989,749.3289947999874,749.552257400006,749.5779024999356,749.5781804999569,749.6139068999328,749.6151753999293,750.4463296999456,s,1,749.6151753999293,750.4463296999456,750.4537986000068,752.2790976000251,0.8227312000235543,822.7312000235543,EMOCONPILOT007,2020_Dec_30_1509,EmoCon_Pilot_120Hz,2020.2.4,119.81414427901761,
,,,,0,0,0,0,49,0,49,0,,,,,,,,,,,,,,,,,,,,,,,,,,,,,,,,,,,,,,,,,,,,,,49,11.0,f,030_o_f_n_a.jpg,neutral,s,17,1,752.2845714000287,752.5790865999879,752.7788153999718,752.9414026000304,752.9446119000204,752.9847361999564,752.989899899927,753.6512643999886,s,1,752.989899899927,753.6512643999886,753.6608925999608,755.1790067999391,0.6477991999126971,647.7991999126971,EMOCONPILOT007,2020_Dec_30_1509,EmoCon_Pilot_120Hz,2020.2.4,119.81414427901761,
,,,,0,0,0,0,50,0,50,0,,,,,,,,,,,,,,,,,,,,,,,,,,,,,,,,,,,,,,,,,,,,,,50,8.0,f,019_m_f_h_a.jpg,happy,d,3,1,755.183134199935,755.4790110000176,755.5043530999683,755.527037999942,755.5287988999626,755.5656931999838,755.5661898000399,756.6619486999698,s,0,755.5661898000399,756.6619486999698,756.6694765000138,758.4540783999255,1.0874865000369027,1087.4865000369027,EMOCONPILOT007,2020_Dec_30_1509,EmoCon_Pilot_120Hz,2020.2.4,119.81414427901761,
,,,,0,0,0,0,51,0,51,0,,,,,,,,,,,,,,,,,,,,,,,,,,,,,,,,,,,,,,,,,,,,,,51,8.0,f,019_m_f_n_a.jpg,neutral,s,3,1,758.4587968999986,758.7541456000181,759.0076260999776,759.034540600027,759.03809799999,759.0783165999455,759.0836288999999,759.7135108000366,s,1,759.0836288999999,759.7135108000366,759.7250072000315,761.6708087000297,0.6181021999800578,618.1021999800578,EMOCONPILOT007,2020_Dec_30_1509,EmoCon_Pilot_120Hz,2020.2.4,119.81414427901761,
,,,,0,0,0,0,52,0,52,0,,,,,,,,,,,,,,,,,,,,,,,,,,,,,,,,,,,,,,,,,,,,,,52,12.0,f,040_y_f_n_a.jpg,neutral,s,17,1,761.6747769999783,761.9708305000095,762.1921474999981,762.3561541000381,762.3609024999896,762.4016157999868,762.4068112999666,762.7233857000247,s,1,762.4068112999666,762.7233857000247,762.7348037000047,763.7626029000385,0.3033369000768289,303.3369000768289,EMOCONPILOT007,2020_Dec_30_1509,EmoCon_Pilot_120Hz,2020.2.4,119.81414427901761,
,,,,0,0,0,0,53,0,53,0,,,,,,,,,,,,,,,,,,,,,,,,,,,,,,,,,,,,,,,,,,,,,,53,9.0,f,021_o_f_h_a.jpg,happy,d,3,1,763.7670133999782,764.0625169000123,764.2764987000264,764.3028831999982,764.3063497999683,764.3465602999786,764.3517199000344,765.3571181999287,d,1,764.3517199000344,765.3571181999287,765.3686711000046,766.395999899949,0.9981980000156909,998.1980000156909,EMOCONPILOT007,2020_Dec_30_1509,EmoCon_Pilot_120Hz,2020.2.4,119.81414427901761,
,,,,0,0,0,0,54,0,54,0,,,,,,,,,,,,,,,,,,,,,,,,,,,,,,,,,,,,,,,,,,,,,,54,2.0,m,008_y_m_n_a.jpg,neutral,s,17,1,766.4002482999349,766.6959266000194,766.9282434999477,767.093316799961,767.0984017000301,767.1392142999684,767.1442286999663,767.7039179999847,s,1,767.1442286999663,767.7039179999847,767.715485499939,768.8210363999242,0.5496424000011757,549.6424000011757,EMOCONPILOT007,2020_Dec_30_1509,EmoCon_Pilot_120Hz,2020.2.4,119.81414427901761,
,,,,0,0,0,0,55,0,55,0,,,,,,,,,,,,,,,,,,,,,,,,,,,,,,,,,,,,,,,,,,,,,,55,10.0,f,028_y_f_n_a.jpg,neutral,s,3,1,768.8255662999582,769.1210666999687,769.3215000999626,769.3471415999811,769.3475311000366,769.3827713000355,769.3823693000013,770.155842200038,s,1,769.3823693000013,770.155842200038,770.1632967999903,772.1210855999961,0.7594014999922365,759.4014999922365,EMOCONPILOT007,2020_Dec_30_1509,EmoCon_Pilot_120Hz,2020.2.4,119.81414427901761,
,,,,0,0,0,0,56,0,56,0,,,,,,,,,,,,,,,,,,,,,,,,,,,,,,,,,,,,,,,,,,,,,,56,12.0,f,040_y_f_h_a.jpg,happy,d,17,1,772.1251392000122,772.4211137000239,772.4438966999296,772.581158899935,772.5843050000258,772.6230537999654,772.6270098999375,773.1489756000228,d,1,772.6270098999375,773.1489756000228,773.1597439999459,774.2961337999441,0.5149603999452665,514.9603999452665,EMOCONPILOT007,2020_Dec_30_1509,EmoCon_Pilot_120Hz,2020.2.4,119.81414427901761,
,,,,0,0,0,0,57,0,57,0,,,,,,,,,,,,,,,,,,,,,,,,,,,,,,,,,,,,,,,,,,,,,,57,2.0,m,008_y_m_n_a.jpg,neutral,s,3,1,774.3001020000083,774.5961545000318,774.8364010000369,774.8618118999293,774.8620542000281,774.8971728000324,774.897031200002,775.6709702999797,s,1,774.897031200002,775.6709702999797,775.6783180999337,777.5212355999975,0.7646020000101998,764.6020000101998,EMOCONPILOT007,2020_Dec_30_1509,EmoCon_Pilot_120Hz,2020.2.4,119.81414427901761,
,,,,0,0,0,0,58,0,58,0,,,,,,,,,,,,,,,,,,,,,,,,,,,,,,,,,,,,,,,,,,,,,,58,9.0,f,021_o_f_n_a.jpg,neutral,s,17,1,777.5252634999342,777.8212137999944,778.036161200027,778.1974486999679,778.2010166000109,778.2405422999291,778.2456354999449,778.7247656999389,s,1,778.2456354999449,778.7247656999389,778.7361750999698,779.9212051000213,0.4642076001036912,464.2076001036912,EMOCONPILOT007,2020_Dec_30_1509,EmoCon_Pilot_120Hz,2020.2.4,119.81414427901761,
,,,,0,0,0,0,59,0,59,0,,,,,,,,,,,,,,,,,,,,,,,,,,,,,,,,,,,,,,,,,,,,,,59,4.0,m,016_y_m_n_a.jpg,neutral,s,17,1,779.9243109000381,780.2213246999308,780.451458800002,780.606950599933,780.6115959000308,780.6523257000372,780.6573464999674,781.0322193999309,s,1,780.6573464999674,781.0322193999309,781.0427602999844,782.0463247000007,0.36453140003141016,364.53140003141016,EMOCONPILOT007,2020_Dec_30_1509,EmoCon_Pilot_120Hz,2020.2.4,119.81414427901761,
,,,,0,0,0,0,60,0,60,0,,,,,,,,,,,,,,,,,,,,,,,,,,,,,,,,,,,,,,,,,,,,,,60,6.0,m,033_o_m_s_a.jpg,sad,a,3,1,782.0510145999724,782.34635909996,782.3718082000269,782.3952696999768,782.3970896999817,782.4329499999294,782.4343758999603,784.1066694000037,None,0,782.4343758999603,784.1066694000037,784.1117124999873,785.5547481999965,,,EMOCONPILOT007,2020_Dec_30_1509,EmoCon_Pilot_120Hz,2020.2.4,119.81414427901761,
,,,,0,0,0,0,61,0,61,0,,,,,,,,,,,,,,,,,,,,,,,,,,,,,,,,,,,,,,,,,,,,,,61,7.0,f,012_o_f_n_a.jpg,neutral,s,3,1,785.560215299949,785.8546736999415,786.0743642000016,786.1019006000133,786.1045541999629,786.1418831000337,786.1449318999657,787.3792981000151,s,1,786.1449318999657,787.3792981000151,787.3905458999798,789.2130785000045,1.22107720002532,1221.07720002532,EMOCONPILOT007,2020_Dec_30_1509,EmoCon_Pilot_120Hz,2020.2.4,119.81414427901761,
,,,,0,0,0,0,62,0,62,0,,,,,,,,,,,,,,,,,,,,,,,,,,,,,,,,,,,,,,,,,,,,,,62,2.0,m,008_y_m_h_a.jpg,happy,d,17,1,789.21716869995,789.5131457999814,789.5372791999253,789.6730837000068,789.6759534999728,789.7143169000046,789.7178892999655,790.6210638999473,d,1,789.7178892999655,790.6210638999473,790.6312306999462,792.0048786000116,0.8879806000040844,887.9806000040844,EMOCONPILOT007,2020_Dec_30_1509,EmoCon_Pilot_120Hz,2020.2.4,119.81414427901761,
,,,,0,0,0,0,63,0,63,0,,,,,,,,,,,,,,,,,,,,,,,,,,,,,,,,,,,,,,,,,,,,,,63,10.0,f,028_y_f_h_a.jpg,happy,d,17,1,792.0091146000195,792.3048077999847,792.3170966999605,792.4480218000244,792.4510317000095,792.4894083000254,792.4922891999595,793.004804700031,d,1,792.4922891999595,793.004804700031,793.013199100038,794.8632787000388,0.5054406999843195,505.4406999843195,EMOCONPILOT007,2020_Dec_30_1509,EmoCon_Pilot_120Hz,2020.2.4,119.81414427901761,
,,,,0,0,0,0,64,0,64,0,,,,,,,,,,,,,,,,,,,,,,,,,,,,,,,,,,,,,,,,,,,,,,64,4.0,m,016_y_m_h_a.jpg,happy,d,17,1,794.8685539999278,795.1632357999915,795.188499199925,795.3231729000108,795.3258760999888,795.3643874999834,795.3670140999602,795.9495213000337,d,1,795.3670140999602,795.9495213000337,795.9577935999259,797.504948399961,0.5666583999991417,566.6583999991417,EMOCONPILOT007,2020_Dec_30_1509,EmoCon_Pilot_120Hz,2020.2.4,119.81414427901761,
,,,,0,0,0,0,65,0,65,0,,,,,,,,,,,,,,,,,,,,,,,,,,,,,,,,,,,,,,,,,,,,,,65,9.0,f,021_o_f_s_a.jpg,sad,a,17,1,797.5096764999907,797.8049467999954,797.8272057999857,797.964932300034,797.9683339999756,798.0082470999332,798.0125369000016,799.4058426999254,a,1,798.0125369000016,799.4058426999254,799.4171433999436,801.0550410000142,1.3773926999419928,1377.3926999419928,EMOCONPILOT007,2020_Dec_30_1509,EmoCon_Pilot_120Hz,2020.2.4,119.81414427901761,
,,,,0,0,0,0,66,0,66,0,,,,,,,,,,,,,,,,,,,,,,,,,,,,,,,,,,,,,,,,,,,,,,66,7.0,f,012_o_f_h_a.jpg,happy,d,17,1,801.0606139999582,801.3549816999584,801.3631801999873,801.4983315999852,801.5018289999571,801.5395534000127,801.5428224999923,802.8057777000358,d,1,801.5428224999923,802.8057777000358,802.814308400033,803.8050941999536,1.2468171999789774,1246.8171999789774,EMOCONPILOT007,2020_Dec_30_1509,EmoCon_Pilot_120Hz,2020.2.4,119.81414427901761,
,,,,0,0,0,0,67,0,67,0,,,,,,,,,,,,,,,,,,,,,,,,,,,,,,,,,,,,,,,,,,,,,,67,9.0,f,021_o_f_h_a.jpg,happy,d,3,1,803.8079513999401,804.1050684000365,804.3213526000036,804.3469293999951,804.3473766000243,804.3821689999895,804.3820923999883,805.8459877999267,d,1,804.3820923999883,805.8459877999267,805.8558571999893,807.3718479999807,1.4478320999769494,1447.8320999769494,EMOCONPILOT007,2020_Dec_30_1509,EmoCon_Pilot_120Hz,2020.2.4,119.81414427901761,
,,,,0,0,0,0,68,0,68,0,,,,,,,,,,,,,,,,,,,,,,,,,,,,,,,,,,,,,,,,,,,,,,68,8.0,f,019_m_f_h_a.jpg,happy,d,3,1,807.376978199929,807.6718542999588,807.6961819999851,807.7187575999415,807.7193463000003,807.7563692999538,807.7562905999366,808.4079531999305,d,1,807.7562905999366,808.4079531999305,808.4173890999518,810.3553357999772,0.6414729000534862,641.4729000534862,EMOCONPILOT007,2020_Dec_30_1509,EmoCon_Pilot_120Hz,2020.2.4,119.81414427901761,
,,,,0,0,0,0,69,0,69,0,,,,,,,,,,,,,,,,,,,,,,,,,,,,,,,,,,,,,,,,,,,,,,69,9.0,f,021_o_f_s_a.jpg,sad,a,17,1,810.3609101999318,810.655347699998,810.6667797999689,810.798637400032,810.8019307999639,810.8401432000101,810.8445561999688,811.8180289999582,s,0,810.8445561999688,811.8180289999582,811.8287990000099,813.405260700034,0.9614192000590265,961.4192000590265,EMOCONPILOT007,2020_Dec_30_1509,EmoCon_Pilot_120Hz,2020.2.4,119.81414427901761,
,,,,0,0,0,0,70,0,70,0,,,,,,,,,,,,,,,,,,,,,,,,,,,,,,,,,,,,,,,,,,,,,,70,2.0,m,008_y_m_h_a.jpg,happy,d,3,1,813.409467099933,813.7052817000076,813.7254477000097,813.7481047000038,813.7487691999413,813.7841433000285,813.7857025000267,815.5250066999579,None,0,813.7857025000267,815.5250066999579,815.532399400021,817.4470184999518,,,EMOCONPILOT007,2020_Dec_30_1509,EmoCon_Pilot_120Hz,2020.2.4,119.81414427901761,
,,,,0,0,0,0,71,0,71,0,,,,,,,,,,,,,,,,,,,,,,,,,,,,,,,,,,,,,,,,,,,,,,71,1.0,m,004_o_m_h_a.jpg,happy,d,3,1,817.4511977999937,817.7470298999688,817.9627138000214,817.9888460999355,817.9892138999421,818.0261486000381,818.0269606999354,818.9422778999433,d,1,818.0269606999354,818.9422778999433,818.9513873000396,820.0887644999893,0.8989928000373766,898.9928000373766,EMOCONPILOT007,2020_Dec_30_1509,EmoCon_Pilot_120Hz,2020.2.4,119.81414427901761,
,,,,0,0,0,0,72,0,72,0,,,,,,,,,,,,,,,,,,,,,,,,,,,,,,,,,,,,,,,,,,,,,,72,11.0,f,030_o_f_h_a.jpg,happy,d,3,1,820.0928421999561,820.388748300029,820.5953901000321,820.6226044000359,820.6252342000371,820.6619999000104,820.6648752000183,822.2743323999457,None,0,820.6648752000183,822.2743323999457,822.2789885000093,823.4222305000294,,,EMOCONPILOT007,2020_Dec_30_1509,EmoCon_Pilot_120Hz,2020.2.4,119.81414427901761,
,,,,0,0,0,0,73,0,73,0,,,,,,,,,,,,,,,,,,,,,,,,,,,,,,,,,,,,,,,,,,,,,,73,8.0,f,019_m_f_s_a.jpg,sad,a,3,1,823.4274466999341,823.7221692999592,823.9690405000001,823.9950647000223,823.9954936000286,824.0318059999263,824.031822699937,825.7457770999754,None,0,824.031822699937,825.7457770999754,825.7507687000325,827.3889620000264,,,EMOCONPILOT007,2020_Dec_30_1509,EmoCon_Pilot_120Hz,2020.2.4,119.81414427901761,
,,,,0,0,0,0,74,0,74,0,,,,,,,,,,,,,,,,,,,,,,,,,,,,,,,,,,,,,,,,,,,,,,74,5.0,m,027_o_m_h_a.jpg,happy,d,17,1,827.3936444999417,827.688947299961,827.8989540999755,828.0608567999443,828.0656329999911,828.1065506000305,828.1117654999252,828.7827356000198,d,1,828.1117654999252,828.7827356000198,828.7931103999726,830.7638875999255,0.6540268999524415,654.0268999524415,EMOCONPILOT007,2020_Dec_30_1509,EmoCon_Pilot_120Hz,2020.2.4,119.81414427901761,
,,,,0,0,0,0,75,0,75,0,,,,,,,,,,,,,,,,,,,,,,,,,,,,,,,,,,,,,,,,,,,,,,75,8.0,f,019_m_f_s_a.jpg,sad,a,17,1,830.7668725999538,831.0639154999517,831.2929544999497,831.4536833999446,831.4583773999475,831.4978472000221,831.5028615000192,832.1823563999496,a,1,831.5028615000192,832.1823563999496,832.1926536000101,833.4891644000309,0.6711149999173358,671.1149999173358,EMOCONPILOT007,2020_Dec_30_1509,EmoCon_Pilot_120Hz,2020.2.4,119.81414427901761,
,,,,0,0,0,0,76,0,76,0,,,,,,,,,,,,,,,,,,,,,,,,,,,,,,,,,,,,,,,,,,,,,,76,7.0,f,012_o_f_n_a.jpg,neutral,s,3,1,833.4947001999244,833.7891662999755,833.9909396999283,834.0188782999758,834.0222278999863,834.0630471999757,834.068046499975,835.8979183000047,None,0,834.068046499975,835.8979183000047,835.9049664000049,837.6224786000093,,,EMOCONPILOT007,2020_Dec_30_1509,EmoCon_Pilot_120Hz,2020.2.4,119.81414427901761,
,,,,0,0,0,0,77,0,77,0,,,,,,,,,,,,,,,,,,,,,,,,,,,,,,,,,,,,,,,,,,,,,,77,6.0,m,033_o_m_s_a.jpg,sad,a,3,1,837.6266611999599,837.9225344000151,837.946662100032,837.9684933000244,837.9686241999734,838.0070562999463,838.0081830000272,839.6239535999484,None,0,838.0081830000272,839.6239535999484,839.6288995000068,841.2642286999617,,,EMOCONPILOT007,2020_Dec_30_1509,EmoCon_Pilot_120Hz,2020.2.4,119.81414427901761,
,,,,0,0,0,0,78,0,78,0,,,,,,,,,,,,,,,,,,,,,,,,,,,,,,,,,,,,,,,,,,,,,,78,1.0,m,004_o_m_h_a.jpg,happy,d,3,1,841.269552599988,841.564234499936,841.7713788999245,841.7965260000201,841.796961999964,841.8329536999809,841.8337948999833,842.5270945000229,d,1,841.8337948999833,842.5270945000229,842.5345888999291,843.9809637999861,0.6838832999346778,683.8832999346778,EMOCONPILOT007,2020_Dec_30_1509,EmoCon_Pilot_120Hz,2020.2.4,119.81414427901761,
,,,,0,0,0,0,79,0,79,0,,,,,,,,,,,,,,,,,,,,,,,,,,,,,,,,,,,,,,,,,,,,,,79,5.0,m,027_o_m_s_a.jpg,sad,a,17,1,843.9847589000128,844.2809161000187,844.3053730999818,844.4409638999496,844.4445003999863,844.4821872999892,844.4873578000115,845.4563883999363,a,1,844.4873578000115,845.4563883999363,845.4690871000057,846.9143027999671,0.958517299965024,958.517299965024,EMOCONPILOT007,2020_Dec_30_1509,EmoCon_Pilot_120Hz,2020.2.4,119.81414427901761,
,,,,0,0,0,0,80,0,80,0,,,,,,,,,,,,,,,,,,,,,,,,,,,,,,,,,,,,,,,,,,,,,,80,9.0,f,021_o_f_s_a.jpg,sad,a,17,1,846.9183630000334,847.214395100018,847.2378087999532,847.3743483999278,847.3782296000281,847.4171174999792,847.4207077999599,848.4683672999963,a,1,847.4207077999599,848.4683672999963,848.4786186999409,849.556015899987,1.0331577999750152,1033.1577999750152,EMOCONPILOT007,2020_Dec_30_1509,EmoCon_Pilot_120Hz,2020.2.4,119.81414427901761,
,,,,0,0,0,0,81,0,81,0,,,,,,,,,,,,,,,,,,,,,,,,,,,,,,,,,,,,,,,,,,,,,,81,5.0,m,027_o_m_s_a.jpg,sad,a,3,1,849.5604042999912,849.8560313000344,849.878053399967,849.9005111999577,849.9023098000325,849.9404836000176,849.9415101000341,851.7502307000104,None,0,849.9415101000341,851.7502307000104,851.757726199925,853.0560865999432,,,EMOCONPILOT007,2020_Dec_30_1509,EmoCon_Pilot_120Hz,2020.2.4,119.81414427901761,
,,,,0,0,0,0,82,0,82,0,,,,,,,,,,,,,,,,,,,,,,,,,,,,,,,,,,,,,,,,,,,,,,82,7.0,f,012_o_f_h_a.jpg,happy,d,17,1,853.0592423999915,853.3561535000335,853.3774231999414,853.5077764999587,853.5109878999647,853.5490207999246,853.5526159999426,854.574848899967,d,1,853.5526159999426,854.574848899967,854.5854154999834,855.8144984999672,1.0133717000717297,1013.3717000717297,EMOCONPILOT007,2020_Dec_30_1509,EmoCon_Pilot_120Hz,2020.2.4,119.81414427901761,
,,,,0,0,0,0,83,0,83,0,,,,,,,,,,,,,,,,,,,,,,,,,,,,,,,,,,,,,,,,,,,,,,83,3.0,m,013_y_m_s_a.jpg,sad,a,17,1,855.8183354999637,856.114567499957,856.1405717999442,856.2745261000236,856.2779030000092,856.3160816000309,856.3193119999487,857.0883875000291,a,1,856.3193119999487,857.0883875000291,857.0996571999276,858.4063200999517,0.7586350999772549,758.6350999772549,EMOCONPILOT007,2020_Dec_30_1509,EmoCon_Pilot_120Hz,2020.2.4,119.81414427901761,
,,,,0,0,0,0,84,0,84,0,,,,,,,,,,,,,,,,,,,,,,,,,,,,,,,,,,,,,,,,,,,,,,84,5.0,m,027_o_m_s_a.jpg,sad,a,17,1,858.412408299977,858.7062612000154,858.7213865999365,858.8580182000296,858.861803399981,858.8991453000344,858.902338200016,859.7489109999733,a,1,858.902338200016,859.7489109999733,859.7569963999558,861.1647248000372,0.8395116999745369,839.5116999745369,EMOCONPILOT007,2020_Dec_30_1509,EmoCon_Pilot_120Hz,2020.2.4,119.81414427901761,
,,,,0,0,0,0,85,0,85,0,,,,,,,,,,,,,,,,,,,,,,,,,,,,,,,,,,,,,,,,,,,,,,85,4.0,m,016_y_m_s_a.jpg,sad,a,17,1,861.1702230999945,861.4646578999236,861.480941799935,861.6162624999415,861.6193189999321,861.6575765999733,861.6608190999832,862.1481740999734,a,1,861.6608190999832,862.1481740999734,862.157918700017,863.7313252999447,0.47299180005211383,472.99180005211383,EMOCONPILOT007,2020_Dec_30_1509,EmoCon_Pilot_120Hz,2020.2.4,119.81414427901761,
,,,,0,0,0,0,86,0,86,0,,,,,,,,,,,,,,,,,,,,,,,,,,,,,,,,,,,,,,,,,,,,,,86,5.0,m,027_o_m_n_a.jpg,neutral,s,3,1,863.7368363999994,864.0314501000103,864.2642027999973,864.2900094999932,864.2904590999242,864.3255036999471,864.3268863999983,865.3318089999957,a,0,864.3268863999983,865.3318089999957,865.3400424999418,867.1648323999252,0.9908517999574542,990.8517999574542,EMOCONPILOT007,2020_Dec_30_1509,EmoCon_Pilot_120Hz,2020.2.4,119.81414427901761,
,,,,0,0,0,0,87,0,87,0,,,,,,,,,,,,,,,,,,,,,,,,,,,,,,,,,,,,,,,,,,,,,,87,3.0,m,013_y_m_h_a.jpg,happy,d,3,1,867.1702468999429,867.4648116999306,867.702668700018,867.7283814999973,867.7287346000085,867.7659443999873,867.7672836999409,869.0302495999495,d,1,867.7672836999409,869.0302495999495,869.0351274999557,870.831480099936,1.2543882000027224,1254.3882000027224,EMOCONPILOT007,2020_Dec_30_1509,EmoCon_Pilot_120Hz,2020.2.4,119.81414427901761,
,,,,0,0,0,0,88,0,88,0,,,,,,,,,,,,,,,,,,,,,,,,,,,,,,,,,,,,,,,,,,,,,,88,5.0,m,027_o_m_s_a.jpg,sad,a,17,1,870.8362807999365,871.1314907999476,871.1525541000301,871.2831133999862,871.2865173999453,871.3246948999586,871.3282085999381,872.3489012999926,a,1,871.3282085999381,872.3489012999926,872.3556824999396,873.7233290999429,1.0055591999553144,1005.5591999553144,EMOCONPILOT007,2020_Dec_30_1509,EmoCon_Pilot_120Hz,2020.2.4,119.81414427901761,
,,,,0,0,0,0,89,0,89,0,,,,,,,,,,,,,,,,,,,,,,,,,,,,,,,,,,,,,,,,,,,,,,89,5.0,m,027_o_m_s_a.jpg,sad,a,17,1,873.7291069999337,874.0232702000067,874.0384505999973,874.1748774999287,874.1780161999632,874.216123900027,874.2197058999445,874.9631935999496,a,1,874.2197058999445,874.9631935999496,874.9726890999591,876.0065818999428,0.7300448999740183,730.0448999740183,EMOCONPILOT007,2020_Dec_30_1509,EmoCon_Pilot_120Hz,2020.2.4,119.81414427901761,
,,,,0,0,0,0,90,0,90,0,,,,,,,,,,,,,,,,,,,,,,,,,,,,,,,,,,,,,,,,,,,,,,90,12.0,f,040_y_f_s_a.jpg,sad,a,17,1,876.0096723999595,876.3065643999726,876.3299440999981,876.4665207000216,876.4694921999471,876.5078205999453,876.5101125999354,877.436670599971,a,1,876.5101125999354,877.436670599971,877.44643729995,878.5983397000236,0.9117878000251949,911.7878000251949,EMOCONPILOT007,2020_Dec_30_1509,EmoCon_Pilot_120Hz,2020.2.4,119.81414427901761,
,,,,0,0,0,0,91,0,91,0,,,,,,,,,,,,,,,,,,,,,,,,,,,,,,,,,,,,,,,,,,,,,,91,3.0,m,013_y_m_n_a.jpg,neutral,s,17,1,878.6024985000258,878.8983316000085,879.1439456000226,879.300274200039,879.3052254000213,879.3435624999693,879.3479660999728,880.589077499928,s,1,879.3479660999728,880.589077499928,880.6014785999432,882.5568258999847,1.2259946999838576,1225.9946999838576,EMOCONPILOT007,2020_Dec_30_1509,EmoCon_Pilot_120Hz,2020.2.4,119.81414427901761,
,,,,0,0,0,0,92,0,92,0,,,,,,,,,,,,,,,,,,,,,,,,,,,,,,,,,,,,,,,,,,,,,,92,12.0,f,040_y_f_s_a.jpg,sad,a,3,1,882.561006700038,882.8568614999531,882.8789768000133,882.9006369999843,882.9007535999408,882.9412555999588,882.9428022999782,883.8763143999968,a,1,882.9428022999782,883.8763143999968,883.8846504000248,885.5401439999696,0.919142699916847,919.142699916847,EMOCONPILOT007,2020_Dec_30_1509,EmoCon_Pilot_120Hz,2020.2.4,119.81414427901761,
,,,,0,0,0,0,93,0,93,0,,,,,,,,,,,,,,,,,,,,,,,,,,,,,,,,,,,,,,,,,,,,,,93,6.0,m,033_o_m_s_a.jpg,sad,a,3,1,885.5443374000024,885.8402201000135,885.860749799991,885.8838058999972,885.8843893000158,885.9189495999599,885.9204016999574,887.4726686000358,None,0,885.9204016999574,887.4726686000358,887.4775897000218,889.0819285999751,,,EMOCONPILOT007,2020_Dec_30_1509,EmoCon_Pilot_120Hz,2020.2.4,119.81414427901761,
,,,,0,0,0,0,94,0,94,0,,,,,,,,,,,,,,,,,,,,,,,,,,,,,,,,,,,,,,,,,,,,,,94,2.0,m,008_y_m_s_a.jpg,sad,a,3,1,889.0870445999317,889.3819447000278,889.6221078999806,889.6478696999839,889.6510617999593,889.6923269999679,889.6974702000152,890.7832721000304,a,1,889.6974702000152,890.7832721000304,890.7897349999985,892.4070250999648,1.076199600007385,1076.199600007385,EMOCONPILOT007,2020_Dec_30_1509,EmoCon_Pilot_120Hz,2020.2.4,119.81414427901761,
,,,,0,0,0,0,95,0,95,0,,,,,,,,,,,,,,,,,,,,,,,,,,,,,,,,,,,,,,,,,,,,,,95,8.0,f,019_m_f_s_a.jpg,sad,a,3,1,892.4112061000196,892.7070101000136,892.9447457999922,892.9705348999705,892.9709766999586,893.0081659000134,893.0093246999895,894.6049604000291,None,0,893.0093246999895,894.6049604000291,894.610595599981,896.2402736999793,,,EMOCONPILOT007,2020_Dec_30_1509,EmoCon_Pilot_120Hz,2020.2.4,119.81414427901761,
,,,,0,0,0,0,96,0,96,0,,,,,,,,,,,,,,,,,,,,,,,,,,,,,,,,,,,,,,,,,,,,,,96,9.0,f,021_o_f_n_a.jpg,neutral,s,3,1,896.2431223000167,896.5403804000234,896.7477890999289,896.773611899931,896.7753847999265,896.8121870999457,896.8167272999417,898.1293143000221,s,1,896.8167272999417,898.1293143000221,898.1396959000267,899.8654074999504,1.301227500080131,1301.227500080131,EMOCONPILOT007,2020_Dec_30_1509,EmoCon_Pilot_120Hz,2020.2.4,119.81414427901761,
,,,,0,0,0,0,97,0,97,0,,,,,,,,,,,,,,,,,,,,,,,,,,,,,,,,,,,,,,,,,,,,,,97,11.0,f,030_o_f_h_a.jpg,happy,d,3,1,899.8691568999784,900.1654391000047,900.3662457999308,900.392093500006,900.3922768000048,900.4275614999933,900.4272545999847,901.1663528999779,d,1,900.4272545999847,901.1663528999779,901.1779566999758,902.7571580000222,0.7225188999436796,722.5188999436796,EMOCONPILOT007,2020_Dec_30_1509,EmoCon_Pilot_120Hz,2020.2.4,119.81414427901761,
,,,,0,0,0,0,98,0,98,0,,,,,,,,,,,,,,,,,,,,,,,,,,,,,,,,,,,,,,,,,,,,,,98,12.0,f,040_y_f_n_a.jpg,neutral,s,17,1,902.7611024000216,903.0571479999926,903.2793693999993,903.4425144999987,903.4474475999596,903.488623399986,903.4935401999392,904.7263159999857,s,1,903.4935401999392,904.7263159999857,904.7328844999429,906.2322933999822,1.2163909999653697,1216.3909999653697,EMOCONPILOT007,2020_Dec_30_1509,EmoCon_Pilot_120Hz,2020.2.4,119.81414427901761,
,,,,0,0,0,0,99,0,99,0,,,,,,,,,,,,,,,,,,,,,,,,,,,,,,,,,,,,,,,,,,,,,,99,12.0,f,040_y_f_s_a.jpg,sad,a,3,1,906.2361773999874,906.5322505999357,906.5581814999459,906.5811862000264,906.582140399958,906.6171898000175,906.6169622000307,907.6381767999846,s,0,906.6169622000307,907.6381767999846,907.6456188999582,908.915612099925,1.0128010999178514,1012.8010999178514,EMOCONPILOT007,2020_Dec_30_1509,EmoCon_Pilot_120Hz,2020.2.4,119.81414427901761,
,,,,0,0,0,0,100,0,100,0,,,,,,,,,,,,,,,,,,,,,,,,,,,,,,,,,,,,,,,,,,,,,,100,4.0,m,016_y_m_n_a.jpg,neutral,s,3,1,908.9195794999832,909.2156065999297,909.4574749999447,909.48305229994,909.4832386999624,909.5187864999752,909.518637000001,911.3328825000208,None,0,909.518637000001,911.3328825000208,911.339952499955,912.9573761000065,,,EMOCONPILOT007,2020_Dec_30_1509,EmoCon_Pilot_120Hz,2020.2.4,119.81414427901761,
,,,,0,0,0,0,101,0,101,0,,,,,,,,,,,,,,,,,,,,,,,,,,,,,,,,,,,,,,,,,,,,,,101,11.0,f,030_o_f_s_a.jpg,sad,a,17,1,912.961137300008,913.2574913999997,913.4626547000371,913.6194336999906,913.6230164000299,913.6630714000203,913.6682832000079,914.4412960000336,a,1,913.6682832000079,914.4412960000336,914.447712299996,915.9241600999376,0.7613948000362143,761.3948000362143,EMOCONPILOT007,2020_Dec_30_1509,EmoCon_Pilot_120Hz,2020.2.4,119.81414427901761,
,,,,0,0,0,0,102,0,102,0,,,,,,,,,,,,,,,,,,,,,,,,,,,,,,,,,,,,,,,,,,,,,,102,3.0,m,013_y_m_h_a.jpg,happy,d,3,1,915.9296577000059,916.2241707999492,916.4537536000134,916.4796038999921,916.4797520999564,916.5170214000391,916.5167925999267,917.6483181000222,a,0,916.5167925999267,917.6483181000222,917.6518827999244,919.2326105999527,1.1210885999025777,1121.0885999025777,EMOCONPILOT007,2020_Dec_30_1509,EmoCon_Pilot_120Hz,2020.2.4,119.81414427901761,
,,,,0,0,0,0,103,0,103,0,,,,,,,,,,,,,,,,,,,,,,,,,,,,,,,,,,,,,,,,,,,,,,103,2.0,m,008_y_m_s_a.jpg,sad,a,17,1,919.2381326999748,919.5325734999496,919.7756687999936,919.9397537999321,919.9445197000168,919.9852554999525,919.9903294999385,920.9287906999234,a,1,919.9903294999385,920.9287906999234,920.940313500003,922.832694199984,0.927643800037913,927.643800037913,EMOCONPILOT007,2020_Dec_30_1509,EmoCon_Pilot_120Hz,2020.2.4,119.81414427901761,
,,,,0,0,0,0,104,0,104,0,,,,,,,,,,,,,,,,,,,,,,,,,,,,,,,,,,,,,,,,,,,,,,104,11.0,f,030_o_f_s_a.jpg,sad,a,3,1,922.8389849000378,923.1326547999633,923.33048470004,923.3562861999962,923.3565291999839,923.392085099942,923.3916405999335,924.4285506999586,d,0,923.3916405999335,924.4285506999586,924.4375238999492,925.6994461999275,1.0223207999952137,1022.3207999952137,EMOCONPILOT007,2020_Dec_30_1509,EmoCon_Pilot_120Hz,2020.2.4,119.81414427901761,
,,,,0,0,0,0,105,0,105,0,,,,,,,,,,,,,,,,,,,,,,,,,,,,,,,,,,,,,,,,,,,,,,105,4.0,m,016_y_m_h_a.jpg,happy,d,17,1,925.7050003999611,925.9994248999283,926.0261139000067,926.1593672999879,926.1637925999239,926.2023738999851,926.2057624999434,926.8532437999966,d,1,926.2057624999434,926.8532437999966,926.8631417999277,927.907735100016,0.6322182000149041,632.2182000149041,EMOCONPILOT007,2020_Dec_30_1509,EmoCon_Pilot_120Hz,2020.2.4,119.81414427901761,
,,,,0,0,0,0,106,0,106,0,,,,,,,,,,,,,,,,,,,,,,,,,,,,,,,,,,,,,,,,,,,,,,106,7.0,f,012_o_f_n_a.jpg,neutral,s,17,1,927.9132082000142,928.2077945999335,928.4283475999255,928.5921500999248,928.5967408999568,928.6376287000021,928.6429824000224,929.317643599934,s,1,928.6429824000224,929.317643599934,929.3284239999484,931.0661791999592,0.6588858999311924,658.8858999311924,EMOCONPILOT007,2020_Dec_30_1509,EmoCon_Pilot_120Hz,2020.2.4,119.81414427901761,
,,,,0,0,0,0,107,0,107,0,,,,,,,,,,,,,,,,,,,,,,,,,,,,,,,,,,,,,,,,,,,,,,107,11.0,f,030_o_f_h_a.jpg,happy,d,17,1,931.0721330000088,931.3661347000161,931.5644655999495,931.7228937000036,931.7273070999654,931.7673779999604,931.7724892999977,932.4624460999621,d,1,931.7724892999977,932.4624460999621,932.467117400025,933.8578722999664,0.6812094999477267,681.2094999477267,EMOCONPILOT007,2020_Dec_30_1509,EmoCon_Pilot_120Hz,2020.2.4,119.81414427901761,
,,,,0,0,0,0,108,0,108,0,,,,,,,,,,,,,,,,,,,,,,,,,,,,,,,,,,,,,,,,,,,,,,108,1.0,m,004_o_m_s_a.jpg,sad,a,17,1,933.8634293000214,934.1578734000213,934.17784020002,934.30979999993,934.3143800999969,934.3532407999737,934.3575053999666,935.0078192999354,a,1,934.3575053999666,935.0078192999354,935.0191454000305,936.8079313000198,0.6405262000625953,640.5262000625953,EMOCONPILOT007,2020_Dec_30_1509,EmoCon_Pilot_120Hz,2020.2.4,119.81414427901761,
,,,,0,0,0,0,109,0,109,0,,,,,,,,,,,,,,,,,,,,,,,,,,,,,,,,,,,,,,,,,,,,,,109,3.0,m,013_y_m_n_a.jpg,neutral,s,17,1,936.8121039000107,937.107902699965,937.3515148999868,937.5065286000026,937.511161900009,937.551257199957,937.5551814000355,938.0544886999996,s,1,937.5551814000355,938.0544886999996,938.0661217999877,939.4163917999249,0.49092949996702373,490.92949996702373,EMOCONPILOT007,2020_Dec_30_1509,EmoCon_Pilot_120Hz,2020.2.4,119.81414427901761,
,,,,0,0,0,0,110,0,110,0,,,,,,,,,,,,,,,,,,,,,,,,,,,,,,,,,,,,,,,,,,,,,,110,10.0,f,028_y_f_s_a.jpg,sad,a,17,1,939.4223647000035,939.7164093999891,939.7398442999693,939.8762731000315,939.8796962000197,939.9175228000386,939.9211100999964,940.5844278000295,s,0,939.9211100999964,940.5844278000295,940.5948466999689,941.7664299999597,0.6527062000241131,652.7062000241131,EMOCONPILOT007,2020_Dec_30_1509,EmoCon_Pilot_120Hz,2020.2.4,119.81414427901761,
,,,,0,0,0,0,111,0,111,0,,,,,,,,,,,,,,,,,,,,,,,,,,,,,,,,,,,,,,,,,,,,,,111,11.0,f,030_o_f_h_a.jpg,happy,d,17,1,941.7718098999467,942.0663723000325,942.2790161999874,942.439530499978,942.4455036999425,942.4855713000288,942.4905205999967,943.0056779999286,d,1,942.4905205999967,943.0056779999286,943.0131554999389,944.291436700034,0.5072647000197321,507.2647000197321,EMOCONPILOT007,2020_Dec_30_1509,EmoCon_Pilot_120Hz,2020.2.4,119.81414427901761,
,,,,0,0,0,0,112,0,112,0,,,,,,,,,,,,,,,,,,,,,,,,,,,,,,,,,,,,,,,,,,,,,,112,7.0,f,012_o_f_n_a.jpg,neutral,s,17,1,944.2953033000231,944.5914533999749,944.810839899932,944.9748783999821,944.9784046999412,945.0180534999818,945.0232549000066,946.6702686999924,s,1,945.0232549000066,946.6702686999924,946.6817041999893,948.366473800037,1.630807499983348,1630.807499983348,EMOCONPILOT007,2020_Dec_30_1509,EmoCon_Pilot_120Hz,2020.2.4,119.81414427901761,
,,,,0,0,0,0,113,0,113,0,,,,,,,,,,,,,,,,,,,,,,,,,,,,,,,,,,,,,,,,,,,,,,113,2.0,m,008_y_m_s_a.jpg,sad,a,17,1,948.3705678000115,948.6664753999794,948.9067459999351,949.074346599984,949.0792035999475,949.1187358000316,949.1235784000019,950.4850301999832,a,1,949.1235784000019,950.4850301999832,950.493320700014,952.1250111999689,1.3541886999737471,1354.1886999737471,EMOCONPILOT007,2020_Dec_30_1509,EmoCon_Pilot_120Hz,2020.2.4,119.81414427901761,
,,,,0,0,0,0,114,0,114,0,,,,,,,,,,,,,,,,,,,,,,,,,,,,,,,,,,,,,,,,,,,,,,114,11.0,f,030_o_f_h_a.jpg,happy,d,17,1,952.1302276999922,952.4249958000146,952.6294087999268,952.7959757000208,952.8007090999745,952.8413750999607,952.8464855999919,953.9532352000242,d,1,952.8464855999919,953.9532352000242,953.9617738999659,955.4082221999997,1.0953160000499338,1095.3160000499338,EMOCONPILOT007,2020_Dec_30_1509,EmoCon_Pilot_120Hz,2020.2.4,119.81414427901761,
,,,,0,0,0,0,115,0,115,0,,,,,,,,,,,,,,,,,,,,,,,,,,,,,,,,,,,,,,,,,,,,,,115,3.0,m,013_y_m_h_a.jpg,happy,d,17,1,955.4110570999328,955.7082082999405,955.9360683999257,956.0907310999464,956.0941584999673,956.1352085999679,956.1401643999852,956.6366039999994,d,1,956.1401643999852,956.6366039999994,956.6482522999868,957.9584916000022,0.48975970002356917,489.75970002356917,EMOCONPILOT007,2020_Dec_30_1509,EmoCon_Pilot_120Hz,2020.2.4,119.81414427901761,
,,,,0,0,0,0,116,0,116,0,,,,,,,,,,,,,,,,,,,,,,,,,,,,,,,,,,,,,,,,,,,,,,116,2.0,m,008_y_m_s_a.jpg,sad,a,17,1,957.9640830999706,958.2585046000313,958.4977553000208,958.651806000038,958.656776299933,958.697605399997,958.7028086000355,959.7105765999295,a,1,958.7028086000355,959.7105765999295,959.722092699958,961.2835329000372,0.9993914000224322,999.3914000224322,EMOCONPILOT007,2020_Dec_30_1509,EmoCon_Pilot_120Hz,2020.2.4,119.81414427901761,
,,,,0,0,0,0,117,0,117,0,,,,,,,,,,,,,,,,,,,,,,,,,,,,,,,,,,,,,,,,,,,,,,117,3.0,m,013_y_m_n_a.jpg,neutral,s,17,1,961.2876621999312,961.5834953000303,961.8241312999744,961.9760999999708,961.9810039999429,962.0218461999903,962.0259316000156,962.6131877999287,s,1,962.0259316000156,962.6131877999287,962.6214139999356,964.566747099976,0.5719284999649972,571.9284999649972,EMOCONPILOT007,2020_Dec_30_1509,EmoCon_Pilot_120Hz,2020.2.4,119.81414427901761,
,,,,0,0,0,0,118,0,118,0,,,,,,,,,,,,,,,,,,,,,,,,,,,,,,,,,,,,,,,,,,,,,,118,6.0,m,033_o_m_n_a.jpg,neutral,s,17,1,964.5696153999306,964.8667381999549,965.0708133999724,965.2386281000217,965.2435552999377,965.2840280999662,965.2891182999592,966.8684063999681,s,1,965.2891182999592,966.8684063999681,966.8766242000274,968.5502485999605,1.5647196000209078,1564.7196000209078,EMOCONPILOT007,2020_Dec_30_1509,EmoCon_Pilot_120Hz,2020.2.4,119.81414427901761,
,,,,0,0,0,0,119,0,119,0,,,,,,,,,,,,,,,,,,,,,,,,,,,,,,,,,,,,,,,,,,,,,,119,6.0,m,033_o_m_n_a.jpg,neutral,s,17,1,968.553527400014,968.850292099989,969.0576087000081,969.2176115999464,969.2222844000207,969.2628874999937,969.2682709000073,970.0205320999958,s,1,969.2682709000073,970.0205320999958,970.027811500011,971.4920996000292,0.7376184000167996,737.6184000167996,EMOCONPILOT007,2020_Dec_30_1509,EmoCon_Pilot_120Hz,2020.2.4,119.81414427901761,
,,,,1,0,1,0,0,0,0,0,,,,,,,,,,,,,,,,,,,,,,,,,,,,,,,,,,,,,,,971.5864774000365,1015.1445125000319,d,43.547400799929164,43547.400799929164,971.5864774000365,1015.1445125000319,0,1.0,m,004_o_m_s_a.jpg,sad,a,2,2,1015.1504920999287,1015.442923799972,1015.4688408999937,1015.4842873000307,1015.4861888999585,1015.5216993000358,1015.5219982999843,1016.8273696999531,s,0,1015.5219982999843,1016.8273696999531,1016.8369283999782,1018.0763512999984,1.2920963000506163,1292.0963000506163,EMOCONPILOT007,2020_Dec_30_1509,EmoCon_Pilot_120Hz,2020.2.4,119.81414427901761,
,,,,1,0,1,0,1,0,1,0,,,,,,,,,,,,,,,,,,,,,,,,,,,,,,,,,,,,,,,,,,,,,,1,9.0,f,021_o_f_n_a.jpg,neutral,s,17,2,1018.082788300002,1018.3764347999822,1018.6014716000063,1018.7636537000071,1018.768269799999,1018.8089121000376,1018.8141065000091,1019.5773069999414,s,1,1018.8141065000091,1019.5773069999414,1019.5856079999357,1020.7346945999889,0.7518782999832183,751.8782999832183,EMOCONPILOT007,2020_Dec_30_1509,EmoCon_Pilot_120Hz,2020.2.4,119.81414427901761,
,,,,1,0,1,0,2,0,2,0,,,,,,,,,,,,,,,,,,,,,,,,,,,,,,,,,,,,,,,,,,,,,,2,11.0,f,030_o_f_s_a.jpg,sad,a,17,2,1020.738802799955,1021.0348131000064,1021.238832199946,1021.4007449999917,1021.4053758999798,1021.4467502000043,1021.4511472999584,1022.629121099948,a,1,1021.4511472999584,1022.629121099948,1022.6396516000386,1024.618132899981,1.1629822000395507,1162.9822000395507,EMOCONPILOT007,2020_Dec_30_1509,EmoCon_Pilot_120Hz,2020.2.4,119.81414427901761,
,,,,1,0,1,0,3,0,3,0,,,,,,,,,,,,,,,,,,,,,,,,,,,,,,,,,,,,,,,,,,,,,,3,10.0,f,028_y_f_s_a.jpg,sad,a,2,2,1024.6232925000368,1024.9182564000366,1024.9419845000375,1024.9572683000006,1024.9574921999592,1024.99433399993,1024.9942109999247,1026.8094652999425,None,0,1024.9942109999247,1026.8094652999425,1026.8180462999735,1028.0932225999422,,,EMOCONPILOT007,2020_Dec_30_1509,EmoCon_Pilot_120Hz,2020.2.4,119.81414427901761,
,,,,1,0,1,0,4,0,4,0,,,,,,,,,,,,,,,,,,,,,,,,,,,,,,,,,,,,,,,,,,,,,,4,6.0,m,033_o_m_n_a.jpg,neutral,s,2,2,1028.0987453999696,1028.3932241000002,1028.591881099972,1028.6089198000263,1028.6093719999772,1028.6442515000235,1028.6456390999956,1030.2569244999904,None,0,1028.6456390999956,1030.2569244999904,1030.2619558000006,1031.6683144000126,,,EMOCONPILOT007,2020_Dec_30_1509,EmoCon_Pilot_120Hz,2020.2.4,119.81414427901761,
,,,,1,0,1,0,5,0,5,0,,,,,,,,,,,,,,,,,,,,,,,,,,,,,,,,,,,,,,,,,,,,,,5,1.0,m,004_o_m_n_a.jpg,neutral,s,17,2,1031.6729428999824,1031.9682595999911,1032.1691108000232,1032.326952500036,1032.3316553999903,1032.3727836000035,1032.377271299949,1033.4858782000374,s,1,1032.377271299949,1033.4858782000374,1033.4976737999823,1035.2933544999687,1.100915800081566,1100.915800081566,EMOCONPILOT007,2020_Dec_30_1509,EmoCon_Pilot_120Hz,2020.2.4,119.81414427901761,
,,,,1,0,1,0,6,0,6,0,,,,,,,,,,,,,,,,,,,,,,,,,,,,,,,,,,,,,,,,,,,,,,6,12.0,f,040_y_f_s_a.jpg,sad,a,17,2,1035.2972721999977,1035.5933805999812,1035.616562900017,1035.75331369997,1035.756520899944,1035.7945835000137,1035.7979325000197,1036.888097899966,a,1,1035.7979325000197,1036.888097899966,1036.8989470000379,1038.1100335000083,1.0799644000362605,1079.9644000362605,EMOCONPILOT007,2020_Dec_30_1509,EmoCon_Pilot_120Hz,2020.2.4,119.81414427901761,
,,,,1,0,1,0,7,0,7,0,,,,,,,,,,,,,,,,,,,,,,,,,,,,,,,,,,,,,,,,,,,,,,7,9.0,f,021_o_f_n_a.jpg,neutral,s,17,2,1038.1137756999815,1038.410079299938,1038.6593041999731,1038.8170223999768,1038.8214289000025,1038.8605964999879,1038.865588799934,1039.7418732999358,a,0,1038.865588799934,1039.7418732999358,1039.7517038999358,1041.3268264000071,0.8605185999767855,860.5185999767855,EMOCONPILOT007,2020_Dec_30_1509,EmoCon_Pilot_120Hz,2020.2.4,119.81414427901761,
,,,,1,0,1,0,8,0,8,0,,,,,,,,,,,,,,,,,,,,,,,,,,,,,,,,,,,,,,,,,,,,,,8,9.0,f,021_o_f_s_a.jpg,sad,a,2,2,1041.332395000034,1041.6268364000134,1041.6510304999538,1041.6663325999398,1041.66701929993,1041.7029112000018,1041.70309179998,1043.3048023999436,None,0,1041.70309179998,1043.3048023999436,1043.3097891999641,1044.376921899966,,,EMOCONPILOT007,2020_Dec_30_1509,EmoCon_Pilot_120Hz,2020.2.4,119.81414427901761,
,,,,1,0,1,0,9,0,9,0,,,,,,,,,,,,,,,,,,,,,,,,,,,,,,,,,,,,,,,,,,,,,,9,4.0,m,016_y_m_s_a.jpg,sad,a,17,2,1044.3801596999401,1044.6769337999867,1044.6984714999562,1044.8369891999755,1044.8404686999274,1044.8804439000087,1044.8847736000316,1046.3455983999884,a,1,1044.8847736000316,1046.3455983999884,1046.3489224000368,1047.5603028000332,1.449172299937345,1449.172299937345,EMOCONPILOT007,2020_Dec_30_1509,EmoCon_Pilot_120Hz,2020.2.4,119.81414427901761,
,,,,1,0,1,0,10,0,10,0,,,,,,,,,,,,,,,,,,,,,,,,,,,,,,,,,,,,,,,,,,,,,,10,7.0,f,012_o_f_n_a.jpg,neutral,s,17,2,1047.5658770999871,1047.8603150999406,1048.0798540000105,1048.2516971000005,1048.256379700033,1048.2935687999707,1048.2950024999445,1049.9248220999725,None,0,1048.2950024999445,1049.9248220999725,1049.932646399946,1051.6103602999356,,,EMOCONPILOT007,2020_Dec_30_1509,EmoCon_Pilot_120Hz,2020.2.4,119.81414427901761,
,,,,1,0,1,0,11,0,11,0,,,,,,,,,,,,,,,,,,,,,,,,,,,,,,,,,,,,,,,,,,,,,,11,2.0,m,008_y_m_n_a.jpg,neutral,s,17,2,1051.6156398999738,1051.9103723999579,1052.143709499971,1052.3117938999785,1052.315587899997,1052.3540444000391,1052.3583842000226,1053.053695700015,s,1,1052.3583842000226,1053.053695700015,1053.060001899954,1054.3271220999304,0.6794941999251023,679.4941999251023,EMOCONPILOT007,2020_Dec_30_1509,EmoCon_Pilot_120Hz,2020.2.4,119.81414427901761,
,,,,1,0,1,0,12,0,12,0,,,,,,,,,,,,,,,,,,,,,,,,,,,,,,,,,,,,,,,,,,,,,,12,1.0,m,004_o_m_s_a.jpg,sad,a,2,2,1054.3325172000332,1054.627135299961,1054.652728999965,1054.6677709999494,1054.66867179994,1054.704037599964,1054.7038413999835,1056.228952400037,None,0,1054.7038413999835,1056.228952400037,1056.2317676999373,1057.9939505000366,,,EMOCONPILOT007,2020_Dec_30_1509,EmoCon_Pilot_120Hz,2020.2.4,119.81414427901761,
,,,,1,0,1,0,13,0,13,0,,,,,,,,,,,,,,,,,,,,,,,,,,,,,,,,,,,,,,,,,,,,,,13,7.0,f,012_o_f_h_a.jpg,happy,d,17,2,1057.9995838999748,1058.2938658000203,1058.314722699928,1058.4454848000314,1058.4500402000267,1058.4918501999928,1058.4967349999351,1059.4130028999643,d,1,1058.4967349999351,1059.4130028999643,1059.4208119999385,1060.4605574000161,0.9013924999162555,901.3924999162555,EMOCONPILOT007,2020_Dec_30_1509,EmoCon_Pilot_120Hz,2020.2.4,119.81414427901761,
,,,,1,0,1,0,14,0,14,0,,,,,,,,,,,,,,,,,,,,,,,,,,,,,,,,,,,,,,,,,,,,,,14,3.0,m,013_y_m_h_a.jpg,happy,d,17,2,1060.4648175999755,1060.7605909999693,1061.0043816999532,1061.1586007999722,1061.1619148999453,1061.2026450999547,1061.2076040999964,1062.5906143999891,d,1,1061.2076040999964,1062.5906143999891,1062.602316500037,1064.402270099963,1.3745966999558732,1374.5966999558732,EMOCONPILOT007,2020_Dec_30_1509,EmoCon_Pilot_120Hz,2020.2.4,119.81414427901761,
,,,,1,0,1,0,15,0,15,0,,,,,,,,,,,,,,,,,,,,,,,,,,,,,,,,,,,,,,,,,,,,,,15,11.0,f,030_o_f_n_a.jpg,neutral,s,2,2,1064.4062816000078,1064.7023608000018,1064.9141984999878,1064.9319287999533,1064.9353855999652,1064.9764714000048,1064.9814987999853,1066.0763668,s,1,1064.9814987999853,1066.0763668,1066.0859606999438,1067.2274110999424,1.0804400000488386,1080.4400000488386,EMOCONPILOT007,2020_Dec_30_1509,EmoCon_Pilot_120Hz,2020.2.4,119.81414427901761,
,,,,1,0,1,0,16,0,16,0,,,,,,,,,,,,,,,,,,,,,,,,,,,,,,,,,,,,,,,,,,,,,,16,3.0,m,013_y_m_n_a.jpg,neutral,s,2,2,1067.231372499955,1067.527328999946,1067.7636580000399,1067.7816947000101,1067.7855357000371,1067.8264552999754,1067.8314034999348,1069.568635600037,s,1,1067.8314034999348,1069.568635600037,1069.57096859999,1071.535911599989,1.7264886000193655,1726.4886000193655,EMOCONPILOT007,2020_Dec_30_1509,EmoCon_Pilot_120Hz,2020.2.4,119.81414427901761,
,,,,1,0,1,0,17,0,17,0,,,,,,,,,,,,,,,,,,,,,,,,,,,,,,,,,,,,,,,,,,,,,,17,9.0,f,021_o_f_h_a.jpg,happy,d,17,2,1071.541557300021,1071.8359412000282,1072.05009169993,1072.2108598999912,1072.215366099961,1072.2563586999895,1072.2616391000338,1074.0437665999634,None,0,1072.2616391000338,1074.0437665999634,1074.0514312000014,1075.7355229000095,,,EMOCONPILOT007,2020_Dec_30_1509,EmoCon_Pilot_120Hz,2020.2.4,119.81414427901761,
,,,,1,0,1,0,18,0,18,0,,,,,,,,,,,,,,,,,,,,,,,,,,,,,,,,,,,,,,,,,,,,,,18,3.0,m,013_y_m_s_a.jpg,sad,a,2,2,1075.7355361999944,1076.0356444999343,1076.047032100032,1076.062887399923,1076.0629215999506,1076.0992361999815,1076.0991625000024,1077.7409415999427,None,0,1076.0991625000024,1077.7409415999427,1077.745709599927,1079.685958600021,,,EMOCONPILOT007,2020_Dec_30_1509,EmoCon_Pilot_120Hz,2020.2.4,119.81414427901761,
,,,,1,0,1,0,19,0,19,0,,,,,,,,,,,,,,,,,,,,,,,,,,,,,,,,,,,,,,,,,,,,,,19,10.0,f,028_y_f_h_a.jpg,happy,d,17,2,1079.6889807999833,1079.9860652999487,1080.001309699961,1080.1377845000243,1080.1414697000291,1080.1788660000311,1080.1829511999385,1081.2293168000178,d,1,1080.1829511999385,1081.2293168000178,1081.2369213999482,1082.5278125000186,1.0389925999334082,1038.9925999334082,EMOCONPILOT007,2020_Dec_30_1509,EmoCon_Pilot_120Hz,2020.2.4,119.81414427901761,
,,,,1,0,1,0,20,0,20,0,,,,,,,,,,,,,,,,,,,,,,,,,,,,,,,,,,,,,,,,,,,,,,20,4.0,m,016_y_m_h_a.jpg,happy,d,17,2,1082.5334152999567,1082.8277251999825,1082.8495558999712,1082.9877900999272,1082.9908802999416,1083.0299326999811,1083.0351619999856,1084.8377842999762,None,0,1083.0351619999856,1084.8377842999762,1084.8452374000335,1086.2777861999348,,,EMOCONPILOT007,2020_Dec_30_1509,EmoCon_Pilot_120Hz,2020.2.4,119.81414427901761,
,,,,1,0,1,0,21,0,21,0,,,,,,,,,,,,,,,,,,,,,,,,,,,,,,,,,,,,,,,,,,,,,,21,6.0,m,033_o_m_h_a.jpg,happy,d,17,2,1086.2820155000081,1086.5777644999325,1086.6000486999983,1086.738113499945,1086.7390558000188,1086.778986899997,1086.7787992999656,1087.328761999961,d,1,1086.7787992999656,1087.328761999961,1087.336011199979,1089.0528301999439,0.53920380002819,539.20380002819,EMOCONPILOT007,2020_Dec_30_1509,EmoCon_Pilot_120Hz,2020.2.4,119.81414427901761,
,,,,1,0,1,0,22,0,22,0,,,,,,,,,,,,,,,,,,,,,,,,,,,,,,,,,,,,,,,,,,,,,,22,5.0,m,027_o_m_s_a.jpg,sad,a,2,2,1089.0574911999283,1089.3528473000042,1089.3650236999383,1089.3800682999426,1089.3808066999773,1089.416857299977,1089.4186140999664,1091.0269590999233,None,0,1089.4186140999664,1091.0269590999233,1091.031844299985,1092.2528999999631,,,EMOCONPILOT007,2020_Dec_30_1509,EmoCon_Pilot_120Hz,2020.2.4,119.81414427901761,
,,,,1,0,1,0,23,0,23,0,,,,,,,,,,,,,,,,,,,,,,,,,,,,,,,,,,,,,,,,,,,,,,23,10.0,f,028_y_f_n_a.jpg,neutral,s,17,2,1092.2571035999572,1092.552899000002,1092.7742525000358,1092.927003199933,1092.9303613000084,1092.9707539000083,1092.9756636000238,1094.5632133999607,None,0,1092.9756636000238,1094.5632133999607,1094.5681993999751,1095.9946808000095,,,EMOCONPILOT007,2020_Dec_30_1509,EmoCon_Pilot_120Hz,2020.2.4,119.81414427901761,
,,,,1,0,1,0,24,0,24,0,,,,,,,,,,,,,,,,,,,,,,,,,,,,,,,,,,,,,,,,,,,,,,24,9.0,f,021_o_f_n_a.jpg,neutral,s,2,2,1095.9976817999268,1096.294700199971,1096.5091487999307,1096.5260594999418,1096.5273638999788,1096.5651040000375,1096.5704340999946,1098.1433137999848,d,0,1096.5704340999946,1098.1433137999848,1098.1538304999704,1100.0530862000305,1.5636287999805063,1563.6287999805063,EMOCONPILOT007,2020_Dec_30_1509,EmoCon_Pilot_120Hz,2020.2.4,119.81414427901761,
,,,,1,0,1,0,25,0,25,0,,,,,,,,,,,,,,,,,,,,,,,,,,,,,,,,,,,,,,,,,,,,,,25,8.0,f,019_m_f_h_a.jpg,happy,d,2,2,1100.0587271000259,1100.3531586999306,1100.376984099974,1100.3932717000134,1100.3978808999527,1100.438127100002,1100.4425517999334,1102.1493031999562,None,0,1100.4425517999334,1102.1493031999562,1102.1540716999443,1103.9114839999238,,,EMOCONPILOT007,2020_Dec_30_1509,EmoCon_Pilot_120Hz,2020.2.4,119.81414427901761,
,,,,1,0,1,0,26,0,26,0,,,,,,,,,,,,,,,,,,,,,,,,,,,,,,,,,,,,,,,,,,,,,,26,4.0,m,016_y_m_n_a.jpg,neutral,s,17,2,1103.9156840000069,1104.2114629999269,1104.5426465999335,1104.7018892000197,1104.7065368000185,1104.7457868999336,1104.750680499943,1105.3960861000232,s,1,1104.750680499943,1105.3960861000232,1105.4023876999272,1106.9448734000325,0.631344300112687,631.344300112687,EMOCONPILOT007,2020_Dec_30_1509,EmoCon_Pilot_120Hz,2020.2.4,119.81414427901761,
,,,,1,0,1,0,27,0,27,0,,,,,,,,,,,,,,,,,,,,,,,,,,,,,,,,,,,,,,,,,,,,,,27,1.0,m,004_o_m_h_a.jpg,happy,d,2,2,1106.949187399936,1107.2448622999946,1107.444231200032,1107.4607154999394,1107.4635315999622,1107.5026385999518,1107.5078651999356,1109.189284299966,None,0,1107.5078651999356,1109.189284299966,1109.1945761999814,1111.0283600999974,,,EMOCONPILOT007,2020_Dec_30_1509,EmoCon_Pilot_120Hz,2020.2.4,119.81414427901761,
,,,,1,0,1,0,28,0,28,0,,,,,,,,,,,,,,,,,,,,,,,,,,,,,,,,,,,,,,,,,,,,,,28,10.0,f,028_y_f_s_a.jpg,sad,a,17,2,1111.033699200023,1111.3283462999389,1111.3541236999445,1111.4929698000196,1111.4974597999826,1111.5382094000233,1111.5430819999892,1112.3727437999332,a,1,1111.5430819999892,1112.3727437999332,1112.3824933000142,1113.8700028000167,0.81485760002397,814.85760002397,EMOCONPILOT007,2020_Dec_30_1509,EmoCon_Pilot_120Hz,2020.2.4,119.81414427901761,
,,,,1,0,1,0,29,0,29,0,,,,,,,,,,,,,,,,,,,,,,,,,,,,,,,,,,,,,,,,,,,,,,29,5.0,m,027_o_m_h_a.jpg,happy,d,17,2,1113.8740318999626,1114.170082799974,1114.384070500033,1114.5540311000077,1114.5585964999627,1114.599704299937,1114.6049070999725,1116.230242199963,None,0,1114.6049070999725,1116.230242199963,1116.2343443999998,1117.545146999997,,,EMOCONPILOT007,2020_Dec_30_1509,EmoCon_Pilot_120Hz,2020.2.4,119.81414427901761,
,,,,1,0,1,0,30,0,30,0,,,,,,,,,,,,,,,,,,,,,,,,,,,,,,,,,,,,,,,,,,,,,,30,10.0,f,028_y_f_h_a.jpg,happy,d,2,2,1117.549259499996,1117.8450974000152,1117.8669074999634,1117.881987300003,1117.8822073999327,1117.9212615999859,1117.9214778000023,1119.1732699000277,a,0,1117.9214778000023,1119.1732699000277,1119.1808839000296,1121.0618391999742,1.2365298999939114,1236.5298999939114,EMOCONPILOT007,2020_Dec_30_1509,EmoCon_Pilot_120Hz,2020.2.4,119.81414427901761,
,,,,1,0,1,0,31,0,31,0,,,,,,,,,,,,,,,,,,,,,,,,,,,,,,,,,,,,,,,,,,,,,,31,5.0,m,027_o_m_h_a.jpg,happy,d,17,2,1121.0661223999923,1121.3618459999561,1121.573295900016,1121.7358343999367,1121.740460000001,1121.7806376999943,1121.7857090999605,1122.50928629993,d,1,1121.7857090999605,1122.50928629993,1122.520091400016,1124.4286140999757,0.7084769000066444,708.4769000066444,EMOCONPILOT007,2020_Dec_30_1509,EmoCon_Pilot_120Hz,2020.2.4,119.81414427901761,
,,,,1,0,1,0,32,0,32,0,,,,,,,,,,,,,,,,,,,,,,,,,,,,,,,,,,,,,,,,,,,,,,32,9.0,f,021_o_f_n_a.jpg,neutral,s,2,2,1124.434146799962,1124.7286943999352,1124.946048600017,1124.9630440999754,1124.965759399929,1125.003184500034,1125.0083774999948,1126.8371819999302,None,0,1125.0083774999948,1126.8371819999302,1126.8445209999336,1128.5703361999476,,,EMOCONPILOT007,2020_Dec_30_1509,EmoCon_Pilot_120Hz,2020.2.4,119.81414427901761,
,,,,1,0,1,0,33,0,33,0,,,,,,,,,,,,,,,,,,,,,,,,,,,,,,,,,,,,,,,,,,,,,,33,3.0,m,013_y_m_s_a.jpg,sad,a,17,2,1128.5747090999503,1128.870341300033,1128.8963217999553,1129.0303435999667,1129.0345914999489,1129.0750824999996,1129.0790803999407,1129.7073254999705,a,1,1129.0790803999407,1129.7073254999705,1129.7133567000274,1130.9704283999745,0.6148186000064015,614.8186000064015,EMOCONPILOT007,2020_Dec_30_1509,EmoCon_Pilot_120Hz,2020.2.4,119.81414427901761,
,,,,1,0,1,0,34,0,34,0,,,,,,,,,,,,,,,,,,,,,,,,,,,,,,,,,,,,,,,,,,,,,,34,1.0,m,004_o_m_n_a.jpg,neutral,s,17,2,1130.9757668999955,1131.2704268000089,1131.5240716999397,1131.6936265999684,1131.698122599977,1131.7391365999356,1131.744188199984,1132.8491045000264,s,1,1131.744188199984,1132.8491045000264,1132.861822900013,1134.6537794999313,1.0938425000058487,1093.8425000058487,EMOCONPILOT007,2020_Dec_30_1509,EmoCon_Pilot_120Hz,2020.2.4,119.81414427901761,
,,,,1,0,1,0,35,0,35,0,,,,,,,,,,,,,,,,,,,,,,,,,,,,,,,,,,,,,,,,,,,,,,35,12.0,f,040_y_f_h_a.jpg,happy,d,2,2,1134.657984099933,1134.9537902999436,1134.9799611000344,1134.9950971000362,1134.9958301000297,1135.0306444999296,1135.0309328000294,1136.6784340000013,None,0,1135.0309328000294,1136.6784340000013,1136.6852974999929,1138.3123495000182,,,EMOCONPILOT007,2020_Dec_30_1509,EmoCon_Pilot_120Hz,2020.2.4,119.81414427901761,
,,,,1,0,1,0,36,0,36,0,,,,,,,,,,,,,,,,,,,,,,,,,,,,,,,,,,,,,,,,,,,,,,36,10.0,f,028_y_f_n_a.jpg,neutral,s,17,2,1138.3177909000078,1138.6120879999362,1138.8133092999924,1138.9698386000236,1138.97483620001,1139.0134896000382,1139.0187608000124,1140.7037850000197,s,1,1139.0187608000124,1140.7037850000197,1140.7150540000293,1142.0290301999776,1.6674523999681696,1667.4523999681696,EMOCONPILOT007,2020_Dec_30_1509,EmoCon_Pilot_120Hz,2020.2.4,119.81414427901761,
,,,,1,0,1,0,37,0,37,0,,,,,,,,,,,,,,,,,,,,,,,,,,,,,,,,,,,,,,,,,,,,,,37,11.0,f,030_o_f_n_a.jpg,neutral,s,17,2,1142.033153999946,1142.329068699968,1142.5251499000005,1142.6878994000144,1142.6928241000278,1142.733877099934,1142.7389334000181,1143.3498427999439,s,1,1142.7389334000181,1143.3498427999439,1143.3604370999383,1144.5290753999725,0.5950947999954224,595.0947999954224,EMOCONPILOT007,2020_Dec_30_1509,EmoCon_Pilot_120Hz,2020.2.4,119.81414427901761,
,,,,1,0,1,0,38,0,38,0,,,,,,,,,,,,,,,,,,,,,,,,,,,,,,,,,,,,,,,,,,,,,,38,1.0,m,004_o_m_h_a.jpg,happy,d,17,2,1144.5348274999997,1144.8291356000118,1145.0304402000038,1145.1999254999682,1145.2042789999396,1145.2449777999427,1145.2500925000058,1145.7897059000097,d,1,1145.2500925000058,1145.7897059000097,1145.8002846000018,1147.1957694999874,0.523925399989821,523.925399989821,EMOCONPILOT007,2020_Dec_30_1509,EmoCon_Pilot_120Hz,2020.2.4,119.81414427901761,
,,,,1,0,1,0,39,0,39,0,,,,,,,,,,,,,,,,,,,,,,,,,,,,,,,,,,,,,,,,,,,,,,39,6.0,m,033_o_m_h_a.jpg,happy,d,17,2,1147.2010575999739,1147.4957920999732,1147.517975899973,1147.6583677999442,1147.663210000028,1147.7039083000273,1147.7091657000128,1148.2369805999333,d,1,1147.7091657000128,1148.2369805999333,1148.2491956999293,1150.1207960000029,0.5129133999580517,512.9133999580517,EMOCONPILOT007,2020_Dec_30_1509,EmoCon_Pilot_120Hz,2020.2.4,119.81414427901761,
,,,,1,0,1,0,40,0,40,0,,,,,,,,,,,,,,,,,,,,,,,,,,,,,,,,,,,,,,,,,,,,,,40,7.0,f,012_o_f_h_a.jpg,happy,d,17,2,1150.1248391999397,1150.4207923000213,1150.442024399992,1150.5724536000052,1150.5743130999617,1150.6137085999362,1150.61646629998,1151.17503579997,d,1,1150.61646629998,1151.17503579997,1151.181368599995,1152.5291956999572,0.5495224000187591,549.5224000187591,EMOCONPILOT007,2020_Dec_30_1509,EmoCon_Pilot_120Hz,2020.2.4,119.81414427901761,
,,,,1,0,1,0,41,0,41,0,,,,,,,,,,,,,,,,,,,,,,,,,,,,,,,,,,,,,,,,,,,,,,41,6.0,m,033_o_m_n_a.jpg,neutral,s,17,2,1152.5334535000147,1152.8291993000312,1153.0321361999959,1153.1954991000239,1153.200198699953,1153.239729700028,1153.2445655999472,1153.814944199985,s,1,1153.2445655999472,1153.814944199985,1153.826464499929,1155.279237199924,0.5616185000399128,561.6185000399128,EMOCONPILOT007,2020_Dec_30_1509,EmoCon_Pilot_120Hz,2020.2.4,119.81414427901761,
,,,,1,0,1,0,42,0,42,0,,,,,,,,,,,,,,,,,,,,,,,,,,,,,,,,,,,,,,,,,,,,,,42,7.0,f,012_o_f_h_a.jpg,happy,d,17,2,1155.2833812999306,1155.5792479999363,1155.6026016999967,1155.7394285999471,1155.742852199939,1155.7817742000334,1155.7870694999583,1156.4776056000264,d,1,1155.7870694999583,1156.4776056000264,1156.487421900034,1157.8459873999236,0.683094699983485,683.094699983485,EMOCONPILOT007,2020_Dec_30_1509,EmoCon_Pilot_120Hz,2020.2.4,119.81414427901761,
,,,,1,0,1,0,43,0,43,0,,,,,,,,,,,,,,,,,,,,,,,,,,,,,,,,,,,,,,,,,,,,,,43,5.0,m,027_o_m_h_a.jpg,happy,d,17,2,1157.8520478999708,1158.1460060999962,1158.5078066999558,1158.6703385999426,1158.6711585000157,1158.7069684999296,1158.7067873999476,1159.154060299974,d,1,1158.7067873999476,1159.154060299974,1159.1656829999993,1160.7626885999925,0.4353718999773264,435.3718999773264,EMOCONPILOT007,2020_Dec_30_1509,EmoCon_Pilot_120Hz,2020.2.4,119.81414427901761,
,,,,1,0,1,0,44,0,44,0,,,,,,,,,,,,,,,,,,,,,,,,,,,,,,,,,,,,,,,,,,,,,,44,10.0,f,028_y_f_s_a.jpg,sad,a,2,2,1160.765886100009,1161.0627591999946,1161.0871767000062,1161.1030633000191,1161.1038058999693,1161.1389291000087,1161.1389970999444,1162.7659327000147,None,0,1161.1389970999444,1162.7659327000147,1162.77350260003,1164.129471299937,,,EMOCONPILOT007,2020_Dec_30_1509,EmoCon_Pilot_120Hz,2020.2.4,119.81414427901761,
,,,,1,0,1,0,45,0,45,0,,,,,,,,,,,,,,,,,,,,,,,,,,,,,,,,,,,,,,,,,,,,,,45,7.0,f,012_o_f_n_a.jpg,neutral,s,2,2,1164.135010899976,1164.4294722999912,1164.6491070999764,1164.6669597999426,1164.6679273999762,1164.7056394999381,1164.706962700002,1165.7842329000123,d,0,1164.706962700002,1165.7842329000123,1165.7944040999282,1167.5544655999402,1.0670329999411479,1067.0329999411479,EMOCONPILOT007,2020_Dec_30_1509,EmoCon_Pilot_120Hz,2020.2.4,119.81414427901761,
,,,,1,0,1,0,46,0,46,0,,,,,,,,,,,,,,,,,,,,,,,,,,,,,,,,,,,,,,,,,,,,,,46,1.0,m,004_o_m_n_a.jpg,neutral,s,2,2,1167.5585633999435,1167.8544890999328,1168.0517468999606,1168.0680355000077,1168.0688085999573,1168.1057792999782,1168.1068195999833,1169.665297999978,None,0,1168.1068195999833,1169.665297999978,1169.6703576999716,1171.0880032000132,,,EMOCONPILOT007,2020_Dec_30_1509,EmoCon_Pilot_120Hz,2020.2.4,119.81414427901761,
,,,,1,0,1,0,47,0,47,0,,,,,,,,,,,,,,,,,,,,,,,,,,,,,,,,,,,,,,,,,,,,,,47,9.0,f,021_o_f_h_a.jpg,happy,d,2,2,1171.093364099972,1171.3879569999408,1171.5979994999943,1171.6156344999326,1171.6163454999914,1171.6526251999894,1171.652864499949,1173.2727832000237,None,0,1171.652864499949,1173.2727832000237,1173.2798672999488,1175.1296450999798,,,EMOCONPILOT007,2020_Dec_30_1509,EmoCon_Pilot_120Hz,2020.2.4,119.81414427901761,
,,,,1,0,1,0,48,0,48,0,,,,,,,,,,,,,,,,,,,,,,,,,,,,,,,,,,,,,,,,,,,,,,48,10.0,f,028_y_f_n_a.jpg,neutral,s,17,2,1175.1344222000334,1175.42969489994,1175.6348635000177,1175.803423400037,1175.8083578000078,1175.847925500013,1175.852929799934,1176.7581347000087,d,0,1175.852929799934,1176.7581347000087,1176.7689673999557,1178.3464346999535,0.8973833000054583,897.3833000054583,EMOCONPILOT007,2020_Dec_30_1509,EmoCon_Pilot_120Hz,2020.2.4,119.81414427901761,
,,,,1,0,1,0,49,0,49,0,,,,,,,,,,,,,,,,,,,,,,,,,,,,,,,,,,,,,,,,,,,,,,49,7.0,f,012_o_f_h_a.jpg,happy,d,2,2,1178.3502978000324,1178.6464000999695,1178.6694301000098,1178.6849329000106,1178.6880289999535,1178.724777800031,1178.727907099994,1180.4006181999575,None,0,1178.727907099994,1180.4006181999575,1180.4072463000193,1182.0215076999739,,,EMOCONPILOT007,2020_Dec_30_1509,EmoCon_Pilot_120Hz,2020.2.4,119.81414427901761,
,,,,1,0,1,0,50,0,50,0,,,,,,,,,,,,,,,,,,,,,,,,,,,,,,,,,,,,,,,,,,,,,,50,5.0,m,027_o_m_h_a.jpg,happy,d,17,2,1182.0257250999566,1182.3214571999852,1182.6714318000013,1182.842937999987,1182.8474436999531,1182.8877192999935,1182.8927520000143,1183.3470944999717,d,1,1182.8927520000143,1183.3470944999717,1183.3557147999527,1185.1882518000202,0.4411511999787763,441.1511999787763,EMOCONPILOT007,2020_Dec_30_1509,EmoCon_Pilot_120Hz,2020.2.4,119.81414427901761,
,,,,1,0,1,0,51,0,51,0,,,,,,,,,,,,,,,,,,,,,,,,,,,,,,,,,,,,,,,,,,,,,,51,12.0,f,040_y_f_n_a.jpg,neutral,s,2,2,1185.1924998000031,1185.4882259999868,1185.7095735999756,1185.7264407000039,1185.7274930999847,1185.7643790999427,1185.764461499988,1186.63602179999,s,1,1185.764461499988,1186.63602179999,1186.64523429994,1188.4800939999986,0.8577735000289977,857.7735000289977,EMOCONPILOT007,2020_Dec_30_1509,EmoCon_Pilot_120Hz,2020.2.4,119.81414427901761,
,,,,1,0,1,0,52,0,52,0,,,,,,,,,,,,,,,,,,,,,,,,,,,,,,,,,,,,,,,,,,,,,,52,2.0,m,008_y_m_h_a.jpg,happy,d,2,2,1188.4856218999485,1188.7799725999357,1188.7942162000109,1188.809164199978,1188.8102469999576,1188.8477626999374,1188.849058700027,1190.0700066999998,d,1,1188.849058700027,1190.0700066999998,1190.0783236999996,1191.521724899998,1.2049900999991223,1204.9900999991223,EMOCONPILOT007,2020_Dec_30_1509,EmoCon_Pilot_120Hz,2020.2.4,119.81414427901761,
,,,,1,0,1,0,53,0,53,0,,,,,,,,,,,,,,,,,,,,,,,,,,,,,,,,,,,,,,,,,,,,,,53,6.0,m,033_o_m_h_a.jpg,happy,d,2,2,1191.5255742999725,1191.8217349000042,1191.8426973000169,1191.85820779996,1191.858677299926,1191.8935314000119,1191.8935128999874,1192.4614127000095,d,1,1191.8935128999874,1192.4614127000095,1192.4697261999827,1194.1050726999529,0.5604940999764949,560.4940999764949,EMOCONPILOT007,2020_Dec_30_1509,EmoCon_Pilot_120Hz,2020.2.4,119.81414427901761,
,,,,1,0,1,0,54,0,54,0,,,,,,,,,,,,,,,,,,,,,,,,,,,,,,,,,,,,,,,,,,,,,,54,2.0,m,008_y_m_h_a.jpg,happy,d,2,2,1194.1092443999369,1194.4050962999463,1194.426081600017,1194.4414119999856,1194.4419501000084,1194.4762960999506,1194.4762226999737,1195.3693012000294,d,1,1194.4762226999737,1195.3693012000294,1195.3777856000233,1196.7134567999747,0.8817759000230581,881.775900023058,EMOCONPILOT007,2020_Dec_30_1509,EmoCon_Pilot_120Hz,2020.2.4,119.81414427901761,
,,,,1,0,1,0,55,0,55,0,,,,,,,,,,,,,,,,,,,,,,,,,,,,,,,,,,,,,,,,,,,,,,55,12.0,f,040_y_f_h_a.jpg,happy,d,2,2,1196.7176412999397,1197.0134685999947,1197.0379085999448,1197.0528392000124,1197.054537100019,1197.0899365999503,1197.09069490002,1198.0164364000084,d,1,1197.09069490002,1198.0164364000084,1198.0260867000325,1200.0135320000118,0.9154964000917971,915.4964000917971,EMOCONPILOT007,2020_Dec_30_1509,EmoCon_Pilot_120Hz,2020.2.4,119.81414427901761,
,,,,1,0,1,0,56,0,56,0,,,,,,,,,,,,,,,,,,,,,,,,,,,,,,,,,,,,,,,,,,,,,,56,10.0,f,028_y_f_n_a.jpg,neutral,s,2,2,1200.0189215999562,1200.3135332999518,1200.534010799951,1200.5508186999941,1200.5519869999262,1200.589696799987,1200.5898686000146,1201.492974899942,s,1,1200.5898686000146,1201.492974899942,1201.5053484999808,1203.4719419999747,0.8961005000164732,896.1005000164732,EMOCONPILOT007,2020_Dec_30_1509,EmoCon_Pilot_120Hz,2020.2.4,119.81414427901761,
,,,,1,0,1,0,57,0,57,0,,,,,,,,,,,,,,,,,,,,,,,,,,,,,,,,,,,,,,,,,,,,,,57,12.0,f,040_y_f_s_a.jpg,sad,a,2,2,1203.4770342999836,1203.7719393000007,1203.7970896000043,1203.8124415000202,1203.813194999937,1203.8493057999294,1203.8497093999758,1204.5579586999957,s,0,1203.8497093999758,1204.5579586999957,1204.5646960999584,1206.021988500026,0.6923369000433013,692.3369000433013,EMOCONPILOT007,2020_Dec_30_1509,EmoCon_Pilot_120Hz,2020.2.4,119.81414427901761,
,,,,1,0,1,0,58,0,58,0,,,,,,,,,,,,,,,,,,,,,,,,,,,,,,,,,,,,,,,,,,,,,,58,5.0,m,027_o_m_n_a.jpg,neutral,s,2,2,1206.0261481000343,1206.3219948000042,1206.5333005000139,1206.550236399984,1206.5504623999586,1206.585537499981,1206.585925500025,1208.2376831999281,None,0,1206.585925500025,1208.2376831999281,1208.2419482999248,1209.705410299939,,,EMOCONPILOT007,2020_Dec_30_1509,EmoCon_Pilot_120Hz,2020.2.4,119.81414427901761,
,,,,1,0,1,0,59,0,59,0,,,,,,,,,,,,,,,,,,,,,,,,,,,,,,,,,,,,,,,,,,,,,,59,4.0,m,016_y_m_s_a.jpg,sad,a,17,2,1209.70940599998,1210.005395199987,1210.0320375999436,1210.1653813000303,1210.1684787999839,1210.206660100026,1210.209860599949,1211.0468320000218,a,1,1210.209860599949,1211.0468320000218,1211.056865099934,1212.9888737000292,0.8203947999281809,820.3947999281809,EMOCONPILOT007,2020_Dec_30_1509,EmoCon_Pilot_120Hz,2020.2.4,119.81414427901761,
,,,,1,0,1,0,60,0,60,0,,,,,,,,,,,,,,,,,,,,,,,,,,,,,,,,,,,,,,,,,,,,,,60,5.0,m,027_o_m_n_a.jpg,neutral,s,17,2,1212.993647199939,1213.2888121999567,1213.5091598000145,1213.6697885999456,1213.6745821000077,1213.7155408000108,1213.7205659999745,1215.5090378000168,s,1,1213.7205659999745,1215.5090378000168,1215.5201248000376,1217.2723131999373,1.773544399999082,1773.544399999082,EMOCONPILOT007,2020_Dec_30_1509,EmoCon_Pilot_120Hz,2020.2.4,119.81414427901761,
,,,,1,0,1,0,61,0,61,0,,,,,,,,,,,,,,,,,,,,,,,,,,,,,,,,,,,,,,,,,,,,,,61,10.0,f,028_y_f_s_a.jpg,sad,a,2,2,1217.277540299925,1217.5723798000254,1217.5884105999721,1217.6031985000009,1217.6040684999898,1217.6400857999688,1217.6404685999732,1218.7853945000097,s,0,1217.6404685999732,1218.7853945000097,1218.7929583999794,1219.8474241000367,1.1334800999611616,1133.4800999611616,EMOCONPILOT007,2020_Dec_30_1509,EmoCon_Pilot_120Hz,2020.2.4,119.81414427901761,
,,,,1,0,1,0,62,0,62,0,,,,,,,,,,,,,,,,,,,,,,,,,,,,,,,,,,,,,,,,,,,,,,62,3.0,m,013_y_m_n_a.jpg,neutral,s,17,2,1219.8527568000136,1220.1473062000005,1220.3920629000058,1220.5508437999524,1220.5558824000182,1220.5967307999963,1220.6018369999947,1221.1222040000139,s,1,1220.6018369999947,1221.1222040000139,1221.1339616000187,1223.00569739996,0.5082947000628337,508.2947000628337,EMOCONPILOT007,2020_Dec_30_1509,EmoCon_Pilot_120Hz,2020.2.4,119.81414427901761,
,,,,1,0,1,0,63,0,63,0,,,,,,,,,,,,,,,,,,,,,,,,,,,,,,,,,,,,,,,,,,,,,,63,4.0,m,016_y_m_s_a.jpg,sad,a,2,2,1223.0097966999747,1223.3056952999905,1223.3219104999444,1223.3372428999282,1223.3377516999608,1223.3735981000355,1223.3735756999813,1225.0214729999425,None,0,1223.3735756999813,1225.0214729999425,1225.0266650000121,1226.0140496999957,,,EMOCONPILOT007,2020_Dec_30_1509,EmoCon_Pilot_120Hz,2020.2.4,119.81414427901761,
,,,,1,0,1,0,64,0,64,0,,,,,,,,,,,,,,,,,,,,,,,,,,,,,,,,,,,,,,,,,,,,,,64,12.0,f,040_y_f_h_a.jpg,happy,d,17,2,1226.0180902000284,1226.3141344999894,1226.3409408000298,1226.4741242999444,1226.477531399927,1226.5172974999296,1226.5217396999942,1226.9990053999936,d,1,1226.5217396999942,1226.9990053999936,1227.0105776999844,1228.0058513999684,0.4685442999470979,468.5442999470979,EMOCONPILOT007,2020_Dec_30_1509,EmoCon_Pilot_120Hz,2020.2.4,119.81414427901761,
,,,,1,0,1,0,65,0,65,0,,,,,,,,,,,,,,,,,,,,,,,,,,,,,,,,,,,,,,,,,,,,,,65,5.0,m,027_o_m_n_a.jpg,neutral,s,2,2,1228.0114163999679,1228.3059305000352,1228.5426685999846,1228.5596653999528,1228.5603203999344,1228.5956105999649,1228.5959256000351,1230.1122887999518,s,1,1228.5959256000351,1230.1122887999518,1230.1197225999786,1231.6891771999653,1.50605500000529,1506.05500000529,EMOCONPILOT007,2020_Dec_30_1509,EmoCon_Pilot_120Hz,2020.2.4,119.81414427901761,
,,,,1,0,1,0,66,0,66,0,,,,,,,,,,,,,,,,,,,,,,,,,,,,,,,,,,,,,,,,,,,,,,66,6.0,m,033_o_m_s_a.jpg,sad,a,2,2,1231.6921125999652,1231.9892358999932,1232.0123660999816,1232.0276046999497,1232.0296291999985,1232.0654835000169,1232.0652270999271,1233.600899699959,None,0,1232.0652270999271,1233.600899699959,1233.6033451999538,1234.7309989000205,,,EMOCONPILOT007,2020_Dec_30_1509,EmoCon_Pilot_120Hz,2020.2.4,119.81414427901761,
,,,,1,0,1,0,67,0,67,0,,,,,,,,,,,,,,,,,,,,,,,,,,,,,,,,,,,,,,,,,,,,,,67,6.0,m,033_o_m_h_a.jpg,happy,d,2,2,1234.736530299997,1235.0310698000249,1235.0474091999931,1235.062519100029,1235.0628649999853,1235.0987873999402,1235.1005256000208,1236.6569974999875,None,0,1235.1005256000208,1236.6569974999875,1236.6598461000249,1238.3977100999327,,,EMOCONPILOT007,2020_Dec_30_1509,EmoCon_Pilot_120Hz,2020.2.4,119.81414427901761,
,,,,1,0,1,0,68,0,68,0,,,,,,,,,,,,,,,,,,,,,,,,,,,,,,,,,,,,,,,,,,,,,,68,2.0,m,008_y_m_s_a.jpg,sad,a,2,2,1238.4028353999602,1238.6976766999578,1238.9513109999243,1238.9680519000394,1238.968047900009,1239.0027029999765,1239.0025854000123,1240.5381954000331,None,0,1239.0025854000123,1240.5381954000331,1240.5381976999342,1242.4396061999723,,,EMOCONPILOT007,2020_Dec_30_1509,EmoCon_Pilot_120Hz,2020.2.4,119.81414427901761,
,,,,1,0,1,0,69,0,69,0,,,,,,,,,,,,,,,,,,,,,,,,,,,,,,,,,,,,,,,,,,,,,,69,1.0,m,004_o_m_n_a.jpg,neutral,s,17,2,1242.4455852999818,1242.7395818999503,1242.945312099997,1243.1056709999684,1243.1100781999994,1243.1483385999454,1243.1532905999338,1244.256882900023,s,1,1243.1532905999338,1244.256882900023,1244.264265100006,1245.4561629999662,1.0927918999223039,1092.7918999223039,EMOCONPILOT007,2020_Dec_30_1509,EmoCon_Pilot_120Hz,2020.2.4,119.81414427901761,
,,,,1,0,1,0,70,0,70,0,,,,,,,,,,,,,,,,,,,,,,,,,,,,,,,,,,,,,,,,,,,,,,70,2.0,m,008_y_m_s_a.jpg,sad,a,17,2,1245.4601335999323,1245.7561713999603,1245.9955130999442,1246.161692499998,1246.16680310003,1246.2075317000272,1246.2126091000391,1246.9744351999834,a,1,1246.2126091000391,1246.9744351999834,1246.9858415999915,1248.6147016999312,0.7538847000105307,753.8847000105307,EMOCONPILOT007,2020_Dec_30_1509,EmoCon_Pilot_120Hz,2020.2.4,119.81414427901761,
,,,,1,0,1,0,71,0,71,0,,,,,,,,,,,,,,,,,,,,,,,,,,,,,,,,,,,,,,,,,,,,,,71,11.0,f,030_o_f_n_a.jpg,neutral,s,17,2,1248.6203205999918,1248.9145476999693,1249.0993816999253,1249.2594826000277,1249.2640686000232,1249.3052972999867,1249.3103406999726,1250.4380515000084,a,0,1249.3103406999726,1250.4380515000084,1250.443795499974,1252.0562177000102,1.1197383999824524,1119.7383999824524,EMOCONPILOT007,2020_Dec_30_1509,EmoCon_Pilot_120Hz,2020.2.4,119.81414427901761,
,,,,1,0,1,0,72,0,72,0,,,,,,,,,,,,,,,,,,,,,,,,,,,,,,,,,,,,,,,,,,,,,,72,11.0,f,030_o_f_n_a.jpg,neutral,s,17,2,1252.0591756999493,1252.3562324999366,1252.5434602999594,1252.7134023000253,1252.717903199955,1252.7575830999995,1252.762690100004,1254.3348360999953,a,0,1252.762690100004,1254.3348360999953,1254.3466375999851,1255.5813043999951,1.5637191999703646,1563.7191999703646,EMOCONPILOT007,2020_Dec_30_1509,EmoCon_Pilot_120Hz,2020.2.4,119.81414427901761,
,,,,1,0,1,0,73,0,73,0,,,,,,,,,,,,,,,,,,,,,,,,,,,,,,,,,,,,,,,,,,,,,,73,2.0,m,008_y_m_s_a.jpg,sad,a,17,2,1255.584042100003,1255.881442099926,1256.1028123999713,1256.260795900016,1256.264537399984,1256.3057158000302,1256.3107611000305,1257.8850258999737,None,0,1256.3107611000305,1257.8850258999737,1257.8872872999636,1259.4231235999614,,,EMOCONPILOT007,2020_Dec_30_1509,EmoCon_Pilot_120Hz,2020.2.4,119.81414427901761,
,,,,1,0,1,0,74,0,74,0,,,,,,,,,,,,,,,,,,,,,,,,,,,,,,,,,,,,,,,,,,,,,,74,11.0,f,030_o_f_n_a.jpg,neutral,s,2,2,1259.427377999993,1259.723145899945,1259.9200657999609,1259.9370761000318,1259.9375955000287,1259.974279499962,1259.97562069993,1261.7474542999407,None,0,1259.97562069993,1261.7474542999407,1261.7547618999379,1263.0399777999846,,,EMOCONPILOT007,2020_Dec_30_1509,EmoCon_Pilot_120Hz,2020.2.4,119.81414427901761,
,,,,1,0,1,0,75,0,75,0,,,,,,,,,,,,,,,,,,,,,,,,,,,,,,,,,,,,,,,,,,,,,,75,1.0,m,004_o_m_s_a.jpg,sad,a,2,2,1263.0460700999247,1263.3400165999774,1263.3659235000378,1263.3812399000162,1263.3818804000039,1263.415979799931,1263.4158958999906,1265.0232161999447,None,0,1263.4158958999906,1265.0232161999447,1265.0271800999762,1266.1483905999921,,,EMOCONPILOT007,2020_Dec_30_1509,EmoCon_Pilot_120Hz,2020.2.4,119.81414427901761,
,,,,1,0,1,0,76,0,76,0,,,,,,,,,,,,,,,,,,,,,,,,,,,,,,,,,,,,,,,,,,,,,,76,3.0,m,013_y_m_n_a.jpg,neutral,s,17,2,1266.1542954000179,1266.4483269000193,1266.697283699992,1266.8550693999277,1266.8592393000145,1266.8999032999855,1266.9049100999255,1267.8765070999507,s,1,1266.9049100999255,1267.8765070999507,1267.8829028999899,1269.3483918999555,0.9651464999187738,965.1464999187738,EMOCONPILOT007,2020_Dec_30_1509,EmoCon_Pilot_120Hz,2020.2.4,119.81414427901761,
,,,,1,0,1,0,77,0,77,0,,,,,,,,,,,,,,,,,,,,,,,,,,,,,,,,,,,,,,,,,,,,,,77,7.0,f,012_o_f_s_a.jpg,sad,a,17,2,1269.3538129000226,1269.648397199926,1269.6716882999754,1269.8085340999532,1269.8130877999356,1269.8538265000097,1269.859079399961,1270.8085177999455,a,1,1269.859079399961,1270.8085177999455,1270.8139869000297,1272.5484192000004,0.9389009000733495,938.9009000733495,EMOCONPILOT007,2020_Dec_30_1509,EmoCon_Pilot_120Hz,2020.2.4,119.81414427901761,
,,,,1,0,1,0,78,0,78,0,,,,,,,,,,,,,,,,,,,,,,,,,,,,,,,,,,,,,,,,,,,,,,78,12.0,f,040_y_f_n_a.jpg,neutral,s,17,2,1272.5525524999248,1272.848425299977,1273.075842399965,1273.2290537999943,1273.2293303000042,1273.2662139999447,1273.2676872999873,1274.9238055000314,None,0,1273.2676872999873,1274.9238055000314,1274.9289923999459,1276.8651832999894,,,EMOCONPILOT007,2020_Dec_30_1509,EmoCon_Pilot_120Hz,2020.2.4,119.81414427901761,
,,,,1,0,1,0,79,0,79,0,,,,,,,,,,,,,,,,,,,,,,,,,,,,,,,,,,,,,,,,,,,,,,79,6.0,m,033_o_m_h_a.jpg,happy,d,2,2,1276.869993899949,1277.1652686999878,1277.1867711000377,1277.2017040000064,1277.2019290999742,1277.2413622000022,1277.2426213999279,1278.5164475999773,d,1,1277.2426213999279,1278.5164475999773,1278.5230597000336,1280.2737031999277,1.2596050000283867,1259.6050000283867,EMOCONPILOT007,2020_Dec_30_1509,EmoCon_Pilot_120Hz,2020.2.4,119.81414427901761,
,,,,1,0,1,0,80,0,80,0,,,,,,,,,,,,,,,,,,,,,,,,,,,,,,,,,,,,,,,,,,,,,,80,2.0,m,008_y_m_n_a.jpg,neutral,s,2,2,1280.2792275999673,1280.5736744999886,1280.8281595000299,1280.8451796999434,1280.8453886000207,1280.8830638999352,1280.8830382999731,1281.8471973999403,s,1,1280.8830382999731,1281.8471973999403,1281.8577777999453,1282.948617200018,0.9473462000023574,947.3462000023574,EMOCONPILOT007,2020_Dec_30_1509,EmoCon_Pilot_120Hz,2020.2.4,119.81414427901761,
,,,,1,0,1,0,81,0,81,0,,,,,,,,,,,,,,,,,,,,,,,,,,,,,,,,,,,,,,,,,,,,,,81,12.0,f,040_y_f_h_a.jpg,happy,d,2,2,1282.9532858999446,1283.2486317999428,1283.2696263999678,1283.2855526999338,1283.2860870999284,1283.3201742999954,1283.3197982999263,1284.3299689999549,s,0,1283.3197982999263,1284.3299689999549,1284.3372335999738,1285.4571601999924,0.9982566999970004,998.2566999970004,EMOCONPILOT007,2020_Dec_30_1509,EmoCon_Pilot_120Hz,2020.2.4,119.81414427901761,
,,,,1,0,1,0,82,0,82,0,,,,,,,,,,,,,,,,,,,,,,,,,,,,,,,,,,,,,,,,,,,,,,82,9.0,f,021_o_f_h_a.jpg,happy,d,2,2,1285.4624404000351,1285.7570649000118,1285.9768063999945,1285.994409200037,1285.9944710999262,1286.0288231000304,1286.0286014999729,1286.829733200022,s,0,1286.0286014999729,1286.829733200022,1286.839115699986,1288.6570635000244,0.7855989000527188,785.5989000527188,EMOCONPILOT007,2020_Dec_30_1509,EmoCon_Pilot_120Hz,2020.2.4,119.81414427901761,
,,,,1,0,1,0,83,0,83,0,,,,,,,,,,,,,,,,,,,,,,,,,,,,,,,,,,,,,,,,,,,,,,83,6.0,m,033_o_m_h_a.jpg,happy,d,17,2,1288.6610383000225,1288.9571137999883,1288.9773128000088,1289.1088401000015,1289.1139137999853,1289.1546868999721,1289.1597179999808,1289.687591199996,d,1,1289.1597179999808,1289.687591199996,1289.6991718999343,1291.1822165999329,0.5184592000441626,518.4592000441626,EMOCONPILOT007,2020_Dec_30_1509,EmoCon_Pilot_120Hz,2020.2.4,119.81414427901761,
,,,,1,0,1,0,84,0,84,0,,,,,,,,,,,,,,,,,,,,,,,,,,,,,,,,,,,,,,,,,,,,,,84,2.0,m,008_y_m_n_a.jpg,neutral,s,2,2,1291.188161100028,1291.482188199996,1291.712651400012,1291.729848499992,1291.7327239000006,1291.7726626000367,1291.7776683999691,1292.5737858000211,s,1,1291.7776683999691,1292.5737858000211,1292.5818289000308,1293.9987872999627,0.7804648000746965,780.4648000746965,EMOCONPILOT007,2020_Dec_30_1509,EmoCon_Pilot_120Hz,2020.2.4,119.81414427901761,
,,,,1,0,1,0,85,0,85,0,,,,,,,,,,,,,,,,,,,,,,,,,,,,,,,,,,,,,,,,,,,,,,85,10.0,f,028_y_f_n_a.jpg,neutral,s,17,2,1294.0015147000086,1294.2987885000184,1294.4902951000258,1294.6432148999302,1294.6479587999638,1294.6890932000242,1294.6939912999514,1295.9671328000259,s,1,1294.6939912999514,1295.9671328000259,1295.9746759999543,1297.1990469000302,1.2643495999509469,1264.3495999509469,EMOCONPILOT007,2020_Dec_30_1509,EmoCon_Pilot_120Hz,2020.2.4,119.81414427901761,
,,,,1,0,1,0,86,0,86,0,,,,,,,,,,,,,,,,,,,,,,,,,,,,,,,,,,,,,,,,,,,,,,86,6.0,m,033_o_m_h_a.jpg,happy,d,2,2,1297.204506100039,1297.4989487000275,1297.5151961999945,1297.5305930000031,1297.5313589000143,1297.5668461000314,1297.5669879999477,1298.3498224000214,d,1,1297.5669879999477,1298.3498224000214,1298.3574568999466,1299.9573304000078,0.7751863000448793,775.1863000448793,EMOCONPILOT007,2020_Dec_30_1509,EmoCon_Pilot_120Hz,2020.2.4,119.81414427901761,
,,,,1,0,1,0,87,0,87,0,,,,,,,,,,,,,,,,,,,,,,,,,,,,,,,,,,,,,,,,,,,,,,87,5.0,m,027_o_m_s_a.jpg,sad,a,2,2,1299.9616104000015,1300.257354500005,1300.272312899935,1300.2875149999745,1300.288280799985,1300.3252392000286,1300.3266895000124,1301.2298411999363,d,0,1300.3266895000124,1301.2298411999363,1301.2414445999311,1302.4908686999697,0.895652599981986,895.652599981986,EMOCONPILOT007,2020_Dec_30_1509,EmoCon_Pilot_120Hz,2020.2.4,119.81414427901761,
,,,,1,0,1,0,88,0,88,0,,,,,,,,,,,,,,,,,,,,,,,,,,,,,,,,,,,,,,,,,,,,,,88,7.0,f,012_o_f_s_a.jpg,sad,a,2,2,1302.496252299985,1302.7908349999925,1302.812890399946,1302.8282372999238,1302.829193099984,1302.866874899948,1302.8669053999474,1303.7027452000184,s,0,1302.8669053999474,1303.7027452000184,1303.7101832999615,1305.0408134999452,0.8271580000873655,827.1580000873655,EMOCONPILOT007,2020_Dec_30_1509,EmoCon_Pilot_120Hz,2020.2.4,119.81414427901761,
,,,,1,0,1,0,89,0,89,0,,,,,,,,,,,,,,,,,,,,,,,,,,,,,,,,,,,,,,,,,,,,,,89,2.0,m,008_y_m_h_a.jpg,happy,d,17,2,1305.0469240000239,1305.3408182000276,1305.3569051999366,1305.492582899984,1305.4960382999852,1305.5358789999736,1305.5400847999845,1307.2959057999542,None,0,1305.5400847999845,1307.2959057999542,1307.3031654999359,1309.2574659000384,,,EMOCONPILOT007,2020_Dec_30_1509,EmoCon_Pilot_120Hz,2020.2.4,119.81414427901761,
,,,,1,0,1,0,90,0,90,0,,,,,,,,,,,,,,,,,,,,,,,,,,,,,,,,,,,,,,,,,,,,,,90,7.0,f,012_o_f_h_a.jpg,happy,d,17,2,1309.260314199957,1309.5575117999688,1309.57762310002,1309.7091581999557,1309.7123965999344,1309.7504851999693,1309.7534407000057,1310.3973335999763,d,1,1309.7534407000057,1310.3973335999763,1310.4076131000184,1312.2492373000132,0.628721300046891,628.721300046891,EMOCONPILOT007,2020_Dec_30_1509,EmoCon_Pilot_120Hz,2020.2.4,119.81414427901761,
,,,,1,0,1,0,91,0,91,0,,,,,,,,,,,,,,,,,,,,,,,,,,,,,,,,,,,,,,,,,,,,,,91,10.0,f,028_y_f_s_a.jpg,sad,a,2,2,1312.2532703999896,1312.5492934000213,1312.5706302999752,1312.5862567999866,1312.5868005999364,1312.6234980999725,1312.6236891000299,1314.0999348999467,s,0,1312.6236891000299,1314.0999348999467,1314.1082982999505,1315.7077741000103,1.462396000046283,1462.396000046283,EMOCONPILOT007,2020_Dec_30_1509,EmoCon_Pilot_120Hz,2020.2.4,119.81414427901761,
,,,,1,0,1,0,92,0,92,0,,,,,,,,,,,,,,,,,,,,,,,,,,,,,,,,,,,,,,,,,,,,,,92,12.0,f,040_y_f_s_a.jpg,sad,a,2,2,1315.7130359000294,1316.0077080000192,1316.0327682000352,1316.0486043000128,1316.0495528000174,1316.083752400009,1316.0850923999678,1317.7407672000118,None,0,1316.0850923999678,1317.7407672000118,1317.7457426999463,1319.599428699934,,,EMOCONPILOT007,2020_Dec_30_1509,EmoCon_Pilot_120Hz,2020.2.4,119.81414427901761,
,,,,1,0,1,0,93,0,93,0,,,,,,,,,,,,,,,,,,,,,,,,,,,,,,,,,,,,,,,,,,,,,,93,2.0,m,008_y_m_n_a.jpg,neutral,s,2,2,1319.6052833999274,1319.8994109999621,1320.1359929000027,1320.153488199925,1320.1542048000265,1320.1917195999995,1320.1961834999966,1320.9428919999627,s,1,1320.1961834999966,1320.9428919999627,1320.949327899958,1322.1661450000247,0.7378368000499904,737.8368000499904,EMOCONPILOT007,2020_Dec_30_1509,EmoCon_Pilot_120Hz,2020.2.4,119.81414427901761,
,,,,1,0,1,0,94,0,94,0,,,,,,,,,,,,,,,,,,,,,,,,,,,,,,,,,,,,,,,,,,,,,,94,11.0,f,030_o_f_s_a.jpg,sad,a,2,2,1322.1702043999685,1322.4662193999393,1322.6691945999628,1322.686604199931,1322.689526699949,1322.7262098999927,1322.7309626999777,1323.3816623999737,s,0,1322.7309626999777,1323.3816623999737,1323.3918549999362,1325.0496234999737,0.6352434000000358,635.2434000000358,EMOCONPILOT007,2020_Dec_30_1509,EmoCon_Pilot_120Hz,2020.2.4,119.81414427901761,
,,,,1,0,1,0,95,0,95,0,,,,,,,,,,,,,,,,,,,,,,,,,,,,,,,,,,,,,,,,,,,,,,95,9.0,f,021_o_f_n_a.jpg,neutral,s,2,2,1325.0556182999862,1325.3496793999802,1325.553628899972,1325.570990899927,1325.5712119999807,1325.6091147999978,1325.6143609000137,1326.5195681999903,s,1,1325.6143609000137,1326.5195681999903,1326.531746499939,1328.4579639999429,0.8880521999672055,888.0521999672055,EMOCONPILOT007,2020_Dec_30_1509,EmoCon_Pilot_120Hz,2020.2.4,119.81414427901761,
,,,,1,0,1,0,96,0,96,0,,,,,,,,,,,,,,,,,,,,,,,,,,,,,,,,,,,,,,,,,,,,,,96,6.0,m,033_o_m_h_a.jpg,happy,d,17,2,1328.4640302000334,1328.758041699999,1328.7721420000307,1328.9095545000164,1328.9123304999666,1328.950853599934,1328.953756300034,1329.4304665999953,d,1,1328.953756300034,1329.4304665999953,1329.4393871999346,1331.3747645999538,0.46845679997932166,468.45679997932166,EMOCONPILOT007,2020_Dec_30_1509,EmoCon_Pilot_120Hz,2020.2.4,119.81414427901761,
