trials_example.thisRepN,trials_example.thisTrialN,trials_example.thisN,trials_example.thisIndex,block.thisRepN,block.thisTrialN,block.thisN,block.thisIndex,trials_study.thisRepN,trials_study.thisTrialN,trials_study.thisN,trials_study.thisIndex,text_welcome.started,text_welcome.stopped,text_intro.started,text_intro.stopped,key_resp_intro.keys,key_resp_intro.started,key_resp_intro.stopped,text_intro2.started,text_intro2.stopped,key_resp_intro2.keys,key_resp_intro2.rt,key_resp_intro2.started,key_resp_intro2.stopped,example trial,personPrimeExample,genderPrimeExample,primeExample,emotionPrimeExample,corrAnsPrimeExample,example mask time,fix300_example.started,fix300_example.stopped,image_primer_example.started,image_primer_example.stopped,scrambled.started,scrambled.stopped,text_response_example.started,text_response_example.stopped,key_resp_example.keys,key_resp_example.corr,key_resp_example.rt,key_resp_example.rt in ms,key_resp_example.started,key_resp_example.stopped,Jitter_example.started,Jitter_example.stopped,text_start.started,text_start.stopped,text_pause.started,text_pause.stopped,key_resp_pause.keys,key_resp_pause.rt,key_resp_pause.rt in ms,key_resp_pause.started,key_resp_pause.stopped,study trial,personPrimeStudy,genderPrimeStudy,primeStudy,emotionPrimeStudy,corrAnsPrimeStudy,study mask time,Block,fix300_study.started,fix300_study.stopped,image_primer_study.started,image_primer_study.stopped,scrambled_study.started,scrambled_study.stopped,text_response_study.started,text_response_study.stopped,key_resp_study.keys,key_resp_study.corr,key_resp_study.rt,key_resp_study.rt in ms,key_resp_study.started,key_resp_study.stopped,Jitter_study.started,Jitter_study.stopped,participant,date,expName,psychopyVersion,frameRate,
,,,,,,,,,,,,346.10989570000675,349.09965581008,349.10100250004325,354.89454460997365,None,349.10100250004325,354.89454460997365,,,,,,,,,,,,,,,,,,,,,,,,,,,,,,,,,,,,,,,,,,,,,,,,,,,,,,,,,,,,,,,EMOCONPILOT006,2020_Dec_30_1414,EmoCon_Pilot_120Hz,2020.2.4,120.29120102822846,
,,,,,,,,,,,,,,,,,,,354.8988536000252,356.6916236100136,a,1.783516600029543,354.8988536000252,356.6916236100136,,,,,,,,,,,,,,,,,,,,,,,,,,,,,,,,,,,,,,,,,,,,,,,,,,,,,,,,,EMOCONPILOT006,2020_Dec_30_1414,EmoCon_Pilot_120Hz,2020.2.4,120.29120102822846,
0,0,0,0,,,,,,,,,,,,,,,,,,,,,,0,3.0,f,1113_y_f_s_a.jpg,sad,a,17,356.6975968000479,356.9912898100796,357.82593170006294,357.9797909100656,357.99210590007715,358.02820961006216,358.0288889000658,358.777762410033,a,1,0.733360500074923,733.360500074923,358.0288889000658,358.777762410033,358.783051699982,359.8581332100206,,,,,,,,,,,,,,,,,,,,,,,,,,,,,,,,,,EMOCONPILOT006,2020_Dec_30_1414,EmoCon_Pilot_120Hz,2020.2.4,120.29120102822846,
1,0,1,0,,,,,,,,,,,,,,,,,,,,,,1,1.0,m,1111_m_m_s_a.jpg,sad,a,17,359.8599892000202,360.1582145099877,360.3597727000015,360.5279645100585,360.53058310004417,360.57125340999335,360.5743918999797,360.86933821000855,s,0,0.28396529995370656,283.96529995370656,360.5743918999797,360.86933821000855,360.87472459999844,362.11662421006474,,,,,,,,,,,,,,,,,,,,,,,,,,,,,,,,,,EMOCONPILOT006,2020_Dec_30_1414,EmoCon_Pilot_120Hz,2020.2.4,120.29120102822846,
2,0,2,0,,,,,,,,,,,,,,,,,,,,,,2,3.0,f,1113_y_f_n_a.jpg,neutral,s,3,362.1188755000476,362.4165404100553,362.6092255000258,362.63585061001356,362.6366943999892,362.6724227100261,362.6731027000351,363.4325726100127,d,0,0.7451304999412969,745.1304999412969,362.6731027000351,363.4325726100127,363.4355495000491,364.54158291002966,,,,,,,,,,,,,,,,,,,,,,,,,,,,,,,,,,EMOCONPILOT006,2020_Dec_30_1414,EmoCon_Pilot_120Hz,2020.2.4,120.29120102822846,
3,0,3,0,,,,,,,,,,,,,,,,,,,,,,3,2.0,f,1112_m_f_h_a.jpg,happy,d,17,364.5435997999739,364.8416867100517,365.0365788000636,365.19947790998265,365.20231199997943,365.24320581000063,365.2461835000431,365.601969310001,d,1,0.34813439997378737,348.13439997378737,365.2461835000431,365.601969310001,365.6070154000772,367.5249915100052,,,,,,,,,,,,,,,,,,,,,,,,,,,,,,,,,,EMOCONPILOT006,2020_Dec_30_1414,EmoCon_Pilot_120Hz,2020.2.4,120.29120102822846,
4,0,4,0,,,,,,,,,,,,,,,,,,,,,,4,2.0,f,1112_m_f_n_a.jpg,neutral,s,17,367.5281187000219,367.825003810029,368.0236906000646,368.184176910005,368.1865585000487,368.22666851003885,368.2298311999766,368.7074005100061,s,1,0.4685194999910891,468.5194999910891,368.2298311999766,368.7074005100061,368.7127089999849,370.38337961005743,,,,,,,,,,,,,,,,,,,,,,,,,,,,,,,,,,EMOCONPILOT006,2020_Dec_30_1414,EmoCon_Pilot_120Hz,2020.2.4,120.29120102822846,
,,,,0,0,0,0,0,0,0,0,,,,,,,,,,,,,,,,,,,,,,,,,,,,,,,,,,,,,370.43949440005235,373.4334473100374,373.43784190004226,375.04416601002447,a,1.5962704000994563,1596.2704000994563,373.43784190004226,375.04416601002447,0,8.0,f,019_m_f_s_a.jpg,sad,a,17,1,375.05038560007233,375.3418292099726,375.96874989999924,376.13238811007466,376.1372557000723,376.17814391005084,376.185561100021,376.635531310027,a,1,0.4404823000077158,440.4823000077158,376.185561100021,376.635531310027,376.6440457999706,377.6668258100166,EMOCONPILOT006,2020_Dec_30_1414,EmoCon_Pilot_120Hz,2020.2.4,120.29120102822846,
,,,,0,0,0,0,1,0,1,0,,,,,,,,,,,,,,,,,,,,,,,,,,,,,,,,,,,,,,,,,,,,,,1,6.0,m,033_o_m_n_a.jpg,neutral,s,17,1,377.67222569999285,377.96694771006,378.169931899989,378.3317328100442,378.3352136000758,378.3740339100244,378.37587640003767,378.8093772100168,s,1,0.42629860003944486,426.29860003944486,378.37587640003767,378.8093772100168,378.8182487000013,380.7919567099656,EMOCONPILOT006,2020_Dec_30_1414,EmoCon_Pilot_120Hz,2020.2.4,120.29120102822846,
,,,,0,0,0,0,2,0,2,0,,,,,,,,,,,,,,,,,,,,,,,,,,,,,,,,,,,,,,,,,,,,,,2,2.0,m,008_y_m_s_a.jpg,sad,a,3,1,380.7960820000153,381.09192230998303,381.3293148999801,381.3548100099782,381.3554606999969,381.3930452099652,381.39446700003464,382.0401104099932,d,0,0.6316885999403894,631.6885999403894,381.39446700003464,382.0401104099932,382.0468654000433,383.55033640997715,EMOCONPILOT006,2020_Dec_30_1414,EmoCon_Pilot_120Hz,2020.2.4,120.29120102822846,
,,,,0,0,0,0,3,0,3,0,,,,,,,,,,,,,,,,,,,,,,,,,,,,,,,,,,,,,,,,,,,,,,3,11.0,f,030_o_f_h_a.jpg,happy,d,17,1,383.5556860000361,383.8503398100496,384.0469800999854,384.19992991004835,384.20224650006276,384.2390217100386,384.2420217000181,384.64857251002684,d,1,0.39233259996399283,392.33259996399283,384.2420217000181,384.64857251002684,384.6578374999808,385.9588240100187,EMOCONPILOT006,2020_Dec_30_1414,EmoCon_Pilot_120Hz,2020.2.4,120.29120102822846,
,,,,0,0,0,0,4,0,4,0,,,,,,,,,,,,,,,,,,,,,,,,,,,,,,,,,,,,,,,,,,,,,,4,11.0,f,030_o_f_s_a.jpg,sad,a,17,1,385.96203130006324,386.2587613100535,386.454872500035,386.6225124100805,386.6272510000272,386.666567010025,386.6664074000437,387.53119281007673,a,1,0.8557966999942437,855.7966999942437,386.6664074000437,387.53119281007673,387.53947109996807,389.1504258100525,EMOCONPILOT006,2020_Dec_30_1414,EmoCon_Pilot_120Hz,2020.2.4,120.29120102822846,
,,,,0,0,0,0,5,0,5,0,,,,,,,,,,,,,,,,,,,,,,,,,,,,,,,,,,,,,,,,,,,,,,5,11.0,f,030_o_f_s_a.jpg,sad,a,3,1,389.15452420001384,389.4504126099986,389.6509347000392,389.6771950100432,389.6772380999755,389.71264110998015,389.7124244000297,390.6325478100101,a,1,0.9059460000135005,905.9460000135005,389.7124244000297,390.6325478100101,390.6419857000001,391.78376550999235,EMOCONPILOT006,2020_Dec_30_1414,EmoCon_Pilot_120Hz,2020.2.4,120.29120102822846,
,,,,0,0,0,0,6,0,6,0,,,,,,,,,,,,,,,,,,,,,,,,,,,,,,,,,,,,,,,,,,,,,,6,5.0,m,027_o_m_n_a.jpg,neutral,s,3,1,391.7874568999978,392.0838297100621,392.29746350005735,392.32365771002367,392.3242249999894,392.36001471002817,392.3599654000718,393.2042686100234,s,1,0.8341002000961453,834.1002000961453,392.3599654000718,393.2042686100234,393.20883130002767,394.4421784100472,EMOCONPILOT006,2020_Dec_30_1414,EmoCon_Pilot_120Hz,2020.2.4,120.29120102822846,
,,,,0,0,0,0,7,0,7,0,,,,,,,,,,,,,,,,,,,,,,,,,,,,,,,,,,,,,,,,,,,,,,7,8.0,f,019_m_f_n_a.jpg,neutral,s,17,1,394.4463636999717,394.7423405100475,394.980869699968,395.1494272100157,395.15401030005887,395.19447491007156,395.1993020999944,395.54645651000317,s,1,0.33097099990118295,330.97099990118295,395.1993020999944,395.54645651000317,395.55843319999985,396.9257075100089,EMOCONPILOT006,2020_Dec_30_1414,EmoCon_Pilot_120Hz,2020.2.4,120.29120102822846,
,,,,0,0,0,0,8,0,8,0,,,,,,,,,,,,,,,,,,,,,,,,,,,,,,,,,,,,,,,,,,,,,,8,5.0,m,027_o_m_h_a.jpg,happy,d,3,1,396.9313336000778,397.2256135100382,397.44036890007555,397.46635460996765,397.4687593000708,397.5087448100443,397.5138602000661,398.08280681007307,d,1,0.5525699999416247,552.5699999416247,397.5138602000661,398.08280681007307,398.0939541000407,399.70910231004234,EMOCONPILOT006,2020_Dec_30_1414,EmoCon_Pilot_120Hz,2020.2.4,120.29120102822846,
,,,,0,0,0,0,9,0,9,0,,,,,,,,,,,,,,,,,,,,,,,,,,,,,,,,,,,,,,,,,,,,,,9,8.0,f,019_m_f_n_a.jpg,neutral,s,17,1,399.71419009997044,400.0091085100197,400.2540144000668,400.42339931001186,400.428329700022,400.469328010024,400.47438130003866,400.84106670998733,s,1,0.35191490000579506,351.91490000579506,400.47438130003866,400.84106670998733,400.8524138000794,402.2589900100487,EMOCONPILOT006,2020_Dec_30_1414,EmoCon_Pilot_120Hz,2020.2.4,120.29120102822846,
,,,,0,0,0,0,10,0,10,0,,,,,,,,,,,,,,,,,,,,,,,,,,,,,,,,,,,,,,,,,,,,,,10,11.0,f,030_o_f_h_a.jpg,happy,d,3,1,402.26287460001186,402.55900891000636,402.7648018000182,402.7911202099989,402.7915584000293,402.8269714099937,402.826873300015,403.39353640998013,d,1,0.5515167999546975,551.5167999546975,402.826873300015,403.39353640998013,403.4052227999782,404.825812010013,EMOCONPILOT006,2020_Dec_30_1414,EmoCon_Pilot_120Hz,2020.2.4,120.29120102822846,
,,,,0,0,0,0,11,0,11,0,,,,,,,,,,,,,,,,,,,,,,,,,,,,,,,,,,,,,,,,,,,,,,11,3.0,m,013_y_m_s_a.jpg,sad,a,17,1,404.83106120000593,405.1257380100782,405.23744050005917,405.3690612099948,405.37210699997377,405.41118751004103,405.41521320003085,406.06081411001503,a,1,0.6348790000192821,634.8790000192821,405.41521320003085,406.06081411001503,406.0683546999935,407.825845210033,EMOCONPILOT006,2020_Dec_30_1414,EmoCon_Pilot_120Hz,2020.2.4,120.29120102822846,
,,,,0,0,0,0,12,0,12,0,,,,,,,,,,,,,,,,,,,,,,,,,,,,,,,,,,,,,,,,,,,,,,12,12.0,f,040_y_f_n_a.jpg,neutral,s,3,1,407.83004899998195,408.1258342099958,408.3462393999798,408.37217071003977,408.3723478000611,408.40652701006036,408.406293499982,409.5170719100046,d,0,1.0998684000223875,1099.8684000223875,408.406293499982,409.5170719100046,409.52480890008155,410.56754871007286,EMOCONPILOT006,2020_Dec_30_1414,EmoCon_Pilot_120Hz,2020.2.4,120.29120102822846,
,,,,0,0,0,0,13,0,13,0,,,,,,,,,,,,,,,,,,,,,,,,,,,,,,,,,,,,,,,,,,,,,,13,12.0,f,040_y_f_h_a.jpg,happy,d,17,1,410.571737500024,410.8675580100738,410.8876099999761,411.0192050100653,411.02202240005136,411.0604581099818,411.0632861000486,411.5151505100424,d,1,0.44282349990680814,442.82349990680814,411.0632861000486,411.5151505100424,411.52466500003356,412.7426440100302,EMOCONPILOT006,2020_Dec_30_1414,EmoCon_Pilot_120Hz,2020.2.4,120.29120102822846,
,,,,0,0,0,0,14,0,14,0,,,,,,,,,,,,,,,,,,,,,,,,,,,,,,,,,,,,,,,,,,,,,,14,7.0,f,012_o_f_h_a.jpg,happy,d,17,1,412.74680279998574,413.0426358100143,413.0613016000716,413.19419631004564,413.1973760999972,413.23564241003476,413.2395932000363,413.6119817099883,d,1,0.3625977999763563,362.5977999763563,413.2395932000363,413.6119817099883,413.62313469999935,415.3010105099878,EMOCONPILOT006,2020_Dec_30_1414,EmoCon_Pilot_120Hz,2020.2.4,120.29120102822846,
,,,,0,0,0,0,15,0,15,0,,,,,,,,,,,,,,,,,,,,,,,,,,,,,,,,,,,,,,,,,,,,,,15,9.0,f,021_o_f_n_a.jpg,neutral,s,3,1,415.30644880002365,415.6010135100572,416.0719273000723,416.09779330998424,416.09787499997765,416.1355941100395,416.1409463000018,416.69785101005107,d,0,0.5490584000945091,549.0584000945091,416.1409463000018,416.69785101005107,416.7024515999947,418.3844060100731,EMOCONPILOT006,2020_Dec_30_1414,EmoCon_Pilot_120Hz,2020.2.4,120.29120102822846,
,,,,0,0,0,0,16,0,16,0,,,,,,,,,,,,,,,,,,,,,,,,,,,,,,,,,,,,,,,,,,,,,,16,10.0,f,028_y_f_s_a.jpg,sad,a,17,1,418.3906689999858,418.68443941002477,418.70691519998945,418.84438530999466,418.8485911000753,418.88930310999274,418.8935921000084,419.5453131100279,a,1,0.63680460001342,636.80460001342,418.8935921000084,419.5453131100279,419.5532355000032,420.7761332099675,EMOCONPILOT006,2020_Dec_30_1414,EmoCon_Pilot_120Hz,2020.2.4,120.29120102822846,
,,,,0,0,0,0,17,0,17,0,,,,,,,,,,,,,,,,,,,,,,,,,,,,,,,,,,,,,,,,,,,,,,17,10.0,f,028_y_f_h_a.jpg,happy,d,3,1,420.7804164000554,421.0761240100604,421.0905541999964,421.1132283100509,421.1137674000347,421.1523650100338,421.15366519999225,422.633750609972,d,1,1.4724731999449432,1472.4731999449432,421.15366519999225,422.633750609972,422.6400743999984,423.717825909995,EMOCONPILOT006,2020_Dec_30_1414,EmoCon_Pilot_120Hz,2020.2.4,120.29120102822846,
,,,,0,0,0,0,18,0,18,0,,,,,,,,,,,,,,,,,,,,,,,,,,,,,,,,,,,,,,,,,,,,,,18,9.0,f,021_o_f_h_a.jpg,happy,d,17,1,423.72204500006046,424.0178059100057,424.2397620000411,424.40585611007407,424.40939000004437,424.44990951000943,424.4546980999876,424.7793999100453,d,1,0.3156787999905646,315.6787999905646,424.4546980999876,424.7793999100453,424.79273270000704,426.32630121001273,EMOCONPILOT006,2020_Dec_30_1414,EmoCon_Pilot_120Hz,2020.2.4,120.29120102822846,
,,,,0,0,0,0,19,0,19,0,,,,,,,,,,,,,,,,,,,,,,,,,,,,,,,,,,,,,,,,,,,,,,19,6.0,m,033_o_m_h_a.jpg,happy,d,3,1,426.3318323000567,426.6262476100004,426.6653199000284,426.68784140996866,426.68799950007815,426.7274458100204,426.72886999999173,427.17016081003237,d,1,0.4334925999864936,433.4925999864936,426.72886999999173,427.17016081003237,427.17854690004606,428.72625501003347,EMOCONPILOT006,2020_Dec_30_1414,EmoCon_Pilot_120Hz,2020.2.4,120.29120102822846,
,,,,0,0,0,0,20,0,20,0,,,,,,,,,,,,,,,,,,,,,,,,,,,,,,,,,,,,,,,,,,,,,,20,1.0,m,004_o_m_h_a.jpg,happy,d,17,1,428.73030459997244,429.0262662100489,429.229295099969,429.3907218099688,429.3956277000252,429.43650151001054,429.44145370007027,429.7070372100337,d,1,0.24890360003337264,248.90360003337264,429.44145370007027,429.7070372100337,429.718685299973,431.38471771000184,EMOCONPILOT006,2020_Dec_30_1414,EmoCon_Pilot_120Hz,2020.2.4,120.29120102822846,
,,,,0,0,0,0,21,0,21,0,,,,,,,,,,,,,,,,,,,,,,,,,,,,,,,,,,,,,,,,,,,,,,21,2.0,m,008_y_m_s_a.jpg,sad,a,17,1,431.3901751000667,431.684741009993,431.9241557000205,432.08666260997995,432.0921232000692,432.1333434100146,432.1381298999768,432.65664421002145,a,1,0.5042032999917865,504.2032999917865,432.1381298999768,432.65664421002145,432.6683463000227,434.46815121002726,EMOCONPILOT006,2020_Dec_30_1414,EmoCon_Pilot_120Hz,2020.2.4,120.29120102822846,
,,,,0,0,0,0,22,0,22,0,,,,,,,,,,,,,,,,,,,,,,,,,,,,,,,,,,,,,,,,,,,,,,22,4.0,m,016_y_m_s_a.jpg,sad,a,17,1,434.47413210000377,434.7680969100096,434.800107600051,434.9363966100267,434.93980609998107,434.9779460099875,434.9824168999912,435.4964708100655,a,1,0.4998359999153763,499.8359999153763,434.9824168999912,435.4964708100655,435.5059428999666,437.21812820996854,EMOCONPILOT006,2020_Dec_30_1414,EmoCon_Pilot_120Hz,2020.2.4,120.29120102822846,
,,,,0,0,0,0,23,0,23,0,,,,,,,,,,,,,,,,,,,,,,,,,,,,,,,,,,,,,,,,,,,,,,23,8.0,f,019_m_f_h_a.jpg,happy,d,17,1,437.2222637999803,437.5181067099678,437.5370365000563,437.66992570998843,437.6736118000699,437.71110561004605,437.7142674999777,438.05804701001614,d,1,0.3358806000323966,335.8806000323966,437.7142674999777,438.05804701001614,438.0679588000057,439.98493140997596,EMOCONPILOT006,2020_Dec_30_1414,EmoCon_Pilot_120Hz,2020.2.4,120.29120102822846,
,,,,0,0,0,0,24,0,24,0,,,,,,,,,,,,,,,,,,,,,,,,,,,,,,,,,,,,,,,,,,,,,,24,8.0,f,019_m_f_h_a.jpg,happy,d,17,1,439.9909448999679,440.2848662099917,440.3122314000502,440.4448297099792,440.44801920000464,440.48724130998596,440.4923117000144,440.67581481001105,d,1,0.1660538000287488,166.0538000287488,440.4923117000144,440.67581481001105,440.68714230007026,442.6682624100125,EMOCONPILOT006,2020_Dec_30_1414,EmoCon_Pilot_120Hz,2020.2.4,120.29120102822846,
,,,,0,0,0,0,25,0,25,0,,,,,,,,,,,,,,,,,,,,,,,,,,,,,,,,,,,,,,,,,,,,,,25,4.0,m,016_y_m_n_a.jpg,neutral,s,17,1,442.67447690002155,442.9683038100251,443.25449630001094,443.41209840999215,443.4166929000057,443.45775331001494,443.4628757999744,444.0139508099877,s,1,0.5391155999386683,539.1155999386683,443.4628757999744,444.0139508099877,444.0172545000678,445.72667490997117,EMOCONPILOT006,2020_Dec_30_1414,EmoCon_Pilot_120Hz,2020.2.4,120.29120102822846,
,,,,0,0,0,0,26,0,26,0,,,,,,,,,,,,,,,,,,,,,,,,,,,,,,,,,,,,,,,,,,,,,,26,4.0,m,016_y_m_h_a.jpg,happy,d,3,1,445.73300930007827,446.0266269100015,446.0472129000118,446.06900041006736,446.0698540000012,446.1044067100505,446.1047166000353,446.70831490998387,d,1,0.5934423999860883,593.4423999860883,446.1047166000353,446.70831490998387,446.71203769999556,448.01003480997167,EMOCONPILOT006,2020_Dec_30_1414,EmoCon_Pilot_120Hz,2020.2.4,120.29120102822846,
,,,,0,0,0,0,27,0,27,0,,,,,,,,,,,,,,,,,,,,,,,,,,,,,,,,,,,,,,,,,,,,,,27,8.0,f,019_m_f_h_a.jpg,happy,d,3,1,448.01556640001945,448.3101422100211,448.3324322999688,448.3551348100067,448.3559714000439,448.3945954100112,448.3958256000187,448.865576210001,d,1,0.4624088000273332,462.4088000273332,448.3958256000187,448.865576210001,448.8742353999987,449.95997731006935,EMOCONPILOT006,2020_Dec_30_1414,EmoCon_Pilot_120Hz,2020.2.4,120.29120102822846,
,,,,0,0,0,0,28,0,28,0,,,,,,,,,,,,,,,,,,,,,,,,,,,,,,,,,,,,,,,,,,,,,,28,8.0,f,019_m_f_s_a.jpg,sad,a,17,1,449.9638390999753,450.26019891005706,450.52005940000527,450.69136741004183,450.6962107999716,450.73734740997895,450.7423479000572,451.2197246100171,a,1,0.46004539995919913,460.04539995919913,450.7423479000572,451.2197246100171,451.227304500062,452.98514081005703,EMOCONPILOT006,2020_Dec_30_1414,EmoCon_Pilot_120Hz,2020.2.4,120.29120102822846,
,,,,0,0,0,0,29,0,29,0,,,,,,,,,,,,,,,,,,,,,,,,,,,,,,,,,,,,,,,,,,,,,,29,10.0,f,028_y_f_n_a.jpg,neutral,s,3,1,452.9907541000284,453.2851617100299,453.483400600031,453.5091861100285,453.51197400002275,453.5512095099897,453.5563180000754,454.23756030997026,s,1,0.6699673000257462,669.9673000257462,453.5563180000754,454.23756030997026,454.24925840005744,456.11018031000856,EMOCONPILOT006,2020_Dec_30_1414,EmoCon_Pilot_120Hz,2020.2.4,120.29120102822846,
,,,,0,0,0,0,30,0,30,0,,,,,,,,,,,,,,,,,,,,,,,,,,,,,,,,,,,,,,,,,,,,,,30,12.0,f,040_y_f_n_a.jpg,neutral,s,17,1,456.1145583000034,456.41016261003676,456.6366041000001,456.79552561001617,456.8002253000159,456.8409568099654,456.8460873999866,457.28255911000304,s,1,0.42010029999073595,420.10029999073595,456.8460873999866,457.28255911000304,457.2929662000388,458.94368011007316,EMOCONPILOT006,2020_Dec_30_1414,EmoCon_Pilot_120Hz,2020.2.4,120.29120102822846,
,,,,0,0,0,0,31,0,31,0,,,,,,,,,,,,,,,,,,,,,,,,,,,,,,,,,,,,,,,,,,,,,,31,5.0,m,027_o_m_n_a.jpg,neutral,s,17,1,458.94905950000975,459.2436961100087,459.45591630006675,459.6156435100478,459.62035029998515,459.66141591003395,459.6665316000581,460.1332289100741,s,1,0.455549499951303,455.549499951303,459.6665316000581,460.1332289100741,460.13661689998116,461.41028861006487,EMOCONPILOT006,2020_Dec_30_1414,EmoCon_Pilot_120Hz,2020.2.4,120.29120102822846,
,,,,0,0,0,0,32,0,32,0,,,,,,,,,,,,,,,,,,,,,,,,,,,,,,,,,,,,,,,,,,,,,,32,8.0,f,019_m_f_n_a.jpg,neutral,s,17,1,461.4163844999857,461.71029581004984,461.94815599999856,462.10712501002706,462.1119246999733,462.15279641005907,462.1577540000435,462.54383910998,s,1,0.37283700006082654,372.83700006082654,462.1577540000435,462.54383910998,462.553577600047,463.65199330999747,EMOCONPILOT006,2020_Dec_30_1414,EmoCon_Pilot_120Hz,2020.2.4,120.29120102822846,
,,,,0,0,0,0,33,0,33,0,,,,,,,,,,,,,,,,,,,,,,,,,,,,,,,,,,,,,,,,,,,,,,33,4.0,m,016_y_m_n_a.jpg,neutral,s,17,1,463.6557286999887,463.95211151001274,464.188244100078,464.3459671100485,464.3505203999812,464.38926531005416,464.39077649998944,464.6453466100269,s,1,0.24332539993338287,243.32539993338287,464.39077649998944,464.6453466100269,464.6506639000727,466.14376301007576,EMOCONPILOT006,2020_Dec_30_1414,EmoCon_Pilot_120Hz,2020.2.4,120.29120102822846,
,,,,0,0,0,0,34,0,34,0,,,,,,,,,,,,,,,,,,,,,,,,,,,,,,,,,,,,,,,,,,,,,,34,11.0,f,030_o_f_n_a.jpg,neutral,s,3,1,466.14793470001314,466.4438257100177,466.6449510999955,466.67103791007537,466.6717695000116,466.7067241099779,466.70837550004944,467.23998591004636,d,0,0.5177917999681085,517.7917999681085,466.70837550004944,467.23998591004636,467.2446789999958,468.6772384100244,EMOCONPILOT006,2020_Dec_30_1414,EmoCon_Pilot_120Hz,2020.2.4,120.29120102822846,
,,,,0,0,0,0,35,0,35,0,,,,,,,,,,,,,,,,,,,,,,,,,,,,,,,,,,,,,,,,,,,,,,35,9.0,f,021_o_f_h_a.jpg,happy,d,3,1,468.68255050003063,468.97725111005127,469.1935863000108,469.21923611002273,469.2225395999849,469.26277021007843,469.26785200007726,469.6741769099957,d,1,0.39856669993605465,398.56669993605465,469.26785200007726,469.6741769099957,469.68083840003237,470.7855327100609,EMOCONPILOT006,2020_Dec_30_1414,EmoCon_Pilot_120Hz,2020.2.4,120.29120102822846,
,,,,0,0,0,0,36,0,36,0,,,,,,,,,,,,,,,,,,,,,,,,,,,,,,,,,,,,,,,,,,,,,,36,11.0,f,030_o_f_s_a.jpg,sad,a,17,1,470.7897609000793,471.08554101005427,471.2905294999946,471.45456501006845,471.45886520005297,471.49939221007514,471.50443520001136,471.8287180100218,a,1,0.31392029998824,313.92029998824,471.50443520001136,471.8287180100218,471.836270699976,472.8938720099744,EMOCONPILOT006,2020_Dec_30_1414,EmoCon_Pilot_120Hz,2020.2.4,120.29120102822846,
,,,,0,0,0,0,37,0,37,0,,,,,,,,,,,,,,,,,,,,,,,,,,,,,,,,,,,,,,,,,,,,,,37,12.0,f,040_y_f_n_a.jpg,neutral,s,17,1,472.89914320001844,473.19393391002666,473.41375409998,473.57083860997807,473.57415390003007,473.61171121002405,473.61507379997056,474.012002310052,s,1,0.3870996000478044,387.0996000478044,473.61507379997056,474.012002310052,474.0201597000705,475.5189652099856,EMOCONPILOT006,2020_Dec_30_1414,EmoCon_Pilot_120Hz,2020.2.4,120.29120102822846,
,,,,0,0,0,0,38,0,38,0,,,,,,,,,,,,,,,,,,,,,,,,,,,,,,,,,,,,,,,,,,,,,,38,9.0,f,021_o_f_s_a.jpg,sad,a,17,1,475.5243117000209,475.81898621007565,475.84023710002657,475.97060520997036,475.97363819996826,476.0118363100686,476.01544610003475,476.57079961003035,a,1,0.5388772999867797,538.8772999867797,476.01544610003475,476.57079961003035,476.5803945000516,478.23573351002995,EMOCONPILOT006,2020_Dec_30_1414,EmoCon_Pilot_120Hz,2020.2.4,120.29120102822846,
,,,,0,0,0,0,39,0,39,0,,,,,,,,,,,,,,,,,,,,,,,,,,,,,,,,,,,,,,,,,,,,,,39,4.0,m,016_y_m_n_a.jpg,neutral,s,3,1,478.2413585999748,478.5355702099972,478.8393659000285,478.86511710999764,478.8696840000339,478.90899450998984,478.91386319999583,479.4302500100224,s,1,0.5044286999618635,504.42869996186346,478.91386319999583,479.4302500100224,479.4436597999884,480.6774982100236,EMOCONPILOT006,2020_Dec_30_1414,EmoCon_Pilot_120Hz,2020.2.4,120.29120102822846,
,,,,0,0,0,0,40,0,40,0,,,,,,,,,,,,,,,,,,,,,,,,,,,,,,,,,,,,,,,,,,,,,,40,9.0,f,021_o_f_s_a.jpg,sad,a,17,1,480.68275280005764,480.9774559099809,481.0022589999717,481.13738491005495,481.1409634000156,481.1818665099912,481.18630900001153,481.97018871005855,a,1,0.7682391999987885,768.2391999987885,481.18630900001153,481.97018871005855,481.98098950006533,483.3607478100224,EMOCONPILOT006,2020_Dec_30_1414,EmoCon_Pilot_120Hz,2020.2.4,120.29120102822846,
,,,,0,0,0,0,41,0,41,0,,,,,,,,,,,,,,,,,,,,,,,,,,,,,,,,,,,,,,,,,,,,,,41,11.0,f,030_o_f_h_a.jpg,happy,d,3,1,483.3647653000662,483.66073981000807,483.87748160003684,483.9026514100027,483.90317569999024,483.9395292100147,483.93934819998685,484.5446679100045,d,1,0.5909705000231043,590.9705000231043,483.93934819998685,484.5446679100045,484.5539052999811,485.8775071100448,EMOCONPILOT006,2020_Dec_30_1414,EmoCon_Pilot_120Hz,2020.2.4,120.29120102822846,
,,,,0,0,0,0,42,0,42,0,,,,,,,,,,,,,,,,,,,,,,,,,,,,,,,,,,,,,,,,,,,,,,42,4.0,m,016_y_m_h_a.jpg,happy,d,3,1,485.8828574999934,486.1776154099847,486.1997941000154,486.22273170998085,486.2236408999888,486.26209561006397,486.2632261000108,486.95435961001783,d,1,0.6829304000129923,682.9304000129923,486.2632261000108,486.95435961001783,486.95796230004635,488.43586631006326,EMOCONPILOT006,2020_Dec_30_1414,EmoCon_Pilot_120Hz,2020.2.4,120.29120102822846,
,,,,0,0,0,0,43,0,43,0,,,,,,,,,,,,,,,,,,,,,,,,,,,,,,,,,,,,,,,,,,,,,,43,1.0,m,004_o_m_s_a.jpg,sad,a,17,1,488.44087679998484,488.735883910011,488.75374289997853,488.8875464100041,488.8911484000273,488.93011041000716,488.9353427999886,489.44422551003515,a,1,0.4989717999706045,498.9717999706045,488.9353427999886,489.44422551003515,489.45580920006614,490.99441921004325,EMOCONPILOT006,2020_Dec_30_1414,EmoCon_Pilot_120Hz,2020.2.4,120.29120102822846,
,,,,0,0,0,0,44,0,44,0,,,,,,,,,,,,,,,,,,,,,,,,,,,,,,,,,,,,,,,,,,,,,,44,4.0,m,016_y_m_h_a.jpg,happy,d,3,1,491.0006140000187,491.29438930997856,491.3186628000112,491.34146791001547,491.34307020006236,491.3786665100255,491.37885199999437,491.9338297100388,d,1,0.5433318000286818,543.3318000286818,491.37885199999437,491.9338297100388,491.94219289999455,493.2526747100404,EMOCONPILOT006,2020_Dec_30_1414,EmoCon_Pilot_120Hz,2020.2.4,120.29120102822846,
,,,,0,0,0,0,45,0,45,0,,,,,,,,,,,,,,,,,,,,,,,,,,,,,,,,,,,,,,,,,,,,,,45,7.0,f,012_o_f_s_a.jpg,sad,a,17,1,493.2566050000023,493.55268851007565,493.5707446000306,493.7043447100208,493.7080043000169,493.7455010100151,493.74871610000264,494.160099910025,a,1,0.3975312999682501,397.5312999682501,493.74871610000264,494.160099910025,494.1701648000162,496.16100581005446,EMOCONPILOT006,2020_Dec_30_1414,EmoCon_Pilot_120Hz,2020.2.4,120.29120102822846,
,,,,0,0,0,0,46,0,46,0,,,,,,,,,,,,,,,,,,,,,,,,,,,,,,,,,,,,,,,,,,,,,,46,8.0,f,019_m_f_n_a.jpg,neutral,s,17,1,496.1613227999769,496.4610446100472,496.7196905000601,496.87948600997913,496.8840996000217,496.92506010996874,496.9300962999696,497.144491910038,s,1,0.20007189991883934,200.07189991883934,496.9300962999696,497.144491910038,497.1473826000001,498.8444193100207,EMOCONPILOT006,2020_Dec_30_1414,EmoCon_Pilot_120Hz,2020.2.4,120.29120102822846,
,,,,0,0,0,0,47,0,47,0,,,,,,,,,,,,,,,,,,,,,,,,,,,,,,,,,,,,,,,,,,,,,,47,2.0,m,008_y_m_h_a.jpg,happy,d,3,1,498.84983329998795,499.1444244099897,499.1645132000558,499.18705471003193,499.1879298000131,499.2244164100033,499.22490290005226,499.93081441001266,d,1,0.6975250999676064,697.5250999676064,499.22490290005226,499.93081441001266,499.941457399982,501.6195135100628,EMOCONPILOT006,2020_Dec_30_1414,EmoCon_Pilot_120Hz,2020.2.4,120.29120102822846,
,,,,0,0,0,0,48,0,48,0,,,,,,,,,,,,,,,,,,,,,,,,,,,,,,,,,,,,,,,,,,,,,,48,12.0,f,040_y_f_n_a.jpg,neutral,s,17,1,501.6237420999678,501.91948711002476,502.1434807999758,502.30883920999474,502.3121554000536,502.3532099100179,502.357182100066,502.763179010048,s,1,0.3973115000408143,397.3115000408143,502.357182100066,502.763179010048,502.7700479000341,504.2945331100258,EMOCONPILOT006,2020_Dec_30_1414,EmoCon_Pilot_120Hz,2020.2.4,120.29120102822846,
,,,,0,0,0,0,49,0,49,0,,,,,,,,,,,,,,,,,,,,,,,,,,,,,,,,,,,,,,,,,,,,,,49,11.0,f,030_o_f_n_a.jpg,neutral,s,3,1,504.2977948000189,504.59463060999985,504.79888100002427,504.8250726099708,504.8258313999977,504.86245021006323,504.86233320005704,505.72749101001534,s,1,0.8519560999702662,851.9560999702662,504.86233320005704,505.72749101001534,505.7357817000011,507.1028968100785,EMOCONPILOT006,2020_Dec_30_1414,EmoCon_Pilot_120Hz,2020.2.4,120.29120102822846,
,,,,0,0,0,0,50,0,50,0,,,,,,,,,,,,,,,,,,,,,,,,,,,,,,,,,,,,,,,,,,,,,,50,8.0,f,019_m_f_h_a.jpg,happy,d,17,1,507.1063304999843,507.402970409987,507.4291450000601,507.56358601005047,507.56815690000076,507.6087895100121,507.61376930004917,508.01960051005005,d,1,0.39664739998988807,396.6473999898881,507.61376930004917,508.01960051005005,508.0311697999714,509.8197923100437,EMOCONPILOT006,2020_Dec_30_1414,EmoCon_Pilot_120Hz,2020.2.4,120.29120102822846,
,,,,0,0,0,0,51,0,51,0,,,,,,,,,,,,,,,,,,,,,,,,,,,,,,,,,,,,,,,,,,,,,,51,8.0,f,019_m_f_n_a.jpg,neutral,s,17,1,509.82508950005285,510.1197161099757,510.48325280006975,510.64988961004417,510.6547795999795,510.69567391000453,510.70071120001376,512.2666343100485,s,1,1.5497022999916226,1549.7022999916226,510.70071120001376,512.2666343100485,512.2773986000102,513.511423310067,EMOCONPILOT006,2020_Dec_30_1414,EmoCon_Pilot_120Hz,2020.2.4,120.29120102822846,
,,,,0,0,0,0,52,0,52,0,,,,,,,,,,,,,,,,,,,,,,,,,,,,,,,,,,,,,,,,,,,,,,52,12.0,f,040_y_f_n_a.jpg,neutral,s,17,1,513.5170421000803,513.8114255100139,514.0248577999882,514.1866051099845,514.191413099994,514.2323587100603,514.237509700004,514.6944202100043,s,1,0.44490700005553663,444.9070000555366,514.237509700004,514.6944202100043,514.7061405000277,516.3281600100803,EMOCONPILOT006,2020_Dec_30_1414,EmoCon_Pilot_120Hz,2020.2.4,120.29120102822846,
,,,,0,0,0,0,53,0,53,0,,,,,,,,,,,,,,,,,,,,,,,,,,,,,,,,,,,,,,,,,,,,,,53,9.0,f,021_o_f_h_a.jpg,happy,d,17,1,516.3335036999779,516.628268810024,516.8474354000064,517.0110830100369,517.0157190000173,517.0570921100792,517.0627159000142,517.5659392100409,d,1,0.49134890001732856,491.34890001732856,517.0627159000142,517.5659392100409,517.5706753999693,519.2615340099786,EMOCONPILOT006,2020_Dec_30_1414,EmoCon_Pilot_120Hz,2020.2.4,120.29120102822846,
,,,,0,0,0,0,54,0,54,0,,,,,,,,,,,,,,,,,,,,,,,,,,,,,,,,,,,,,,,,,,,,,,54,2.0,m,008_y_m_n_a.jpg,neutral,s,3,1,519.2656666999683,519.5616119100363,519.8127745999955,519.8379915099707,519.8379746000282,519.8779591099941,519.8829064000165,520.7281193100265,s,1,0.8313102000392973,831.3102000392973,519.8829064000165,520.7281193100265,520.7338749000337,521.911689010018,EMOCONPILOT006,2020_Dec_30_1414,EmoCon_Pilot_120Hz,2020.2.4,120.29120102822846,
,,,,0,0,0,0,55,0,55,0,,,,,,,,,,,,,,,,,,,,,,,,,,,,,,,,,,,,,,,,,,,,,,55,10.0,f,028_y_f_n_a.jpg,neutral,s,3,1,521.9157802000409,522.2116490099928,522.4166177000152,522.4426396100665,522.4476073000114,522.4887087099836,522.4925599000417,524.3214099100209,None,0,,,522.4925599000417,524.3214099100209,524.3275158000179,525.9533902099705,EMOCONPILOT006,2020_Dec_30_1414,EmoCon_Pilot_120Hz,2020.2.4,120.29120102822846,
,,,,0,0,0,0,56,0,56,0,,,,,,,,,,,,,,,,,,,,,,,,,,,,,,,,,,,,,,,,,,,,,,56,12.0,f,040_y_f_h_a.jpg,happy,d,3,1,525.9588492000476,526.2534324099892,526.2761181000387,526.2983185099787,526.2989378999919,526.3379596100771,526.338107299991,527.012984909967,d,1,0.6643491999711841,664.3491999711841,526.338107299991,527.012984909967,527.0199047999922,528.2034523099777,EMOCONPILOT006,2020_Dec_30_1414,EmoCon_Pilot_120Hz,2020.2.4,120.29120102822846,
,,,,0,0,0,0,57,0,57,0,,,,,,,,,,,,,,,,,,,,,,,,,,,,,,,,,,,,,,,,,,,,,,57,2.0,m,008_y_m_n_a.jpg,neutral,s,17,1,528.2074927000795,528.5034778099856,528.7458368000807,528.9110981100588,528.9159871999873,528.9577122100512,528.9620502999751,529.4589144100086,s,1,0.48834139993414283,488.3413999341428,528.9620502999751,529.4589144100086,529.4704171000049,531.0951035099919,EMOCONPILOT006,2020_Dec_30_1414,EmoCon_Pilot_120Hz,2020.2.4,120.29120102822846,
,,,,0,0,0,0,58,0,58,0,,,,,,,,,,,,,,,,,,,,,,,,,,,,,,,,,,,,,,,,,,,,,,58,9.0,f,021_o_f_n_a.jpg,neutral,s,3,1,531.0989475999959,531.3952217100071,531.6133334999904,531.6399075100547,531.6401191999903,531.6745983100612,531.6745529000182,532.3140009100665,d,0,0.6237487000180408,623.7487000180408,531.6745529000182,532.3140009100665,532.3236066000536,533.853539309965,EMOCONPILOT006,2020_Dec_30_1414,EmoCon_Pilot_120Hz,2020.2.4,120.29120102822846,
,,,,0,0,0,0,59,0,59,0,,,,,,,,,,,,,,,,,,,,,,,,,,,,,,,,,,,,,,,,,,,,,,59,4.0,m,016_y_m_n_a.jpg,neutral,s,3,1,533.8589823000366,534.1535983099951,534.4005775999976,534.4259695100249,534.4265811999794,534.4630308100371,534.4629311000463,536.0615411100792,None,0,,,534.4629311000463,536.0615411100792,536.065380700049,537.0619548099697,EMOCONPILOT006,2020_Dec_30_1414,EmoCon_Pilot_120Hz,2020.2.4,120.29120102822846,
,,,,0,0,0,0,60,0,60,0,,,,,,,,,,,,,,,,,,,,,,,,,,,,,,,,,,,,,,,,,,,,,,60,6.0,m,033_o_m_s_a.jpg,sad,a,3,1,537.0671170999995,537.3619546100148,537.3827834000112,537.4080946100061,537.4124141000211,537.4532275100122,537.4580481000012,538.2097267100238,s,0,0.7442063000053167,744.2063000053167,537.4580481000012,538.2097267100238,538.2213132000761,539.5786352099734,EMOCONPILOT006,2020_Dec_30_1414,EmoCon_Pilot_120Hz,2020.2.4,120.29120102822846,
,,,,0,0,0,0,61,0,61,0,,,,,,,,,,,,,,,,,,,,,,,,,,,,,,,,,,,,,,,,,,,,,,61,7.0,f,012_o_f_n_a.jpg,neutral,s,3,1,539.5845344000263,539.8786429100786,540.0982938000234,540.1244132100022,540.1255508000031,540.1632175100152,540.1646285000024,541.0013275100267,s,1,0.8295944000128657,829.5944000128657,540.1646285000024,541.0013275100267,541.0066724000499,542.5371024100226,EMOCONPILOT006,2020_Dec_30_1414,EmoCon_Pilot_120Hz,2020.2.4,120.29120102822846,
,,,,0,0,0,0,62,0,62,0,,,,,,,,,,,,,,,,,,,,,,,,,,,,,,,,,,,,,,,,,,,,,,62,2.0,m,008_y_m_h_a.jpg,happy,d,17,1,542.5434286000673,542.8370742099709,542.8541456999956,542.9886983100208,542.993810200016,543.0345285099814,543.0397599000717,544.8109797099954,None,0,,,543.0397599000717,544.8109797099954,544.8147994000465,546.6538583099958,EMOCONPILOT006,2020_Dec_30_1414,EmoCon_Pilot_120Hz,2020.2.4,120.29120102822846,
,,,,0,0,0,0,63,0,63,0,,,,,,,,,,,,,,,,,,,,,,,,,,,,,,,,,,,,,,,,,,,,,,63,10.0,f,028_y_f_h_a.jpg,happy,d,17,1,546.6593993999995,546.95377151008,546.9767968000378,547.1137813100707,547.1188027000753,547.1593388100504,547.1646241999697,547.5510510100634,d,1,0.3740781999658793,374.0781999658793,547.1646241999697,547.5510510100634,547.5631166000385,548.9288353100768,EMOCONPILOT006,2020_Dec_30_1414,EmoCon_Pilot_120Hz,2020.2.4,120.29120102822846,
,,,,0,0,0,0,64,0,64,0,,,,,,,,,,,,,,,,,,,,,,,,,,,,,,,,,,,,,,,,,,,,,,64,4.0,m,016_y_m_h_a.jpg,happy,d,17,1,548.9328131000511,549.2288308099727,549.2530472000362,549.3887946100789,549.392054600059,549.4310345100588,549.4343265000498,549.8366774099762,d,1,0.3920223000459373,392.0223000459373,549.4343265000498,549.8366774099762,549.8474335999927,551.3538740100688,EMOCONPILOT006,2020_Dec_30_1414,EmoCon_Pilot_120Hz,2020.2.4,120.29120102822846,
,,,,0,0,0,0,65,0,65,0,,,,,,,,,,,,,,,,,,,,,,,,,,,,,,,,,,,,,,,,,,,,,,65,9.0,f,021_o_f_s_a.jpg,sad,a,17,1,551.357837800053,551.653881110053,551.6761256000027,551.8138658099691,551.8167997000273,551.8551575100631,551.8583431000588,552.5449944100459,a,1,0.6800471000606194,680.0471000606194,551.8583431000588,552.5449944100459,552.5555955000455,553.9123820100561,EMOCONPILOT006,2020_Dec_30_1414,EmoCon_Pilot_120Hz,2020.2.4,120.29120102822846,
,,,,0,0,0,0,66,0,66,0,,,,,,,,,,,,,,,,,,,,,,,,,,,,,,,,,,,,,,,,,,,,,,66,7.0,f,012_o_f_h_a.jpg,happy,d,3,1,553.9178601000458,554.2123011100688,554.237410300062,554.2603078100714,554.2606059999671,554.2968496099696,554.2983784000389,554.818618010066,d,1,0.5118176999967545,511.8176999967545,554.2983784000389,554.818618010066,554.8248985999962,556.0956782100606,EMOCONPILOT006,2020_Dec_30_1414,EmoCon_Pilot_120Hz,2020.2.4,120.29120102822846,
,,,,0,0,0,0,67,0,67,0,,,,,,,,,,,,,,,,,,,,,,,,,,,,,,,,,,,,,,,,,,,,,,67,9.0,f,021_o_f_h_a.jpg,happy,d,17,1,556.0986479000421,556.3957332100603,556.6406315000495,556.8114802100812,556.816103600082,556.856599409983,556.861655500019,557.223056210007,d,1,0.3486018000403419,348.6018000403419,556.861655500019,557.223056210007,557.2288477000548,558.3956940099946,EMOCONPILOT006,2020_Dec_30_1414,EmoCon_Pilot_120Hz,2020.2.4,120.29120102822846,
,,,,0,0,0,0,68,0,68,0,,,,,,,,,,,,,,,,,,,,,,,,,,,,,,,,,,,,,,,,,,,,,,68,8.0,f,019_m_f_h_a.jpg,happy,d,17,1,558.3999573000474,558.6957838100265,558.7261303999694,558.8640575100784,558.8686118000187,558.9075918100192,558.9118294999935,559.3200011100038,d,1,0.3945713998982683,394.5713998982683,558.9118294999935,559.3200011100038,559.3313686000183,561.1040362100233,EMOCONPILOT006,2020_Dec_30_1414,EmoCon_Pilot_120Hz,2020.2.4,120.29120102822846,
,,,,0,0,0,0,69,0,69,0,,,,,,,,,,,,,,,,,,,,,,,,,,,,,,,,,,,,,,,,,,,,,,69,9.0,f,021_o_f_s_a.jpg,sad,a,3,1,561.1049358000746,561.404083010077,561.4195619999664,561.4412515099742,561.4420862999978,561.4803786100005,561.4818867000286,561.954440810054,d,0,0.45646739995572716,456.46739995572716,561.4818867000286,561.954440810054,561.9619179000147,563.8625146099715,EMOCONPILOT006,2020_Dec_30_1414,EmoCon_Pilot_120Hz,2020.2.4,120.29120102822846,
,,,,0,0,0,0,70,0,70,0,,,,,,,,,,,,,,,,,,,,,,,,,,,,,,,,,,,,,,,,,,,,,,70,2.0,m,008_y_m_h_a.jpg,happy,d,17,1,563.8685662000207,564.1625468100304,564.184191300068,564.3225030100788,564.3258522000397,564.3637673100806,564.3676312000025,564.7229116100701,d,1,0.33863749995362014,338.63749995362014,564.3676312000025,564.7229116100701,564.7299326000502,566.1875479100621,EMOCONPILOT006,2020_Dec_30_1414,EmoCon_Pilot_120Hz,2020.2.4,120.29120102822846,
,,,,0,0,0,0,71,0,71,0,,,,,,,,,,,,,,,,,,,,,,,,,,,,,,,,,,,,,,,,,,,,,,71,1.0,m,004_o_m_h_a.jpg,happy,d,17,1,566.1928618999664,566.487535210012,566.7040925000329,566.8617312100599,566.8662644000724,566.9065542100346,566.9114421000704,567.1760605100193,d,1,0.2508602000307292,250.86020003072917,566.9114421000704,567.1760605100193,567.1867153000785,568.4126623099786,EMOCONPILOT006,2020_Dec_30_1414,EmoCon_Pilot_120Hz,2020.2.4,120.29120102822846,
,,,,0,0,0,0,72,0,72,0,,,,,,,,,,,,,,,,,,,,,,,,,,,,,,,,,,,,,,,,,,,,,,72,11.0,f,030_o_f_h_a.jpg,happy,d,17,1,568.4186863000505,568.7127145100734,568.9175948000047,569.0782688099774,569.0833185000811,569.1241346099763,569.1284142000368,569.361963310081,d,1,0.2180995000526309,218.0995000526309,569.1284142000368,569.361963310081,569.3733420000644,571.0042826100602,EMOCONPILOT006,2020_Dec_30_1414,EmoCon_Pilot_120Hz,2020.2.4,120.29120102822846,
,,,,0,0,0,0,73,0,73,0,,,,,,,,,,,,,,,,,,,,,,,,,,,,,,,,,,,,,,,,,,,,,,73,8.0,f,019_m_f_s_a.jpg,sad,a,17,1,571.0047923000529,571.3043108099722,571.5474499000702,571.7155037100077,571.7197811000515,571.7609150100383,571.7657096000621,572.1307771100313,a,1,0.356739699956961,356.739699956961,571.7657096000621,572.1307771100313,572.1423464000691,574.1126869100029,EMOCONPILOT006,2020_Dec_30_1414,EmoCon_Pilot_120Hz,2020.2.4,120.29120102822846,
,,,,0,0,0,0,74,0,74,0,,,,,,,,,,,,,,,,,,,,,,,,,,,,,,,,,,,,,,,,,,,,,,74,5.0,m,027_o_m_h_a.jpg,happy,d,17,1,574.1167284999974,574.4127643100568,574.621053299983,574.7830218100338,574.7875970000168,574.8279865100398,574.8328378000297,575.2399796099984,d,1,0.3932582000270486,393.2582000270486,574.8328378000297,575.2399796099984,575.2420719000511,576.904495010071,EMOCONPILOT006,2020_Dec_30_1414,EmoCon_Pilot_120Hz,2020.2.4,120.29120102822846,
,,,,0,0,0,0,75,0,75,0,,,,,,,,,,,,,,,,,,,,,,,,,,,,,,,,,,,,,,,,,,,,,,75,8.0,f,019_m_f_s_a.jpg,sad,a,17,1,576.9096165000228,577.204544010025,577.4495064000366,577.6095655099838,577.6143369000638,577.6555330100585,577.6605896999827,578.178963210003,a,1,0.5019428000086918,501.94280000869185,577.6605896999827,578.178963210003,578.1906902000774,579.1961771099944,EMOCONPILOT006,2020_Dec_30_1414,EmoCon_Pilot_120Hz,2020.2.4,120.29120102822846,
,,,,0,0,0,0,76,0,76,0,,,,,,,,,,,,,,,,,,,,,,,,,,,,,,,,,,,,,,,,,,,,,,76,7.0,f,012_o_f_n_a.jpg,neutral,s,17,1,579.2015660000034,579.4962749099708,579.708255500067,579.8679845100618,579.8726850000676,579.9133982099942,579.9184285000665,580.3769683100167,s,1,0.4439017999684438,443.9017999684438,579.9184285000665,580.3769683100167,580.3872775000054,582.2462444099714,EMOCONPILOT006,2020_Dec_30_1414,EmoCon_Pilot_120Hz,2020.2.4,120.29120102822846,
,,,,0,0,0,0,77,0,77,0,,,,,,,,,,,,,,,,,,,,,,,,,,,,,,,,,,,,,,,,,,,,,,77,6.0,m,033_o_m_s_a.jpg,sad,a,17,1,582.2501204999862,582.5461765099666,582.562333400012,582.6979984100093,582.7025036000414,582.7433135100058,582.7473167000571,583.1947829099721,s,0,0.43911819998174906,439.11819998174906,582.7473167000571,583.1947829099721,583.2069283999735,584.6796680100146,EMOCONPILOT006,2020_Dec_30_1414,EmoCon_Pilot_120Hz,2020.2.4,120.29120102822846,
,,,,0,0,0,0,78,0,78,0,,,,,,,,,,,,,,,,,,,,,,,,,,,,,,,,,,,,,,,,,,,,,,78,1.0,m,004_o_m_h_a.jpg,happy,d,17,1,584.684984200052,584.9796465100138,585.1929259999888,585.3518227100489,585.3568765000673,585.3977868099813,585.4027155999793,585.8508694100077,d,1,0.4318124999990687,431.8124999990687,585.4027155999793,585.8508694100077,585.8610678999685,587.3296884100768,EMOCONPILOT006,2020_Dec_30_1414,EmoCon_Pilot_120Hz,2020.2.4,120.29120102822846,
,,,,0,0,0,0,79,0,79,0,,,,,,,,,,,,,,,,,,,,,,,,,,,,,,,,,,,,,,,,,,,,,,79,5.0,m,027_o_m_s_a.jpg,sad,a,3,1,587.3349290000042,587.6296676100814,587.6485998000717,587.6719699100707,587.6728196999757,587.7084431100287,587.7085633999668,588.4363113100757,s,0,0.7178442000877112,717.8442000877112,587.7085633999668,588.4363113100757,588.4438612000085,589.8464810100035,EMOCONPILOT006,2020_Dec_30_1414,EmoCon_Pilot_120Hz,2020.2.4,120.29120102822846,
,,,,0,0,0,0,80,0,80,0,,,,,,,,,,,,,,,,,,,,,,,,,,,,,,,,,,,,,,,,,,,,,,80,9.0,f,021_o_f_s_a.jpg,sad,a,17,1,589.8521837000735,590.1465195099939,590.1695605000714,590.3064092100016,590.3108668000204,590.3515854099882,590.3565443999832,591.3297079099924,a,1,0.9577890000073239,957.7890000073239,590.3565443999832,591.3297079099924,591.3363722000504,592.6714457100373,EMOCONPILOT006,2020_Dec_30_1414,EmoCon_Pilot_120Hz,2020.2.4,120.29120102822846,
,,,,0,0,0,0,81,0,81,0,,,,,,,,,,,,,,,,,,,,,,,,,,,,,,,,,,,,,,,,,,,,,,81,5.0,m,027_o_m_s_a.jpg,sad,a,3,1,592.6757476000348,592.9715076099732,592.9927273000358,593.015440810041,593.0162902000593,593.0512648100615,593.0515421000309,593.6181636100285,s,0,0.5588254999602214,558.8254999602214,593.0515421000309,593.6181636100285,593.6266395000275,594.7048284099786,EMOCONPILOT006,2020_Dec_30_1414,EmoCon_Pilot_120Hz,2020.2.4,120.29120102822846,
,,,,0,0,0,0,82,0,82,0,,,,,,,,,,,,,,,,,,,,,,,,,,,,,,,,,,,,,,,,,,,,,,82,7.0,f,012_o_f_h_a.jpg,happy,d,3,1,594.7088230000809,595.0047929099877,595.0247674999991,595.0478311099927,595.0484084000345,595.0831326099927,595.0829607000342,595.6617221100372,d,1,0.5673570999642834,567.3570999642834,595.0829607000342,595.6617221100372,595.6700370999752,597.3714426099672,EMOCONPILOT006,2020_Dec_30_1414,EmoCon_Pilot_120Hz,2020.2.4,120.29120102822846,
,,,,0,0,0,0,83,0,83,0,,,,,,,,,,,,,,,,,,,,,,,,,,,,,,,,,,,,,,,,,,,,,,83,3.0,m,013_y_m_s_a.jpg,sad,a,3,1,597.3743043000577,597.6714537099818,597.692794600036,597.7156196100754,597.7171864999691,597.7524849099922,597.7531584000681,598.4200420100591,s,0,0.6573220000136644,657.3220000136644,597.7531584000681,598.4200420100591,598.429627400008,599.6799149100319,EMOCONPILOT006,2020_Dec_30_1414,EmoCon_Pilot_120Hz,2020.2.4,120.29120102822846,
,,,,0,0,0,0,84,0,84,0,,,,,,,,,,,,,,,,,,,,,,,,,,,,,,,,,,,,,,,,,,,,,,84,5.0,m,027_o_m_s_a.jpg,sad,a,3,1,599.6852270000381,599.9799087100313,600.000112400041,600.0232654100167,600.0235986000625,600.058537010022,600.0591508999933,600.7673517100396,s,0,0.6952860000310466,695.2860000310466,600.0591508999933,600.7673517100396,600.7754710000008,602.580006610055,EMOCONPILOT006,2020_Dec_30_1414,EmoCon_Pilot_120Hz,2020.2.4,120.29120102822846,
,,,,0,0,0,0,85,0,85,0,,,,,,,,,,,,,,,,,,,,,,,,,,,,,,,,,,,,,,,,,,,,,,85,4.0,m,016_y_m_s_a.jpg,sad,a,17,1,602.5860743999947,602.8800164100597,602.8960310000693,603.031911410077,603.0366110000759,603.077207210043,603.0824825000018,603.7324089099769,a,1,0.6399410999147221,639.9410999147221,603.0824825000018,603.7324089099769,603.7427657999797,605.2134808099712,EMOCONPILOT006,2020_Dec_30_1414,EmoCon_Pilot_120Hz,2020.2.4,120.29120102822846,
,,,,0,0,0,0,86,0,86,0,,,,,,,,,,,,,,,,,,,,,,,,,,,,,,,,,,,,,,,,,,,,,,86,5.0,m,027_o_m_n_a.jpg,neutral,s,17,1,605.2176996000344,605.5133613100392,605.7275681999745,605.8886615099967,605.8931686000433,605.9340950100799,605.938355899998,606.2445362100028,s,1,0.2959688000846654,295.9688000846654,605.938355899998,606.2445362100028,606.2551424000412,607.3883942100568,EMOCONPILOT006,2020_Dec_30_1414,EmoCon_Pilot_120Hz,2020.2.4,120.29120102822846,
,,,,0,0,0,0,87,0,87,0,,,,,,,,,,,,,,,,,,,,,,,,,,,,,,,,,,,,,,,,,,,,,,87,3.0,m,013_y_m_h_a.jpg,happy,d,17,1,607.3934159000637,607.6884136100183,607.9150742000202,608.0706784100388,608.0755743000191,608.1156565100304,608.1207353000063,608.5456617100048,d,1,0.40972670004703104,409.72670004703104,608.1207353000063,608.5456617100048,608.5572376999771,610.3968162100413,EMOCONPILOT006,2020_Dec_30_1414,EmoCon_Pilot_120Hz,2020.2.4,120.29120102822846,
,,,,0,0,0,0,88,0,88,0,,,,,,,,,,,,,,,,,,,,,,,,,,,,,,,,,,,,,,,,,,,,,,88,5.0,m,027_o_m_s_a.jpg,sad,a,17,1,610.4021052999888,610.6968022099812,610.7099237000803,610.840228410007,610.8439206000185,610.8837666099774,610.8877756000729,611.5418017100659,a,1,0.6425471999682486,642.5471999682486,610.8877756000729,611.5418017100659,611.5525647000177,612.655180910055,EMOCONPILOT006,2020_Dec_30_1414,EmoCon_Pilot_120Hz,2020.2.4,120.29120102822846,
,,,,0,0,0,0,89,0,89,0,,,,,,,,,,,,,,,,,,,,,,,,,,,,,,,,,,,,,,,,,,,,,,89,5.0,m,027_o_m_s_a.jpg,sad,a,3,1,612.659218500019,612.9552931100246,612.9803078999976,613.0030714100343,613.0049008000642,613.0414617100381,613.0424212000798,613.7040273100487,s,0,0.6480104000074789,648.0104000074789,613.0424212000798,613.7040273100487,613.7121243000729,614.9385874100611,EMOCONPILOT006,2020_Dec_30_1414,EmoCon_Pilot_120Hz,2020.2.4,120.29120102822846,
,,,,0,0,0,0,90,0,90,0,,,,,,,,,,,,,,,,,,,,,,,,,,,,,,,,,,,,,,,,,,,,,,90,12.0,f,040_y_f_s_a.jpg,sad,a,3,1,614.9426213999977,615.2386696100351,615.2538366999943,615.2757094100001,615.2762915000785,615.314814609976,615.3165601000655,615.9793002100545,s,0,0.653781900065951,653.781900065951,615.3165601000655,615.9793002100545,615.9860203000717,617.805227309966,EMOCONPILOT006,2020_Dec_30_1414,EmoCon_Pilot_120Hz,2020.2.4,120.29120102822846,
,,,,0,0,0,0,91,0,91,0,,,,,,,,,,,,,,,,,,,,,,,,,,,,,,,,,,,,,,,,,,,,,,91,3.0,m,013_y_m_n_a.jpg,neutral,s,3,1,617.8080424000509,618.1053925099899,618.343171400018,618.368804210017,618.369614199968,618.4065858100424,618.4066732000792,619.0225712099694,s,1,0.6037281000753865,603.7281000753865,618.4066732000792,619.0225712099694,619.0289870999986,620.3470154099981,EMOCONPILOT006,2020_Dec_30_1414,EmoCon_Pilot_120Hz,2020.2.4,120.29120102822846,
,,,,0,0,0,0,92,0,92,0,,,,,,,,,,,,,,,,,,,,,,,,,,,,,,,,,,,,,,,,,,,,,,92,12.0,f,040_y_f_s_a.jpg,sad,a,3,1,620.3521558999782,620.6470743100275,620.6630653999746,620.6846976100118,620.6855570999905,620.723265909974,620.7249184000539,621.7067055100691,s,0,0.9657562000211328,965.7562000211328,620.7249184000539,621.7067055100691,621.7172544000205,623.5721726100077,EMOCONPILOT006,2020_Dec_30_1414,EmoCon_Pilot_120Hz,2020.2.4,120.29120102822846,
,,,,0,0,0,0,93,0,93,0,,,,,,,,,,,,,,,,,,,,,,,,,,,,,,,,,,,,,,,,,,,,,,93,6.0,m,033_o_m_s_a.jpg,sad,a,17,1,623.578214899986,623.8721230100258,623.8871106000151,624.0237306100665,624.0271231000079,624.0650268100784,624.0683677999768,624.682946010062,s,0,0.6061771999811754,606.1771999811754,624.0683677999768,624.682946010062,624.6938671000535,625.8637574100052,EMOCONPILOT006,2020_Dec_30_1414,EmoCon_Pilot_120Hz,2020.2.4,120.29120102822846,
,,,,0,0,0,0,94,0,94,0,,,,,,,,,,,,,,,,,,,,,,,,,,,,,,,,,,,,,,,,,,,,,,94,2.0,m,008_y_m_s_a.jpg,sad,a,17,1,625.8677699000109,626.163769710029,626.4060722000431,626.5690233100089,626.5732572000707,626.614112710033,626.618999700062,627.1634759100037,a,1,0.5352030999492854,535.2030999492854,626.618999700062,627.1634759100037,627.1698962000664,628.9556479100487,EMOCONPILOT006,2020_Dec_30_1414,EmoCon_Pilot_120Hz,2020.2.4,120.29120102822846,
,,,,0,0,0,0,95,0,95,0,,,,,,,,,,,,,,,,,,,,,,,,,,,,,,,,,,,,,,,,,,,,,,95,8.0,f,019_m_f_s_a.jpg,sad,a,17,1,628.960414799978,629.2555838100728,629.4962368999841,629.6589001099695,629.6635198000586,629.703509510064,629.7084463000065,630.0959586099838,a,1,0.3738919000606984,373.8919000606984,629.7084463000065,630.0959586099838,630.1072493999964,631.7139153100201,EMOCONPILOT006,2020_Dec_30_1414,EmoCon_Pilot_120Hz,2020.2.4,120.29120102822846,
,,,,0,0,0,0,96,0,96,0,,,,,,,,,,,,,,,,,,,,,,,,,,,,,,,,,,,,,,,,,,,,,,96,9.0,f,021_o_f_n_a.jpg,neutral,s,17,1,631.7179652000777,632.0139108100324,632.2358658000594,632.3957181100617,632.4001328999875,632.4413469100022,632.4464208000572,632.9342336099711,s,1,0.47595180000644177,475.9518000064418,632.4464208000572,632.9342336099711,632.9460096000694,634.0056502099964,EMOCONPILOT006,2020_Dec_30_1414,EmoCon_Pilot_120Hz,2020.2.4,120.29120102822846,
,,,,0,0,0,0,97,0,97,0,,,,,,,,,,,,,,,,,,,,,,,,,,,,,,,,,,,,,,,,,,,,,,97,11.0,f,030_o_f_h_a.jpg,happy,d,3,1,634.006251999992,634.3056805100408,634.494258300052,634.5191012099734,634.5199069000082,634.5567741099861,634.5578815999907,636.3525498099974,None,0,,,634.5578815999907,636.3525498099974,636.3602842000546,637.7141136100166,EMOCONPILOT006,2020_Dec_30_1414,EmoCon_Pilot_120Hz,2020.2.4,120.29120102822846,
,,,,0,0,0,0,98,0,98,0,,,,,,,,,,,,,,,,,,,,,,,,,,,,,,,,,,,,,,,,,,,,,,98,12.0,f,040_y_f_n_a.jpg,neutral,s,3,1,637.7204077000497,638.0141975100036,638.2315091000637,638.2572482100571,638.2574334000237,638.2925597100169,638.2930415000301,638.9691857099882,d,0,0.6694086999632418,669.4086999632418,638.2930415000301,638.9691857099882,638.9794170999667,639.9807421099744,EMOCONPILOT006,2020_Dec_30_1414,EmoCon_Pilot_120Hz,2020.2.4,120.29120102822846,
,,,,0,0,0,0,99,0,99,0,,,,,,,,,,,,,,,,,,,,,,,,,,,,,,,,,,,,,,,,,,,,,,99,12.0,f,040_y_f_s_a.jpg,sad,a,17,1,639.9845512000611,640.2807545099989,640.2918875999749,640.424150710029,640.4291413000319,640.469894610031,640.4750417000614,640.9759649100364,s,0,0.4875964999664575,487.5964999664575,640.4750417000614,640.9759649100364,640.9869453000138,642.5725805099704,EMOCONPILOT006,2020_Dec_30_1414,EmoCon_Pilot_120Hz,2020.2.4,120.29120102822846,
,,,,0,0,0,0,100,0,100,0,,,,,,,,,,,,,,,,,,,,,,,,,,,,,,,,,,,,,,,,,,,,,,100,4.0,m,016_y_m_n_a.jpg,neutral,s,3,1,642.5786526000593,642.8725376100396,643.1156473000301,643.1412447099923,643.1412921000738,643.1759914100752,643.1757473000325,643.7558948099962,s,1,0.5705978999612853,570.5978999612853,643.1757473000325,643.7558948099962,643.7654219999677,644.797637910035,EMOCONPILOT006,2020_Dec_30_1414,EmoCon_Pilot_120Hz,2020.2.4,120.29120102822846,
,,,,0,0,0,0,101,0,101,0,,,,,,,,,,,,,,,,,,,,,,,,,,,,,,,,,,,,,,,,,,,,,,101,11.0,f,030_o_f_s_a.jpg,sad,a,3,1,644.8037525999825,645.097445710015,645.2943109000335,645.3203227100079,645.3203173000365,645.357109710027,645.3586952000624,646.1391267100465,d,0,0.7638376000104472,763.8376000104472,645.3586952000624,646.1391267100465,646.1514787999913,647.2559349100687,EMOCONPILOT006,2020_Dec_30_1414,EmoCon_Pilot_120Hz,2020.2.4,120.29120102822846,
,,,,0,0,0,0,102,0,102,0,,,,,,,,,,,,,,,,,,,,,,,,,,,,,,,,,,,,,,,,,,,,,,102,3.0,m,013_y_m_h_a.jpg,happy,d,3,1,647.2601098000305,647.5559748100699,647.7902863000054,647.8157819100073,647.8161803999683,647.8522620100179,647.8527254000073,648.3017173100146,d,1,0.43755270005203784,437.55270005203784,647.8527254000073,648.3017173100146,648.3083354000701,649.7393540100078,EMOCONPILOT006,2020_Dec_30_1414,EmoCon_Pilot_120Hz,2020.2.4,120.29120102822846,
,,,,0,0,0,0,103,0,103,0,,,,,,,,,,,,,,,,,,,,,,,,,,,,,,,,,,,,,,,,,,,,,,103,2.0,m,008_y_m_s_a.jpg,sad,a,3,1,649.7444904000731,650.0393694100552,650.272800500039,650.298467710067,650.298605500022,650.3329888100619,650.3325883999933,651.2350952100591,a,1,0.8859346000244841,885.9346000244841,650.3325883999933,651.2350952100591,651.2444649999961,653.0894318099948,EMOCONPILOT006,2020_Dec_30_1414,EmoCon_Pilot_120Hz,2020.2.4,120.29120102822846,
,,,,0,0,0,0,104,0,104,0,,,,,,,,,,,,,,,,,,,,,,,,,,,,,,,,,,,,,,,,,,,,,,104,11.0,f,030_o_f_s_a.jpg,sad,a,3,1,653.0949356000638,653.3894276100094,653.5942848999985,653.621143510018,653.621117600007,653.6573990100645,653.6571470000781,654.2048169100075,d,0,0.5372723999898881,537.2723999898881,653.6571470000781,654.2048169100075,654.2131925000576,655.4311464099795,EMOCONPILOT006,2020_Dec_30_1414,EmoCon_Pilot_120Hz,2020.2.4,120.29120102822846,
,,,,0,0,0,0,105,0,105,0,,,,,,,,,,,,,,,,,,,,,,,,,,,,,,,,,,,,,,,,,,,,,,105,4.0,m,016_y_m_h_a.jpg,happy,d,3,1,655.436388000031,655.7311051100609,655.7560071999906,655.7782973100315,655.7791307000443,655.815675110009,655.8155022000428,656.231704010081,d,1,0.402950800023973,402.950800023973,655.8155022000428,656.231704010081,656.2401240000036,657.9479513099999,EMOCONPILOT006,2020_Dec_30_1414,EmoCon_Pilot_120Hz,2020.2.4,120.29120102822846,
,,,,0,0,0,0,106,0,106,0,,,,,,,,,,,,,,,,,,,,,,,,,,,,,,,,,,,,,,,,,,,,,,106,7.0,f,012_o_f_n_a.jpg,neutral,s,3,1,657.9532961000223,658.2478521099896,658.466627900023,658.4936990100308,658.49392909999,658.5297350100358,658.5311105999863,659.4184510100516,s,1,0.8714916000608355,871.4916000608355,658.5311105999863,659.4184510100516,659.4300404000096,660.4477987100021,EMOCONPILOT006,2020_Dec_30_1414,EmoCon_Pilot_120Hz,2020.2.4,120.29120102822846,
,,,,0,0,0,0,107,0,107,0,,,,,,,,,,,,,,,,,,,,,,,,,,,,,,,,,,,,,,,,,,,,,,107,11.0,f,030_o_f_h_a.jpg,happy,d,3,1,660.4505456000334,660.7479995100642,660.9538804000476,660.980943309993,660.9843885999871,661.0217023099889,661.0269486000761,661.3628186100744,d,1,0.327546100015752,327.546100015752,661.0269486000761,661.3628186100744,661.3742011999711,662.5063818099792,EMOCONPILOT006,2020_Dec_30_1414,EmoCon_Pilot_120Hz,2020.2.4,120.29120102822846,
,,,,0,0,0,0,108,0,108,0,,,,,,,,,,,,,,,,,,,,,,,,,,,,,,,,,,,,,,,,,,,,,,108,1.0,m,004_o_m_s_a.jpg,sad,a,3,1,662.5116301000817,662.8063005099888,662.8272577000316,662.850065710058,662.8502790000057,662.8851237100665,662.8856200000737,663.5550806100131,d,0,0.6530902999220416,653.0902999220416,662.8856200000737,663.5550806100131,663.5654613000806,665.1480059100198,EMOCONPILOT006,2020_Dec_30_1414,EmoCon_Pilot_120Hz,2020.2.4,120.29120102822846,
,,,,0,0,0,0,109,0,109,0,,,,,,,,,,,,,,,,,,,,,,,,,,,,,,,,,,,,,,,,,,,,,,109,3.0,m,013_y_m_n_a.jpg,neutral,s,3,1,665.1525772999739,665.4479444100638,665.6826689000009,665.7084491100744,665.7086661000503,665.7429256100789,665.7431773999706,666.3376360100577,s,1,0.5792912999168038,579.2912999168038,665.7431773999706,666.3376360100577,666.3449412999908,667.6730344100273,EMOCONPILOT006,2020_Dec_30_1414,EmoCon_Pilot_120Hz,2020.2.4,120.29120102822846,
,,,,0,0,0,0,110,0,110,0,,,,,,,,,,,,,,,,,,,,,,,,,,,,,,,,,,,,,,,,,,,,,,110,10.0,f,028_y_f_s_a.jpg,sad,a,3,1,667.6772456000326,667.9730489100679,667.9939309000038,668.0168871099944,668.017623999971,668.0534069100744,668.0538639000151,668.7302485100575,s,0,0.6605161000043154,660.5161000043154,668.0538639000151,668.7302485100575,668.7367436999921,670.1314690100611,EMOCONPILOT006,2020_Dec_30_1414,EmoCon_Pilot_120Hz,2020.2.4,120.29120102822846,
,,,,0,0,0,0,111,0,111,0,,,,,,,,,,,,,,,,,,,,,,,,,,,,,,,,,,,,,,,,,,,,,,111,11.0,f,030_o_f_h_a.jpg,happy,d,3,1,670.1370374000398,670.4315345100243,670.6435249000788,670.6701941100531,670.6702919000527,670.7076914100093,670.709039999987,671.067897210049,d,1,0.34925259998999536,349.25259998999536,670.709039999987,671.067897210049,671.0743583000731,672.1647995100706,EMOCONPILOT006,2020_Dec_30_1414,EmoCon_Pilot_120Hz,2020.2.4,120.29120102822846,
,,,,0,0,0,0,112,0,112,0,,,,,,,,,,,,,,,,,,,,,,,,,,,,,,,,,,,,,,,,,,,,,,112,7.0,f,012_o_f_n_a.jpg,neutral,s,3,1,672.168549300055,672.4648155100061,672.67468070006,672.7017151100212,672.7023389000678,672.7365806100773,672.7359419000568,673.477988610079,s,1,0.73043230001349,730.43230001349,672.7359419000568,673.477988610079,673.486624400015,674.5148968099733,EMOCONPILOT006,2020_Dec_30_1414,EmoCon_Pilot_120Hz,2020.2.4,120.29120102822846,
,,,,0,0,0,0,113,0,113,0,,,,,,,,,,,,,,,,,,,,,,,,,,,,,,,,,,,,,,,,,,,,,,113,2.0,m,008_y_m_s_a.jpg,sad,a,3,1,674.5202150000259,674.8148884100723,675.0521980000194,675.0776774100144,675.0782066000393,675.1160323099815,675.1161899999715,675.7668534099706,a,1,0.6383752999827266,638.3752999827266,675.1161899999715,675.7668534099706,675.7739031000528,677.1313143100473,EMOCONPILOT006,2020_Dec_30_1414,EmoCon_Pilot_120Hz,2020.2.4,120.29120102822846,
,,,,0,0,0,0,114,0,114,0,,,,,,,,,,,,,,,,,,,,,,,,,,,,,,,,,,,,,,,,,,,,,,114,11.0,f,030_o_f_h_a.jpg,happy,d,3,1,677.1319670000812,677.431569110055,677.6254267999902,677.6515501099988,677.6524769000243,677.6865440099849,677.6865934000816,678.1699539099703,s,0,0.4677628999343142,467.7628999343142,677.6865934000816,678.1699539099703,678.1757308000233,679.8816792100318,EMOCONPILOT006,2020_Dec_30_1414,EmoCon_Pilot_120Hz,2020.2.4,120.29120102822846,
,,,,0,0,0,0,115,0,115,0,,,,,,,,,,,,,,,,,,,,,,,,,,,,,,,,,,,,,,,,,,,,,,115,3.0,m,013_y_m_h_a.jpg,happy,d,3,1,679.8857936999993,680.1816727100289,680.4183999000816,680.4445232099737,680.4451598000014,680.4828654100769,680.4842792999698,680.9296710100374,d,1,0.438236300018616,438.236300018616,680.4842792999698,680.9296710100374,680.9369283000706,682.4733047100366,EMOCONPILOT006,2020_Dec_30_1414,EmoCon_Pilot_120Hz,2020.2.4,120.29120102822846,
,,,,0,0,0,0,116,0,116,0,,,,,,,,,,,,,,,,,,,,,,,,,,,,,,,,,,,,,,,,,,,,,,116,2.0,m,008_y_m_s_a.jpg,sad,a,3,1,682.4761605000822,682.773480010021,683.0067713999888,683.0322430100408,683.035857400042,683.0761026100139,683.0812994000735,683.6818232100107,a,1,0.5852207000134513,585.2207000134513,683.0812994000735,683.6818232100107,683.6935125000309,685.2984027100377,EMOCONPILOT006,2020_Dec_30_1414,EmoCon_Pilot_120Hz,2020.2.4,120.29120102822846,
,,,,0,0,0,0,117,0,117,0,,,,,,,,,,,,,,,,,,,,,,,,,,,,,,,,,,,,,,,,,,,,,,117,3.0,m,013_y_m_n_a.jpg,neutral,s,3,1,685.3035699999891,685.5984193099779,685.823726200033,685.8497532100067,685.8501362999668,685.8857291100197,685.8861797000282,686.5059101099963,s,1,0.6042815999826416,604.2815999826416,685.8861797000282,686.5059101099963,686.5125992000103,687.6401714099687,EMOCONPILOT006,2020_Dec_30_1414,EmoCon_Pilot_120Hz,2020.2.4,120.29120102822846,
,,,,0,0,0,0,118,0,118,0,,,,,,,,,,,,,,,,,,,,,,,,,,,,,,,,,,,,,,,,,,,,,,118,6.0,m,033_o_m_n_a.jpg,neutral,s,3,1,687.6460805999814,687.9401292100432,688.1341217000736,688.160885010066,688.1611332000466,688.1975797100807,688.1979856999824,689.1549214100581,a,0,0.948477300000377,948.477300000377,688.1979856999824,689.1549214100581,689.1621897000587,690.681921810063,EMOCONPILOT006,2020_Dec_30_1414,EmoCon_Pilot_120Hz,2020.2.4,120.29120102822846,
,,,,0,0,0,0,119,0,119,0,,,,,,,,,,,,,,,,,,,,,,,,,,,,,,,,,,,,,,,,,,,,,,119,6.0,m,033_o_m_n_a.jpg,neutral,s,3,1,690.6870007000398,690.9818619100027,691.1818040000508,691.2078851099708,691.2083845000016,691.2442782100173,691.2442296000663,691.8509123099851,s,1,0.590250700013712,590.250700013712,691.2442296000663,691.8509123099851,691.8599301000359,692.9652390099712,EMOCONPILOT006,2020_Dec_30_1414,EmoCon_Pilot_120Hz,2020.2.4,120.29120102822846,
,,,,1,0,1,0,0,0,0,0,,,,,,,,,,,,,,,,,,,,,,,,,,,,,,,,,,,,,,,693.057447200059,698.1098670100677,s,5.040892699966207,5040.892699966207,693.057447200059,698.1098670100677,0,1.0,m,004_o_m_s_a.jpg,sad,a,2,2,698.1116163000697,698.4070281100343,698.4192177000223,698.4350252100616,698.4357374999672,698.4702414099942,698.4710251999786,699.6795847100788,s,0,1.1954478999832645,1195.4478999832645,698.4710251999786,699.6795847100788,699.6888711000793,700.8821058100206,EMOCONPILOT006,2020_Dec_30_1414,EmoCon_Pilot_120Hz,2020.2.4,120.29120102822846,
,,,,1,0,1,0,1,0,1,0,,,,,,,,,,,,,,,,,,,,,,,,,,,,,,,,,,,,,,,,,,,,,,1,9.0,f,021_o_f_n_a.jpg,neutral,s,17,2,700.8864838000154,701.1821765100234,701.4988500999752,701.6623187100398,701.6670858999714,701.7082057099673,701.7133713000221,702.1300192100811,s,1,0.40921589999925345,409.21589999925345,701.7133713000221,702.1300192100811,702.1417337000603,704.0155884100008,EMOCONPILOT006,2020_Dec_30_1414,EmoCon_Pilot_120Hz,2020.2.4,120.29120102822846,
,,,,1,0,1,0,2,0,2,0,,,,,,,,,,,,,,,,,,,,,,,,,,,,,,,,,,,,,,,,,,,,,,2,11.0,f,030_o_f_s_a.jpg,sad,a,17,2,704.0212096000323,704.315547409968,704.525739600067,704.6858379100798,704.6894429000095,704.729401910014,704.7336732000113,705.3071068100747,a,1,0.5567908000666648,556.7908000666648,704.7336732000113,705.3071068100747,705.3153894999996,706.4239122100756,EMOCONPILOT006,2020_Dec_30_1414,EmoCon_Pilot_120Hz,2020.2.4,120.29120102822846,
,,,,1,0,1,0,3,0,3,0,,,,,,,,,,,,,,,,,,,,,,,,,,,,,,,,,,,,,,,,,,,,,,3,10.0,f,028_y_f_s_a.jpg,sad,a,17,2,706.4290641000262,706.7238901100703,706.7437604999868,706.8755216100602,706.8797796000727,706.9207562100258,706.9257572999923,707.5055371100665,a,1,0.5726351999910548,572.6351999910548,706.9257572999923,707.5055371100665,707.5138917000731,708.5821567100123,EMOCONPILOT006,2020_Dec_30_1414,EmoCon_Pilot_120Hz,2020.2.4,120.29120102822846,
,,,,1,0,1,0,4,0,4,0,,,,,,,,,,,,,,,,,,,,,,,,,,,,,,,,,,,,,,,,,,,,,,4,6.0,m,033_o_m_n_a.jpg,neutral,s,2,2,708.5850113000488,708.8822773100459,709.078910900047,709.0962237100233,709.0962497000583,709.1334576100693,709.1336621000664,710.2363180100568,s,1,1.0927316000452265,1092.7316000452265,709.1336621000664,710.2363180100568,710.2464888000395,711.9657408100669,EMOCONPILOT006,2020_Dec_30_1414,EmoCon_Pilot_120Hz,2020.2.4,120.29120102822846,
,,,,1,0,1,0,5,0,5,0,,,,,,,,,,,,,,,,,,,,,,,,,,,,,,,,,,,,,,,,,,,,,,5,1.0,m,004_o_m_n_a.jpg,neutral,s,2,2,711.9717923999997,712.265734710067,712.4578591000754,712.4754895100253,712.4776299999794,712.5164373100619,712.5207079000538,713.4782414100249,s,1,0.9455735000083223,945.5735000083223,712.5207079000538,713.4782414100249,713.485722900019,714.8407156099914,EMOCONPILOT006,2020_Dec_30_1414,EmoCon_Pilot_120Hz,2020.2.4,120.29120102822846,
,,,,1,0,1,0,6,0,6,0,,,,,,,,,,,,,,,,,,,,,,,,,,,,,,,,,,,,,,,,,,,,,,6,12.0,f,040_y_f_s_a.jpg,sad,a,2,2,714.8448790999828,715.1407870099996,715.1649206000147,715.1799300100305,715.1802575000329,715.2169073099852,715.2168310000561,715.8036102099926,s,0,0.5775996999582276,577.5996999582276,715.2168310000561,715.8036102099926,715.8131332000485,717.0657845100271,EMOCONPILOT006,2020_Dec_30_1414,EmoCon_Pilot_120Hz,2020.2.4,120.29120102822846,
,,,,1,0,1,0,7,0,7,0,,,,,,,,,,,,,,,,,,,,,,,,,,,,,,,,,,,,,,,,,,,,,,7,9.0,f,021_o_f_n_a.jpg,neutral,s,17,2,717.0709333000705,717.3659035100485,717.5891103000613,717.7495404100395,717.7543218000792,717.7947566099814,717.8000234999927,718.2265895100194,s,1,0.4187690999824554,418.7690999824554,717.8000234999927,718.2265895100194,718.2382893000031,720.2074879099731,EMOCONPILOT006,2020_Dec_30_1414,EmoCon_Pilot_120Hz,2020.2.4,120.29120102822846,
,,,,1,0,1,0,8,0,8,0,,,,,,,,,,,,,,,,,,,,,,,,,,,,,,,,,,,,,,,,,,,,,,8,9.0,f,021_o_f_s_a.jpg,sad,a,2,2,720.2117654000176,720.5074774100561,720.5317537999945,720.5469155100058,720.5469755000668,720.5837174100219,720.5850556000369,722.0620197099983,s,0,1.4653346999548376,1465.3346999548376,720.5850556000369,722.0620197099983,722.0696745000314,723.7326846099808,EMOCONPILOT006,2020_Dec_30_1414,EmoCon_Pilot_120Hz,2020.2.4,120.29120102822846,
,,,,1,0,1,0,9,0,9,0,,,,,,,,,,,,,,,,,,,,,,,,,,,,,,,,,,,,,,,,,,,,,,9,4.0,m,016_y_m_s_a.jpg,sad,a,2,2,723.7381654999917,724.0326654099975,724.0568566999864,724.0719713099883,724.0720407000044,724.108759310015,724.1087631999981,724.7749689100659,s,0,0.6538916999706998,653.8916999706998,724.1087631999981,724.7749689100659,724.7819907000521,725.7826685100212,EMOCONPILOT006,2020_Dec_30_1414,EmoCon_Pilot_120Hz,2020.2.4,120.29120102822846,
,,,,1,0,1,0,10,0,10,0,,,,,,,,,,,,,,,,,,,,,,,,,,,,,,,,,,,,,,,,,,,,,,10,7.0,f,012_o_f_n_a.jpg,neutral,s,2,2,725.7879724000813,726.0826757100061,726.2955213000532,726.3134031100548,726.3139515999937,726.3504927100497,726.3505611000583,727.196963210043,s,1,0.835807399940677,835.807399940677,726.3505611000583,727.196963210043,727.2053529999685,728.5410670100595,EMOCONPILOT006,2020_Dec_30_1414,EmoCon_Pilot_120Hz,2020.2.4,120.29120102822846,
,,,,1,0,1,0,11,0,11,0,,,,,,,,,,,,,,,,,,,,,,,,,,,,,,,,,,,,,,,,,,,,,,11,2.0,m,008_y_m_n_a.jpg,neutral,s,17,2,728.5458027999848,728.8410015100729,729.077203999972,729.2465371099883,729.2516071000136,729.2927152100368,729.2976405000081,729.8056943100295,s,1,0.4968469000887126,496.8469000887126,729.2976405000081,729.8056943100295,729.8175600999966,731.7828735100687,EMOCONPILOT006,2020_Dec_30_1414,EmoCon_Pilot_120Hz,2020.2.4,120.29120102822846,
,,,,1,0,1,0,12,0,12,0,,,,,,,,,,,,,,,,,,,,,,,,,,,,,,,,,,,,,,,,,,,,,,12,1.0,m,004_o_m_s_a.jpg,sad,a,2,2,731.7884020999772,732.0828334100428,732.1067473000148,732.1224803100689,732.1234600000316,732.1596233100048,732.1598025000421,732.8507604099926,d,0,0.6749264999525622,674.9264999525622,732.1598025000421,732.8507604099926,732.861590799992,734.4994985100697,EMOCONPILOT006,2020_Dec_30_1414,EmoCon_Pilot_120Hz,2020.2.4,120.29120102822846,
,,,,1,0,1,0,13,0,13,0,,,,,,,,,,,,,,,,,,,,,,,,,,,,,,,,,,,,,,,,,,,,,,13,7.0,f,012_o_f_h_a.jpg,happy,d,2,2,734.5042726000538,734.7994646099745,734.8154520000098,734.8307058100239,734.8315568000544,734.8673646099982,734.8681146000745,735.273077509983,d,1,0.3903532000258565,390.3532000258565,734.8681146000745,735.273077509983,735.2829245000612,736.8411991100642,EMOCONPILOT006,2020_Dec_30_1414,EmoCon_Pilot_120Hz,2020.2.4,120.29120102822846,
,,,,1,0,1,0,14,0,14,0,,,,,,,,,,,,,,,,,,,,,,,,,,,,,,,,,,,,,,,,,,,,,,14,3.0,m,013_y_m_h_a.jpg,happy,d,17,2,736.8454178000102,737.1412940100184,737.4711576000554,737.6312504100264,737.634502400062,737.6756816100445,737.6807225000812,737.8853529100655,d,1,0.19356259994674474,193.56259994674474,737.6807225000812,737.8853529100655,737.8904530999716,739.1745952100376,EMOCONPILOT006,2020_Dec_30_1414,EmoCon_Pilot_120Hz,2020.2.4,120.29120102822846,
,,,,1,0,1,0,15,0,15,0,,,,,,,,,,,,,,,,,,,,,,,,,,,,,,,,,,,,,,,,,,,,,,15,11.0,f,030_o_f_n_a.jpg,neutral,s,2,2,739.1800801000791,739.4746038100333,739.6845726000611,739.701942710008,739.7048302000621,739.7424479100504,739.7470965000102,740.306492410053,d,0,0.5516020000213757,551.6020000213757,739.7470965000102,740.306492410053,740.3181779000442,741.9413402100676,EMOCONPILOT006,2020_Dec_30_1414,EmoCon_Pilot_120Hz,2020.2.4,120.29120102822846,
,,,,1,0,1,0,16,0,16,0,,,,,,,,,,,,,,,,,,,,,,,,,,,,,,,,,,,,,,,,,,,,,,16,3.0,m,013_y_m_n_a.jpg,neutral,s,2,2,741.9455195000628,742.2412959100096,742.4950022000121,742.5125586099806,742.5157064000377,742.5558307100204,742.5609154000413,743.0895520099788,s,1,0.5136463000671938,513.6463000671938,742.5609154000413,743.0895520099788,743.0993496000301,744.1080045099719,EMOCONPILOT006,2020_Dec_30_1414,EmoCon_Pilot_120Hz,2020.2.4,120.29120102822846,
,,,,1,0,1,0,17,0,17,0,,,,,,,,,,,,,,,,,,,,,,,,,,,,,,,,,,,,,,,,,,,,,,17,9.0,f,021_o_f_h_a.jpg,happy,d,2,2,744.1110544999829,744.4080961100175,744.6180873999838,744.635537610075,744.6363993000705,744.6708796100341,744.6706608000677,745.2492869099718,d,1,0.5719650000100955,571.9650000100955,744.6706608000677,745.2492869099718,745.2581639999989,746.657681810006,EMOCONPILOT006,2020_Dec_30_1414,EmoCon_Pilot_120Hz,2020.2.4,120.29120102822846,
,,,,1,0,1,0,18,0,18,0,,,,,,,,,,,,,,,,,,,,,,,,,,,,,,,,,,,,,,,,,,,,,,18,3.0,m,013_y_m_s_a.jpg,sad,a,17,2,746.6579068000428,746.9579567100503,746.9776292999741,747.117835509975,747.1214045999805,747.1625391099718,747.1676984999795,748.4895032099797,a,1,1.3149348999140784,1314.9348999140784,747.1676984999795,748.4895032099797,748.4972757999785,750.391467510059,EMOCONPILOT006,2020_Dec_30_1414,EmoCon_Pilot_120Hz,2020.2.4,120.29120102822846,
,,,,1,0,1,0,19,0,19,0,,,,,,,,,,,,,,,,,,,,,,,,,,,,,,,,,,,,,,,,,,,,,,19,10.0,f,028_y_f_h_a.jpg,happy,d,17,2,750.3954856999917,750.6915100100799,750.7172687000129,750.8514953100006,750.8550773999887,750.8959240099997,750.9004664000822,751.2976709100534,d,1,0.38206029997672886,382.06029997672886,750.9004664000822,751.2976709100534,751.3082368000178,752.7831867100089,EMOCONPILOT006,2020_Dec_30_1414,EmoCon_Pilot_120Hz,2020.2.4,120.29120102822846,
,,,,1,0,1,0,20,0,20,0,,,,,,,,,,,,,,,,,,,,,,,,,,,,,,,,,,,,,,,,,,,,,,20,4.0,m,016_y_m_h_a.jpg,happy,d,2,2,752.7874019000446,753.0832949100644,753.108716399991,753.1237016100553,753.1254713999806,753.1617053100257,753.1631704000756,753.7562601099838,d,1,0.5754049000097439,575.4049000097439,753.1631704000756,753.7562601099838,753.7662513999967,755.7332902100519,EMOCONPILOT006,2020_Dec_30_1414,EmoCon_Pilot_120Hz,2020.2.4,120.29120102822846,
,,,,1,0,1,0,21,0,21,0,,,,,,,,,,,,,,,,,,,,,,,,,,,,,,,,,,,,,,,,,,,,,,21,6.0,m,033_o_m_h_a.jpg,happy,d,17,2,755.7386337000644,756.0332756099873,756.0583916000323,756.1932815100648,756.1968128000153,756.2345164100756,756.237947500078,756.5248455100576,d,1,0.2764632999897003,276.4632999897003,756.237947500078,756.5248455100576,756.5343149000546,758.0000702099991,EMOCONPILOT006,2020_Dec_30_1414,EmoCon_Pilot_120Hz,2020.2.4,120.29120102822846,
,,,,1,0,1,0,22,0,22,0,,,,,,,,,,,,,,,,,,,,,,,,,,,,,,,,,,,,,,,,,,,,,,22,5.0,m,027_o_m_s_a.jpg,sad,a,17,2,758.0059595999774,758.30009611001,758.3245710000629,758.4599729100358,758.4644008000614,758.5052062099916,758.5104476000415,758.9259227100177,a,1,0.40408640005625784,404.08640005625784,758.5104476000415,758.9259227100177,758.9377301000059,760.0084736100747,EMOCONPILOT006,2020_Dec_30_1414,EmoCon_Pilot_120Hz,2020.2.4,120.29120102822846,
,,,,1,0,1,0,23,0,23,0,,,,,,,,,,,,,,,,,,,,,,,,,,,,,,,,,,,,,,,,,,,,,,23,10.0,f,028_y_f_n_a.jpg,neutral,s,17,2,760.0142719000578,760.3083833100158,760.5268960000249,760.6933231100323,760.6980725000612,760.7389527099789,760.7440059999935,761.1100405099918,s,1,0.3543073000619188,354.3073000619188,760.7440059999935,761.1100405099918,761.1136909000343,762.9750939100398,EMOCONPILOT006,2020_Dec_30_1414,EmoCon_Pilot_120Hz,2020.2.4,120.29120102822846,
,,,,1,0,1,0,24,0,24,0,,,,,,,,,,,,,,,,,,,,,,,,,,,,,,,,,,,,,,,,,,,,,,24,9.0,f,021_o_f_n_a.jpg,neutral,s,2,2,762.9806043000426,763.275156109978,763.477081399993,763.4945485099801,763.4944895000663,763.5301790100406,763.5299779999768,764.1271159099764,d,0,0.5843404000625014,584.3404000625014,763.5299779999768,764.1271159099764,764.1326756000053,765.5667771100183,EMOCONPILOT006,2020_Dec_30_1414,EmoCon_Pilot_120Hz,2020.2.4,120.29120102822846,
,,,,1,0,1,0,25,0,25,0,,,,,,,,,,,,,,,,,,,,,,,,,,,,,,,,,,,,,,,,,,,,,,25,8.0,f,019_m_f_h_a.jpg,happy,d,17,2,765.5721269000787,765.8667891100398,765.8886237000115,766.0268016100512,766.0317980999826,766.0723349100793,766.0773966000415,766.4726973100682,d,1,0.38109000003896654,381.09000003896654,766.0773966000415,766.4726973100682,766.4844358999981,768.0501981099718,EMOCONPILOT006,2020_Dec_30_1414,EmoCon_Pilot_120Hz,2020.2.4,120.29120102822846,
,,,,1,0,1,0,26,0,26,0,,,,,,,,,,,,,,,,,,,,,,,,,,,,,,,,,,,,,,,,,,,,,,26,4.0,m,016_y_m_n_a.jpg,neutral,s,17,2,768.0556408000411,768.3502141100238,768.583575900062,768.7395194099867,768.7445633000461,768.7858183100237,768.7914868000662,769.2278578100144,s,1,0.42698789993301034,426.98789993301034,768.7914868000662,769.2278578100144,769.239293300081,770.783550109982,EMOCONPILOT006,2020_Dec_30_1414,EmoCon_Pilot_120Hz,2020.2.4,120.29120102822846,
,,,,1,0,1,0,27,0,27,0,,,,,,,,,,,,,,,,,,,,,,,,,,,,,,,,,,,,,,,,,,,,,,27,1.0,m,004_o_m_h_a.jpg,happy,d,2,2,770.787767700036,771.0835778100067,771.2869687000057,771.304597410059,771.3077159000095,771.3462786099757,771.3497514000628,772.0838566100341,d,1,0.7168115000240505,716.8115000240505,771.3497514000628,772.0838566100341,772.095256300061,773.1919839100796,EMOCONPILOT006,2020_Dec_30_1414,EmoCon_Pilot_120Hz,2020.2.4,120.29120102822846,
,,,,1,0,1,0,28,0,28,0,,,,,,,,,,,,,,,,,,,,,,,,,,,,,,,,,,,,,,,,,,,,,,28,10.0,f,028_y_f_s_a.jpg,sad,a,17,2,773.1973068000516,773.4919875100371,773.5160258000251,773.6519416100695,773.655366800027,773.6950958100264,773.6997494000243,774.3810072100372,s,0,0.6709350000601262,670.9350000601262,773.6997494000243,774.3810072100372,774.392602100037,775.5337305100751,EMOCONPILOT006,2020_Dec_30_1414,EmoCon_Pilot_120Hz,2020.2.4,120.29120102822846,
,,,,1,0,1,0,29,0,29,0,,,,,,,,,,,,,,,,,,,,,,,,,,,,,,,,,,,,,,,,,,,,,,29,5.0,m,027_o_m_h_a.jpg,happy,d,17,2,775.5388719000621,775.8337138099945,776.0549150999868,776.2175385100185,776.2207141000545,776.2588260100805,776.262594699976,776.6013511100667,d,1,0.3239458000753075,323.9458000753075,776.262594699976,776.6013511100667,776.6125476000598,778.3087145099765,EMOCONPILOT006,2020_Dec_30_1414,EmoCon_Pilot_120Hz,2020.2.4,120.29120102822846,
,,,,1,0,1,0,30,0,30,0,,,,,,,,,,,,,,,,,,,,,,,,,,,,,,,,,,,,,,,,,,,,,,30,10.0,f,028_y_f_h_a.jpg,happy,d,17,2,778.312733400031,778.608846309979,778.629689799971,778.7604124100529,778.763744099997,778.801860610058,778.8061044000788,779.208928309998,d,1,0.3884404000127688,388.4404000127688,778.8061044000788,779.208928309998,779.2184159000171,780.7171850100043,EMOCONPILOT006,2020_Dec_30_1414,EmoCon_Pilot_120Hz,2020.2.4,120.29120102822846,
,,,,1,0,1,0,31,0,31,0,,,,,,,,,,,,,,,,,,,,,,,,,,,,,,,,,,,,,,,,,,,,,,31,5.0,m,027_o_m_h_a.jpg,happy,d,2,2,780.7215568000684,781.0170936100534,781.2234658000525,781.2401538100443,781.24068789999,781.2766495100572,781.2766696000472,781.7625081100617,d,1,0.4698511000024155,469.8511000024155,781.2766696000472,781.7625081100617,781.7691370999673,782.9756142100435,EMOCONPILOT006,2020_Dec_30_1414,EmoCon_Pilot_120Hz,2020.2.4,120.29120102822846,
,,,,1,0,1,0,32,0,32,0,,,,,,,,,,,,,,,,,,,,,,,,,,,,,,,,,,,,,,,,,,,,,,32,9.0,f,021_o_f_n_a.jpg,neutral,s,2,2,782.980961299967,783.275560710032,783.4915445999941,783.5086754099815,783.5091017000377,783.5439139099675,783.5433920000214,783.9969963099924,d,0,0.44302630005404353,443.02630005404353,783.5433920000214,783.9969963099924,784.0044721000595,785.2256300100474,EMOCONPILOT006,2020_Dec_30_1414,EmoCon_Pilot_120Hz,2020.2.4,120.29120102822846,
,,,,1,0,1,0,33,0,33,0,,,,,,,,,,,,,,,,,,,,,,,,,,,,,,,,,,,,,,,,,,,,,,33,3.0,m,013_y_m_s_a.jpg,sad,a,17,2,785.2286366000772,785.5255286100204,785.5486169999931,785.6855816099909,785.6899916999973,785.7305473100045,785.7355390000157,786.4978497099713,a,1,0.7472060000291094,747.2060000291094,785.7355390000157,786.4978497099713,786.509770500008,787.5672531100339,EMOCONPILOT006,2020_Dec_30_1414,EmoCon_Pilot_120Hz,2020.2.4,120.29120102822846,
,,,,1,0,1,0,34,0,34,0,,,,,,,,,,,,,,,,,,,,,,,,,,,,,,,,,,,,,,,,,,,,,,34,1.0,m,004_o_m_n_a.jpg,neutral,s,2,2,787.5715498999925,787.8672695099725,788.0698652999708,788.0873816099833,788.087770299986,788.1234915099689,788.1229116000468,788.86424991003,s,1,0.7274935999885201,727.4935999885201,788.1229116000468,788.86424991003,788.870772000053,790.2089695100789,EMOCONPILOT006,2020_Dec_30_1414,EmoCon_Pilot_120Hz,2020.2.4,120.29120102822846,
,,,,1,0,1,0,35,0,35,0,,,,,,,,,,,,,,,,,,,,,,,,,,,,,,,,,,,,,,,,,,,,,,35,12.0,f,040_y_f_h_a.jpg,happy,d,2,2,790.2131033000769,790.5089816099847,790.5222832000582,790.537718210055,790.5377044000197,790.5768808100023,790.5781492000679,791.0590207099798,d,1,0.46438979997765273,464.38979997765273,790.5781492000679,791.0590207099798,791.0672318000579,792.0756846099742,EMOCONPILOT006,2020_Dec_30_1414,EmoCon_Pilot_120Hz,2020.2.4,120.29120102822846,
,,,,1,0,1,0,36,0,36,0,,,,,,,,,,,,,,,,,,,,,,,,,,,,,,,,,,,,,,,,,,,,,,36,10.0,f,028_y_f_n_a.jpg,neutral,s,17,2,792.0797986000543,792.3757931100321,792.5764822000638,792.742591809982,792.7475193999708,792.7882546100649,792.7924837999744,793.138024410035,s,1,0.33815229998435825,338.15229998435825,792.7924837999744,793.138024410035,793.1497801999794,794.8174410100677,EMOCONPILOT006,2020_Dec_30_1414,EmoCon_Pilot_120Hz,2020.2.4,120.29120102822846,
,,,,1,0,1,0,37,0,37,0,,,,,,,,,,,,,,,,,,,,,,,,,,,,,,,,,,,,,,,,,,,,,,37,11.0,f,030_o_f_n_a.jpg,neutral,s,17,2,794.8230358000146,795.117430210032,795.3162507000379,795.4790225100354,795.4825419000117,795.5234451099881,795.5285107999807,795.9776416099979,a,0,0.4340608000056818,434.0608000056818,795.5285107999807,795.9776416099979,795.984645999968,797.2176146100159,EMOCONPILOT006,2020_Dec_30_1414,EmoCon_Pilot_120Hz,2020.2.4,120.29120102822846,
,,,,1,0,1,0,38,0,38,0,,,,,,,,,,,,,,,,,,,,,,,,,,,,,,,,,,,,,,,,,,,,,,38,1.0,m,004_o_m_h_a.jpg,happy,d,17,2,797.2230521000456,797.5175648100325,797.7219449999975,797.8893576100585,797.8941969000734,797.9353282100404,797.9403006000211,798.256188810023,d,1,0.30251539999153465,302.51539999153465,797.9403006000211,798.256188810023,798.2663563999813,799.6674824100104,EMOCONPILOT006,2020_Dec_30_1414,EmoCon_Pilot_120Hz,2020.2.4,120.29120102822846,
,,,,1,0,1,0,39,0,39,0,,,,,,,,,,,,,,,,,,,,,,,,,,,,,,,,,,,,,,,,,,,,,,39,6.0,m,033_o_m_h_a.jpg,happy,d,17,2,799.6707546999678,799.9675545100239,799.9912661999697,800.1275305099902,800.1320561000612,800.1729645100771,800.1781615000218,800.6152050099685,d,1,0.4247454000869766,424.7454000869766,800.1781615000218,800.6152050099685,800.6266486999812,802.2842328100581,EMOCONPILOT006,2020_Dec_30_1414,EmoCon_Pilot_120Hz,2020.2.4,120.29120102822846,
,,,,1,0,1,0,40,0,40,0,,,,,,,,,,,,,,,,,,,,,,,,,,,,,,,,,,,,,,,,,,,,,,40,7.0,f,012_o_f_h_a.jpg,happy,d,17,2,802.2872121999972,802.5841992099653,802.5992420000257,802.7359369100653,802.7393303000135,802.779491210042,802.7837759000249,803.1302026100806,d,1,0.3307163000572473,330.7163000572473,802.7837759000249,803.1302026100806,803.1408885000274,804.8843344099936,EMOCONPILOT006,2020_Dec_30_1414,EmoCon_Pilot_120Hz,2020.2.4,120.29120102822846,
,,,,1,0,1,0,41,0,41,0,,,,,,,,,,,,,,,,,,,,,,,,,,,,,,,,,,,,,,,,,,,,,,41,6.0,m,033_o_m_n_a.jpg,neutral,s,17,2,804.8904548999853,805.1844647099846,805.3974209000589,805.556190310081,805.5599051000318,805.5969164100592,805.6000875000609,806.5220543099916,s,1,0.9144809000426903,914.4809000426903,805.6000875000609,806.5220543099916,806.5339909000322,808.151074609987,EMOCONPILOT006,2020_Dec_30_1414,EmoCon_Pilot_120Hz,2020.2.4,120.29120102822846,
,,,,1,0,1,0,42,0,42,0,,,,,,,,,,,,,,,,,,,,,,,,,,,,,,,,,,,,,,,,,,,,,,42,7.0,f,012_o_f_h_a.jpg,happy,d,17,2,808.156483400031,808.4511758099892,808.476018800051,808.6110394100309,808.6145913000219,808.655466010014,808.6600127000129,809.0768023099866,d,1,0.4065285000251606,406.5285000251606,808.6600127000129,809.0768023099866,809.0843620999949,810.7094446099712,EMOCONPILOT006,2020_Dec_30_1414,EmoCon_Pilot_120Hz,2020.2.4,120.29120102822846,
,,,,1,0,1,0,43,0,43,0,,,,,,,,,,,,,,,,,,,,,,,,,,,,,,,,,,,,,,,,,,,,,,43,5.0,m,027_o_m_h_a.jpg,happy,d,17,2,810.7149342000484,811.009519510006,811.211478900048,811.3742695100722,811.3788242000155,811.4207758100587,811.4253580999793,811.7805628100526,d,1,0.3453536999877542,345.3536999877542,811.4253580999793,811.7805628100526,811.7922152000247,813.567806010053,EMOCONPILOT006,2020_Dec_30_1414,EmoCon_Pilot_120Hz,2020.2.4,120.29120102822846,
,,,,1,0,1,0,44,0,44,0,,,,,,,,,,,,,,,,,,,,,,,,,,,,,,,,,,,,,,,,,,,,,,44,10.0,f,028_y_f_s_a.jpg,sad,a,2,2,813.573776800069,813.8678513099788,813.887702499982,813.9033445100416,813.9040597999701,813.939460810076,813.9395942999981,814.511649610044,d,0,0.5587475000647828,558.7475000647828,813.9395942999981,814.511649610044,814.5172789000208,815.9262874100008,EMOCONPILOT006,2020_Dec_30_1414,EmoCon_Pilot_120Hz,2020.2.4,120.29120102822846,
,,,,1,0,1,0,45,0,45,0,,,,,,,,,,,,,,,,,,,,,,,,,,,,,,,,,,,,,,,,,,,,,,45,7.0,f,012_o_f_n_a.jpg,neutral,s,2,2,815.9303748999955,816.2262204100028,816.4449236000655,816.4627751100692,816.4629379999824,816.4975566100678,816.4972420000704,817.1259600100224,d,0,0.6171900000190362,617.1900000190362,816.4972420000704,817.1259600100224,817.1316853000317,818.126283910044,EMOCONPILOT006,2020_Dec_30_1414,EmoCon_Pilot_120Hz,2020.2.4,120.29120102822846,
,,,,1,0,1,0,46,0,46,0,,,,,,,,,,,,,,,,,,,,,,,,,,,,,,,,,,,,,,,,,,,,,,46,1.0,m,004_o_m_n_a.jpg,neutral,s,17,2,818.1303676000098,818.4262479100493,818.6190663999878,818.7899675100692,818.7946768000256,818.8355728100636,818.8405768000521,819.3077602100442,s,1,0.45810899999924004,458.10899999924004,818.8405768000521,819.3077602100442,819.3194445000263,820.4763760100235,EMOCONPILOT006,2020_Dec_30_1414,EmoCon_Pilot_120Hz,2020.2.4,120.29120102822846,
,,,,1,0,1,0,47,0,47,0,,,,,,,,,,,,,,,,,,,,,,,,,,,,,,,,,,,,,,,,,,,,,,47,9.0,f,021_o_f_h_a.jpg,happy,d,17,2,820.4804134999868,820.776289709995,820.9864250000101,821.1444591100211,821.1491042000707,821.1900799100171,821.1953941000393,821.5513762099785,d,1,0.3436335000442341,343.6335000442341,821.1953941000393,821.5513762099785,821.5624846999999,823.5513286099653,EMOCONPILOT006,2020_Dec_30_1414,EmoCon_Pilot_120Hz,2020.2.4,120.29120102822846,
,,,,1,0,1,0,48,0,48,0,,,,,,,,,,,,,,,,,,,,,,,,,,,,,,,,,,,,,,,,,,,,,,48,10.0,f,028_y_f_n_a.jpg,neutral,s,17,2,823.5553849000717,823.851369509974,824.0538526000455,824.2099159100675,824.2146654999815,824.2549328100052,824.2603061000118,824.5873297100537,s,1,0.3103924000170082,310.3924000170082,824.2603061000118,824.5873297100537,824.5980360000394,825.6180779100745,EMOCONPILOT006,2020_Dec_30_1414,EmoCon_Pilot_120Hz,2020.2.4,120.29120102822846,
,,,,1,0,1,0,49,0,49,0,,,,,,,,,,,,,,,,,,,,,,,,,,,,,,,,,,,,,,,,,,,,,,49,7.0,f,012_o_f_h_a.jpg,happy,d,2,2,825.62213839998,825.918079410016,825.9424285000423,825.9577412100392,825.9585255000275,825.9948833099683,825.9954854999669,826.5220944100641,d,1,0.5189258001046255,518.9258001046255,825.9954854999669,826.5220944100641,826.5296942000277,827.6930318100261,EMOCONPILOT006,2020_Dec_30_1414,EmoCon_Pilot_120Hz,2020.2.4,120.29120102822846,
,,,,1,0,1,0,50,0,50,0,,,,,,,,,,,,,,,,,,,,,,,,,,,,,,,,,,,,,,,,,,,,,,50,5.0,m,027_o_m_h_a.jpg,happy,d,17,2,827.6969204000197,827.993186109967,828.193467700039,828.3523944099783,828.356999300071,828.3982087100507,828.4025931999786,828.7487500100746,d,1,0.3360580999869853,336.0580999869853,828.4025931999786,828.7487500100746,828.7602943000384,830.0932045099674,EMOCONPILOT006,2020_Dec_30_1414,EmoCon_Pilot_120Hz,2020.2.4,120.29120102822846,
,,,,1,0,1,0,51,0,51,0,,,,,,,,,,,,,,,,,,,,,,,,,,,,,,,,,,,,,,,,,,,,,,51,12.0,f,040_y_f_n_a.jpg,neutral,s,17,2,830.0987746000756,830.393216509989,830.6004111000802,830.7537618100527,830.7541964000557,830.7917480100062,830.7949949000031,831.1838877100148,s,1,0.3755566000472754,375.5566000472754,830.7949949000031,831.1838877100148,831.192676100065,832.5932545099989,EMOCONPILOT006,2020_Dec_30_1414,EmoCon_Pilot_120Hz,2020.2.4,120.29120102822846,
,,,,1,0,1,0,52,0,52,0,,,,,,,,,,,,,,,,,,,,,,,,,,,,,,,,,,,,,,,,,,,,,,52,2.0,m,008_y_m_h_a.jpg,happy,d,2,2,832.5993657000363,832.893279510003,832.9207940000342,832.9368547100224,832.939076700015,832.9758692100062,832.9774246000452,833.4319587099948,d,1,0.4409847999922931,440.9847999922931,832.9774246000452,833.4319587099948,833.4373003999935,835.2849463100196,EMOCONPILOT006,2020_Dec_30_1414,EmoCon_Pilot_120Hz,2020.2.4,120.29120102822846,
,,,,1,0,1,0,53,0,53,0,,,,,,,,,,,,,,,,,,,,,,,,,,,,,,,,,,,,,,,,,,,,,,53,6.0,m,033_o_m_h_a.jpg,happy,d,2,2,835.2892591999844,835.5849375099991,835.607898700051,835.6232747100643,835.6240611000685,835.6611944099772,835.6609884999925,836.1623818100546,d,1,0.48553619999438524,485.53619999438524,835.6609884999925,836.1623818100546,836.1691404000157,837.5433428100426,EMOCONPILOT006,2020_Dec_30_1414,EmoCon_Pilot_120Hz,2020.2.4,120.29120102822846,
,,,,1,0,1,0,54,0,54,0,,,,,,,,,,,,,,,,,,,,,,,,,,,,,,,,,,,,,,,,,,,,,,54,2.0,m,008_y_m_h_a.jpg,happy,d,17,2,837.5474728000117,837.8434010100667,837.868192999973,838.0034281100728,838.0067123000044,838.0463503100094,838.0499266000697,838.4267028100206,d,1,0.368934900034219,368.934900034219,838.0499266000697,838.4267028100206,838.4381791000487,839.9015668100095,EMOCONPILOT006,2020_Dec_30_1414,EmoCon_Pilot_120Hz,2020.2.4,120.29120102822846,
,,,,1,0,1,0,55,0,55,0,,,,,,,,,,,,,,,,,,,,,,,,,,,,,,,,,,,,,,,,,,,,,,55,12.0,f,040_y_f_h_a.jpg,happy,d,17,2,839.9021482000826,840.2018348100013,840.2274125000695,840.361662310001,840.3647383999778,840.4029871099978,840.405969100073,840.6877157100593,d,1,0.2685812000418082,268.5812000418082,840.405969100073,840.6877157100593,840.6968035000609,842.2267536099884,EMOCONPILOT006,2020_Dec_30_1414,EmoCon_Pilot_120Hz,2020.2.4,120.29120102822846,
,,,,1,0,1,0,56,0,56,0,,,,,,,,,,,,,,,,,,,,,,,,,,,,,,,,,,,,,,,,,,,,,,56,10.0,f,028_y_f_n_a.jpg,neutral,s,17,2,842.229874300072,842.526739910047,842.7700651000487,842.9292414100258,842.9339316000696,842.9750900100101,842.97997450002,843.2800355099956,s,1,0.28654360002838075,286.54360002838075,842.97997450002,843.2800355099956,843.2900822000811,845.2601915100007,EMOCONPILOT006,2020_Dec_30_1414,EmoCon_Pilot_120Hz,2020.2.4,120.29120102822846,
,,,,1,0,1,0,57,0,57,0,,,,,,,,,,,,,,,,,,,,,,,,,,,,,,,,,,,,,,,,,,,,,,57,12.0,f,040_y_f_s_a.jpg,sad,a,2,2,845.265771000064,845.5601931100595,845.5765846000286,845.5918340100092,845.5924376000185,845.6279355100472,845.6288626000751,846.1934312100406,d,0,0.5498177000554278,549.8177000554278,845.6288626000751,846.1934312100406,846.2037021999713,847.4435443099704,EMOCONPILOT006,2020_Dec_30_1414,EmoCon_Pilot_120Hz,2020.2.4,120.29120102822846,
,,,,1,0,1,0,58,0,58,0,,,,,,,,,,,,,,,,,,,,,,,,,,,,,,,,,,,,,,,,,,,,,,58,5.0,m,027_o_m_n_a.jpg,neutral,s,17,2,847.4475394000765,847.7436368100228,847.9616963000735,848.1192027100245,848.1219927000348,848.1599486100371,848.1626400999958,848.8456527099828,s,1,0.6718599000014365,671.8599000014365,848.1626400999958,848.8456527099828,848.8545923000202,850.8186026100651,EMOCONPILOT006,2020_Dec_30_1414,EmoCon_Pilot_120Hz,2020.2.4,120.29120102822846,
,,,,1,0,1,0,59,0,59,0,,,,,,,,,,,,,,,,,,,,,,,,,,,,,,,,,,,,,,,,,,,,,,59,4.0,m,016_y_m_s_a.jpg,sad,a,2,2,850.8226678000065,851.1186906099668,851.1453533000313,851.160949509975,851.1613491000608,851.1969225099659,851.1965832000133,852.3797508100164,a,1,1.1739579000277445,1173.9579000277445,851.1965832000133,852.3797508100164,852.3862796999747,853.8021365100634,EMOCONPILOT006,2020_Dec_30_1414,EmoCon_Pilot_120Hz,2020.2.4,120.29120102822846,
,,,,1,0,1,0,60,0,60,0,,,,,,,,,,,,,,,,,,,,,,,,,,,,,,,,,,,,,,,,,,,,,,60,5.0,m,027_o_m_n_a.jpg,neutral,s,17,2,853.8077337000286,854.1021147100604,854.3127013000194,854.4826976100798,854.4861760999775,854.5271001099958,854.5310674000066,854.9273213100736,s,1,0.38394440000411123,383.94440000411123,854.5310674000066,854.9273213100736,854.938620800036,856.0353823100799,EMOCONPILOT006,2020_Dec_30_1414,EmoCon_Pilot_120Hz,2020.2.4,120.29120102822846,
,,,,1,0,1,0,61,0,61,0,,,,,,,,,,,,,,,,,,,,,,,,,,,,,,,,,,,,,,,,,,,,,,61,10.0,f,028_y_f_s_a.jpg,sad,a,2,2,856.0393554000184,856.3353726100526,856.3577479000669,856.3727304099942,856.3737036000239,856.4116452100337,856.4117822999833,857.0329228099785,d,0,0.6069251000881195,606.9251000881195,856.4117822999833,857.0329228099785,857.0395121000474,858.0353300100309,EMOCONPILOT006,2020_Dec_30_1414,EmoCon_Pilot_120Hz,2020.2.4,120.29120102822846,
,,,,1,0,1,0,62,0,62,0,,,,,,,,,,,,,,,,,,,,,,,,,,,,,,,,,,,,,,,,,,,,,,62,3.0,m,013_y_m_n_a.jpg,neutral,s,2,2,858.0383882999886,858.3353429100592,858.5741362000117,858.5902461100253,858.5910540000768,858.6283606100245,858.6282795000589,859.2661017100676,s,1,0.6302952999249101,630.2952999249101,858.6282795000589,859.2661017100676,859.2744628000073,860.2771514100372,EMOCONPILOT006,2020_Dec_30_1414,EmoCon_Pilot_120Hz,2020.2.4,120.29120102822846,
,,,,1,0,1,0,63,0,63,0,,,,,,,,,,,,,,,,,,,,,,,,,,,,,,,,,,,,,,,,,,,,,,63,4.0,m,016_y_m_s_a.jpg,sad,a,17,2,860.2814160999842,860.5771565100061,860.5863200000022,860.7204822099651,860.7248509000055,860.7655990099651,860.7707514000358,861.22785460999,a,1,0.4480778999859467,448.0778999859467,860.7707514000358,861.22785460999,861.2391390000703,862.6938637100742,EMOCONPILOT006,2020_Dec_30_1414,EmoCon_Pilot_120Hz,2020.2.4,120.29120102822846,
,,,,1,0,1,0,64,0,64,0,,,,,,,,,,,,,,,,,,,,,,,,,,,,,,,,,,,,,,,,,,,,,,64,12.0,f,040_y_f_h_a.jpg,happy,d,2,2,862.6979377000825,862.9939693099935,863.017290799995,863.0326820100075,863.0333325000247,863.0699784100638,863.0701891999925,863.6800247100531,d,1,0.5966951000737026,596.6951000737026,863.0701891999925,863.6800247100531,863.6876677999971,864.7272733099875,EMOCONPILOT006,2020_Dec_30_1414,EmoCon_Pilot_120Hz,2020.2.4,120.29120102822846,
,,,,1,0,1,0,65,0,65,0,,,,,,,,,,,,,,,,,,,,,,,,,,,,,,,,,,,,,,,,,,,,,,65,5.0,m,027_o_m_n_a.jpg,neutral,s,2,2,864.7326393000549,865.0272897100425,865.2492195999948,865.266118809965,865.2670090000611,865.3033523100079,865.3030350999907,865.9417536100722,s,1,0.6273686001077294,627.3686001077294,865.3030350999907,865.9417536100722,865.9480885000667,867.7356773100677,EMOCONPILOT006,2020_Dec_30_1414,EmoCon_Pilot_120Hz,2020.2.4,120.29120102822846,
,,,,1,0,1,0,66,0,66,0,,,,,,,,,,,,,,,,,,,,,,,,,,,,,,,,,,,,,,,,,,,,,,66,6.0,m,033_o_m_s_a.jpg,sad,a,17,2,867.7417778000236,868.0357473100652,868.0616128999973,868.1955906100687,868.1987690000096,868.2369544100133,868.2401501999702,868.9308990100748,s,0,0.6825451999902725,682.5451999902725,868.2401501999702,868.9308990100748,868.941724000033,870.7858295099926,EMOCONPILOT006,2020_Dec_30_1414,EmoCon_Pilot_120Hz,2020.2.4,120.29120102822846,
,,,,1,0,1,0,67,0,67,0,,,,,,,,,,,,,,,,,,,,,,,,,,,,,,,,,,,,,,,,,,,,,,67,6.0,m,033_o_m_h_a.jpg,happy,d,2,2,870.7914246000582,871.0857365100295,871.1095405999804,871.1247119100648,871.1256984000793,871.1618860100047,871.1617605000501,871.7273610100732,d,1,0.5526810999726877,552.6810999726877,871.1617605000501,871.7273610100732,871.734010300017,873.4940751099842,EMOCONPILOT006,2020_Dec_30_1414,EmoCon_Pilot_120Hz,2020.2.4,120.29120102822846,
,,,,1,0,1,0,68,0,68,0,,,,,,,,,,,,,,,,,,,,,,,,,,,,,,,,,,,,,,,,,,,,,,68,2.0,m,008_y_m_s_a.jpg,sad,a,17,2,873.4983147999737,873.794093710056,874.0423139000777,874.2086618100642,874.2119761999929,874.253008910024,874.2580875999993,874.6344768100302,a,1,0.36867560003884137,368.67560003884137,874.2580875999993,874.6344768100302,874.6463688000804,876.2025183099671,EMOCONPILOT006,2020_Dec_30_1414,EmoCon_Pilot_120Hz,2020.2.4,120.29120102822846,
,,,,1,0,1,0,69,0,69,0,,,,,,,,,,,,,,,,,,,,,,,,,,,,,,,,,,,,,,,,,,,,,,69,1.0,m,004_o_m_n_a.jpg,neutral,s,17,2,876.2078708000481,876.5025237100548,876.7022642000811,876.8575106100528,876.8606305000139,876.8975776100182,876.9002404999919,877.3471587100415,s,1,0.4385348999639973,438.5348999639973,876.9002404999919,877.3471587100415,877.3584644000512,878.7943139099865,EMOCONPILOT006,2020_Dec_30_1414,EmoCon_Pilot_120Hz,2020.2.4,120.29120102822846,
,,,,1,0,1,0,70,0,70,0,,,,,,,,,,,,,,,,,,,,,,,,,,,,,,,,,,,,,,,,,,,,,,70,2.0,m,008_y_m_s_a.jpg,sad,a,17,2,878.7999884000747,879.0942464099847,879.3194559999974,879.4759087100741,879.479260000051,879.5191451100749,879.5226992000826,880.1044377100537,a,1,0.5677916000131518,567.7916000131518,879.5226992000826,880.1044377100537,880.1102596999845,881.7775221100659,EMOCONPILOT006,2020_Dec_30_1414,EmoCon_Pilot_120Hz,2020.2.4,120.29120102822846,
,,,,1,0,1,0,71,0,71,0,,,,,,,,,,,,,,,,,,,,,,,,,,,,,,,,,,,,,,,,,,,,,,71,11.0,f,030_o_f_n_a.jpg,neutral,s,17,2,881.7804931000574,882.0775299100554,882.2756236999994,882.4326570100733,882.4341967999935,882.4712312100804,882.4738522999687,882.9379630100797,s,1,0.4565603999653831,456.5603999653831,882.4738522999687,882.9379630100797,882.9460982000455,884.8943599100807,EMOCONPILOT006,2020_Dec_30_1414,EmoCon_Pilot_120Hz,2020.2.4,120.29120102822846,
,,,,1,0,1,0,72,0,72,0,,,,,,,,,,,,,,,,,,,,,,,,,,,,,,,,,,,,,,,,,,,,,,72,11.0,f,030_o_f_n_a.jpg,neutral,s,17,2,884.8985151000088,885.1943498100503,885.3942953000078,885.5472502099932,885.5493243000237,885.5873024100787,885.5894652999705,886.3102515100385,s,1,0.7091689999215305,709.1689999215305,885.5894652999705,886.3102515100385,886.3197647000197,888.0695424100035,EMOCONPILOT006,2020_Dec_30_1414,EmoCon_Pilot_120Hz,2020.2.4,120.29120102822846,
,,,,1,0,1,0,73,0,73,0,,,,,,,,,,,,,,,,,,,,,,,,,,,,,,,,,,,,,,,,,,,,,,73,2.0,m,008_y_m_s_a.jpg,sad,a,17,2,888.075050799991,888.3694730099872,888.6018303000601,888.7599158099969,888.7647890000371,888.8050807100138,888.8101106999675,889.4304125099792,a,1,0.6084614999126643,608.4614999126643,888.8101106999675,889.4304125099792,889.4378904000623,890.7444648100412,EMOCONPILOT006,2020_Dec_30_1414,EmoCon_Pilot_120Hz,2020.2.4,120.29120102822846,
,,,,1,0,1,0,74,0,74,0,,,,,,,,,,,,,,,,,,,,,,,,,,,,,,,,,,,,,,,,,,,,,,74,11.0,f,030_o_f_n_a.jpg,neutral,s,17,2,890.7484690999845,891.0444724100292,891.2393804000458,891.3990387099678,891.4027426000684,891.4436015100567,891.4486957000336,892.1413663099869,s,1,0.6741953999735415,674.1953999735415,891.4486957000336,892.1413663099869,892.1531519000418,893.5279873099993,EMOCONPILOT006,2020_Dec_30_1414,EmoCon_Pilot_120Hz,2020.2.4,120.29120102822846,
,,,,1,0,1,0,75,0,75,0,,,,,,,,,,,,,,,,,,,,,,,,,,,,,,,,,,,,,,,,,,,,,,75,1.0,m,004_o_m_s_a.jpg,sad,a,17,2,893.533487000037,893.8279101100401,893.8541766999988,893.9878385099931,893.9907655999996,894.0291738100699,894.0321110000368,894.6918475099723,a,1,0.6504152999259531,650.4152999259531,894.0321110000368,894.6918475099723,894.7013012000825,895.7028908100095,EMOCONPILOT006,2020_Dec_30_1414,EmoCon_Pilot_120Hz,2020.2.4,120.29120102822846,
,,,,1,0,1,0,76,0,76,0,,,,,,,,,,,,,,,,,,,,,,,,,,,,,,,,,,,,,,,,,,,,,,76,3.0,m,013_y_m_n_a.jpg,neutral,s,2,2,895.7059913000558,896.0030047099921,896.2498145999853,896.2666241099708,896.2673913000617,896.3041480100131,896.3040932000149,897.0377075099735,s,1,0.7227507999632508,722.7507999632508,896.3040932000149,897.0377075099735,897.0454221999971,898.8364289100631,EMOCONPILOT006,2020_Dec_30_1414,EmoCon_Pilot_120Hz,2020.2.4,120.29120102822846,
,,,,1,0,1,0,77,0,77,0,,,,,,,,,,,,,,,,,,,,,,,,,,,,,,,,,,,,,,,,,,,,,,77,7.0,f,012_o_f_s_a.jpg,sad,a,2,2,898.841894500074,899.1363364099874,899.1628002000507,899.1786864099907,899.1800413000165,899.2163229100755,899.2175601000199,899.9149163100286,s,0,0.6890205999370664,689.0205999370664,899.2175601000199,899.9149163100286,899.9234558000462,900.9197113099857,EMOCONPILOT006,2020_Dec_30_1414,EmoCon_Pilot_120Hz,2020.2.4,120.29120102822846,
,,,,1,0,1,0,78,0,78,0,,,,,,,,,,,,,,,,,,,,,,,,,,,,,,,,,,,,,,,,,,,,,,78,12.0,f,040_y_f_n_a.jpg,neutral,s,2,2,900.9250447000377,901.2197154100635,901.4420708999969,901.4592125100665,901.462370299967,901.5015837099985,901.5063282999909,902.0657607100787,s,1,0.5524204999674112,552.4204999674112,901.5063282999909,902.0657607100787,902.0777511000633,903.9113801099942,EMOCONPILOT006,2020_Dec_30_1414,EmoCon_Pilot_120Hz,2020.2.4,120.29120102822846,
,,,,1,0,1,0,79,0,79,0,,,,,,,,,,,,,,,,,,,,,,,,,,,,,,,,,,,,,,,,,,,,,,79,6.0,m,033_o_m_h_a.jpg,happy,d,2,2,903.9153547000606,904.2114086100249,904.2335924999788,904.2488251100643,904.2499944000738,904.2876293100766,904.2874494000571,904.7699523100513,d,1,0.4751655999571085,475.1655999571085,904.2874494000571,904.7699523100513,904.7796628000215,906.2199233100167,EMOCONPILOT006,2020_Dec_30_1414,EmoCon_Pilot_120Hz,2020.2.4,120.29120102822846,
,,,,1,0,1,0,80,0,80,0,,,,,,,,,,,,,,,,,,,,,,,,,,,,,,,,,,,,,,,,,,,,,,80,2.0,m,008_y_m_n_a.jpg,neutral,s,2,2,906.225600100006,906.5198433100362,906.7631542000454,906.7797792100231,906.7800552999834,906.8155516099999,906.8159390999936,907.4177490100614,s,1,0.5947996000759304,594.7996000759304,906.8159390999936,907.4177490100614,907.4293648999883,908.5781689100316,EMOCONPILOT006,2020_Dec_30_1414,EmoCon_Pilot_120Hz,2020.2.4,120.29120102822846,
,,,,1,0,1,0,81,0,81,0,,,,,,,,,,,,,,,,,,,,,,,,,,,,,,,,,,,,,,,,,,,,,,81,12.0,f,040_y_f_h_a.jpg,happy,d,2,2,908.5821461000014,908.8781651100493,908.9013842999702,908.9165598099702,908.9184089000337,908.9543100099894,908.9554265000625,909.4803628099966,d,1,0.511202699970454,511.202699970454,908.9554265000625,909.4803628099966,909.4875045000808,910.8783369100769,EMOCONPILOT006,2020_Dec_30_1414,EmoCon_Pilot_120Hz,2020.2.4,120.29120102822846,
,,,,1,0,1,0,82,0,82,0,,,,,,,,,,,,,,,,,,,,,,,,,,,,,,,,,,,,,,,,,,,,,,82,9.0,f,021_o_f_h_a.jpg,happy,d,2,2,910.8837086000713,911.1783872100408,911.4011912000133,911.418050010025,911.4185537999729,911.4549152100575,911.4545024000108,911.9597919100546,d,1,0.4922979000257328,492.2979000257328,911.4545024000108,911.9597919100546,911.968927500071,912.9866920099943,EMOCONPILOT006,2020_Dec_30_1414,EmoCon_Pilot_120Hz,2020.2.4,120.29120102822846,
,,,,1,0,1,0,83,0,83,0,,,,,,,,,,,,,,,,,,,,,,,,,,,,,,,,,,,,,,,,,,,,,,83,6.0,m,033_o_m_h_a.jpg,happy,d,17,2,912.9896725000581,913.2866885100142,913.3091253000312,913.4467450100113,913.4512545000762,913.4920689100749,913.4970783999888,913.8928031099844,d,1,0.3856735998997465,385.6735998997465,913.4970783999888,913.8928031099844,913.904299100046,915.128346310032,EMOCONPILOT006,2020_Dec_30_1414,EmoCon_Pilot_120Hz,2020.2.4,120.29120102822846,
,,,,1,0,1,0,84,0,84,0,,,,,,,,,,,,,,,,,,,,,,,,,,,,,,,,,,,,,,,,,,,,,,84,2.0,m,008_y_m_n_a.jpg,neutral,s,17,2,915.1335171000101,915.4283426100504,915.6629688000539,915.8226108099683,915.8278828000184,915.8676820099703,915.8726335000247,916.1878787100198,s,1,0.2981154000153765,298.1154000153765,915.8726335000247,916.1878787100198,916.1992059000768,917.7951793100568,EMOCONPILOT006,2020_Dec_30_1414,EmoCon_Pilot_120Hz,2020.2.4,120.29120102822846,
,,,,1,0,1,0,85,0,85,0,,,,,,,,,,,,,,,,,,,,,,,,,,,,,,,,,,,,,,,,,,,,,,85,10.0,f,028_y_f_n_a.jpg,neutral,s,17,2,917.8006005000789,918.0951731100562,918.2896335000405,918.447200609988,918.4516904000193,918.4924721100018,918.4975820999825,918.8335674100439,s,1,0.32921220001298934,329.21220001298934,918.4975820999825,918.8335674100439,918.8453206999693,920.0033317100373,EMOCONPILOT006,2020_Dec_30_1414,EmoCon_Pilot_120Hz,2020.2.4,120.29120102822846,
,,,,1,0,1,0,86,0,86,0,,,,,,,,,,,,,,,,,,,,,,,,,,,,,,,,,,,,,,,,,,,,,,86,6.0,m,033_o_m_h_a.jpg,happy,d,2,2,920.0061936000129,920.3034138100105,920.3163961999817,920.3320432100794,920.3328853000421,920.3672284100088,920.3685380000388,921.0450363100157,d,1,0.6661020000465214,666.1020000465214,920.3685380000388,921.0450363100157,921.0534866000526,922.911759809975,EMOCONPILOT006,2020_Dec_30_1414,EmoCon_Pilot_120Hz,2020.2.4,120.29120102822846,
,,,,1,0,1,0,87,0,87,0,,,,,,,,,,,,,,,,,,,,,,,,,,,,,,,,,,,,,,,,,,,,,,87,5.0,m,027_o_m_s_a.jpg,sad,a,17,2,922.9158587000566,923.2119183100643,923.2320510999998,923.363431209966,923.3663157999981,923.4047421099734,923.4081119999755,924.188305110007,a,1,0.7704185000620782,770.4185000620782,923.4081119999755,924.188305110007,924.1964761000127,926.1535584100405,EMOCONPILOT006,2020_Dec_30_1414,EmoCon_Pilot_120Hz,2020.2.4,120.29120102822846,
,,,,1,0,1,0,88,0,88,0,,,,,,,,,,,,,,,,,,,,,,,,,,,,,,,,,,,,,,,,,,,,,,88,7.0,f,012_o_f_s_a.jpg,sad,a,17,2,926.157752100029,926.4536606100504,926.4692504999693,926.6052983099711,926.6091071000556,926.6468872099998,926.6466010999866,927.0329496100661,a,1,0.37206460000015795,372.06460000015795,926.6466010999866,927.0329496100661,927.0422388999723,928.9287513100193,EMOCONPILOT006,2020_Dec_30_1414,EmoCon_Pilot_120Hz,2020.2.4,120.29120102822846,
,,,,1,0,1,0,89,0,89,0,,,,,,,,,,,,,,,,,,,,,,,,,,,,,,,,,,,,,,,,,,,,,,89,2.0,m,008_y_m_h_a.jpg,happy,d,17,2,928.9340690000681,929.2287446100148,929.2529196999967,929.3885445100371,929.3913341000443,929.4299349100678,929.4329012000235,929.8404462100356,d,1,0.3938169999746606,393.8169999746606,929.4329012000235,929.8404462100356,929.8497055000626,931.0203662100597,EMOCONPILOT006,2020_Dec_30_1414,EmoCon_Pilot_120Hz,2020.2.4,120.29120102822846,
,,,,1,0,1,0,90,0,90,0,,,,,,,,,,,,,,,,,,,,,,,,,,,,,,,,,,,,,,,,,,,,,,90,7.0,f,012_o_f_h_a.jpg,happy,d,17,2,931.0255022000056,931.3203704100218,931.3457423000364,931.4803165099933,931.4830537000671,931.5215914100758,931.5248635000316,931.9565204100567,d,1,0.4216761999996379,421.6761999996379,931.5248635000316,931.9565204100567,931.9669906999916,933.3537461100262,EMOCONPILOT006,2020_Dec_30_1414,EmoCon_Pilot_120Hz,2020.2.4,120.29120102822846,
,,,,1,0,1,0,91,0,91,0,,,,,,,,,,,,,,,,,,,,,,,,,,,,,,,,,,,,,,,,,,,,,,91,10.0,f,028_y_f_s_a.jpg,sad,a,17,2,933.3579268000321,933.6536889099865,933.6749539000448,933.805415109999,933.8104357999982,933.8502679099678,933.854553900077,934.3134240099811,s,0,0.4440471000270918,444.0471000270918,933.854553900077,934.3134240099811,934.3209478000645,935.8705677100573,EMOCONPILOT006,2020_Dec_30_1414,EmoCon_Pilot_120Hz,2020.2.4,120.29120102822846,
,,,,1,0,1,0,92,0,92,0,,,,,,,,,,,,,,,,,,,,,,,,,,,,,,,,,,,,,,,,,,,,,,92,12.0,f,040_y_f_s_a.jpg,sad,a,17,2,935.876093500061,936.1704896099749,936.1923032000195,936.3304434100049,936.3347765000071,936.3756500099902,936.3808750000317,937.1439779099659,s,0,0.749713100027293,749.713100027293,936.3808750000317,937.1439779099659,937.1553535000421,938.2871817100444,EMOCONPILOT006,2020_Dec_30_1414,EmoCon_Pilot_120Hz,2020.2.4,120.29120102822846,
,,,,1,0,1,0,93,0,93,0,,,,,,,,,,,,,,,,,,,,,,,,,,,,,,,,,,,,,,,,,,,,,,93,2.0,m,008_y_m_n_a.jpg,neutral,s,2,2,938.2923707000446,938.5871818099753,938.8323192000389,938.8490098100505,938.8488924000412,938.8858291099663,938.8901965999976,939.6224436100223,d,0,0.7204393999418244,720.4393999418244,938.8901965999976,939.6224436100223,939.6341645000502,941.4622265099664,EMOCONPILOT006,2020_Dec_30_1414,EmoCon_Pilot_120Hz,2020.2.4,120.29120102822846,
,,,,1,0,1,0,94,0,94,0,,,,,,,,,,,,,,,,,,,,,,,,,,,,,,,,,,,,,,,,,,,,,,94,11.0,f,030_o_f_s_a.jpg,sad,a,2,2,941.4661852000281,941.7622194100753,941.9644476000685,941.9818600099883,941.9820683000144,942.0171779099968,942.0169001000468,942.6048111099866,d,0,0.5776774999685585,577.6774999685585,942.0169001000468,942.6048111099866,942.6143611000152,944.3539501100662,EMOCONPILOT006,2020_Dec_30_1414,EmoCon_Pilot_120Hz,2020.2.4,120.29120102822846,
