trials_example.thisRepN,trials_example.thisTrialN,trials_example.thisN,trials_example.thisIndex,block.thisRepN,block.thisTrialN,block.thisN,block.thisIndex,trials_study.thisRepN,trials_study.thisTrialN,trials_study.thisN,trials_study.thisIndex,text_welcome.started,text_welcome.stopped,text_intro.started,text_intro.stopped,key_resp_intro.keys,key_resp_intro.started,key_resp_intro.stopped,text_intro2.started,text_intro2.stopped,key_resp_intro2.keys,key_resp_intro2.rt,key_resp_intro2.started,key_resp_intro2.stopped,example trial,personPrimeExample,genderPrimeExample,primeExample,emotionPrimeExample,corrAnsPrimeExample,example mask time,fix300_example.started,fix300_example.stopped,image_primer_example.started,image_primer_example.stopped,scrambled.started,scrambled.stopped,text_response_example.started,text_response_example.stopped,key_resp_example.keys,key_resp_example.corr,key_resp_example.rt,key_resp_example.rt in ms,key_resp_example.started,key_resp_example.stopped,Jitter_example.started,Jitter_example.stopped,text_start.started,text_start.stopped,text_pause.started,text_pause.stopped,key_resp_pause.keys,key_resp_pause.rt,key_resp_pause.rt in ms,key_resp_pause.started,key_resp_pause.stopped,study trial,personPrimeStudy,genderPrimeStudy,primeStudy,emotionPrimeStudy,corrAnsPrimeStudy,study mask time,Block,fix300_study.started,fix300_study.stopped,image_primer_study.started,image_primer_study.stopped,scrambled_study.started,scrambled_study.stopped,text_response_study.started,text_response_study.stopped,key_resp_study.keys,key_resp_study.corr,key_resp_study.rt,key_resp_study.rt in ms,key_resp_study.started,key_resp_study.stopped,Jitter_study.started,Jitter_study.stopped,text_end.started,text_end.stopped,participant,date,expName,psychopyVersion,frameRate,
,,,,,,,,,,,,11.598532599999999,14.58663698000007,14.590421399999968,20.116367880000077,None,14.590421399999968,20.116367880000077,,,,,,,,,,,,,,,,,,,,,,,,,,,,,,,,,,,,,,,,,,,,,,,,,,,,,,,,,,,,,,,,,EmoCon002,2020_Dec_09_1707,EmoCon_Pilot_120Hz,2020.2.4,120.10006737610905,
,,,,,,,,,,,,,,,,,,,20.118938399999934,25.101686080000015,space,4.96623250000016,20.118938399999934,25.101686080000015,,,,,,,,,,,,,,,,,,,,,,,,,,,,,,,,,,,,,,,,,,,,,,,,,,,,,,,,,,,EmoCon002,2020_Dec_09_1707,EmoCon_Pilot_120Hz,2020.2.4,120.10006737610905,
0,0,0,0,,,,,,,,,,,,,,,,,,,,,,0,3.0,f,1113_y_f_s_a.jpg,sad,a,3,25.105922700000065,25.395097779999993,26.143246900000122,26.168727380000043,26.176638899999944,26.213685379999994,26.21871750000014,27.09384707999991,a,1,0.8664094999999179,866.4094999999179,26.21871750000014,27.09384707999991,27.098428000000013,28.645139080000014,,,,,,,,,,,,,,,,,,,,,,,,,,,,,,,,,,,,EmoCon002,2020_Dec_09_1707,EmoCon_Pilot_120Hz,2020.2.4,120.10006737610905,
1,0,1,0,,,,,,,,,,,,,,,,,,,,,,1,1.0,m,1111_m_m_s_a.jpg,sad,a,17,28.646163200000046,28.945018679999954,29.14288540000007,29.30260618000009,29.305759900000112,29.34679068000012,29.349737300000015,30.02255368000008,a,1,0.6632912000000033,663.2912000000033,29.349737300000015,30.02255368000008,30.02595210000004,31.620184679999944,,,,,,,,,,,,,,,,,,,,,,,,,,,,,,,,,,,,EmoCon002,2020_Dec_09_1707,EmoCon_Pilot_120Hz,2020.2.4,120.10006737610905,
2,0,2,0,,,,,,,,,,,,,,,,,,,,,,2,3.0,f,1113_y_f_n_a.jpg,neutral,s,3,31.621232100000043,31.92009187999995,32.12388080000005,32.15012937999993,32.15091219999999,32.18880787999999,32.19115860000011,33.17088518000012,s,1,0.966067300000077,966.067300000077,32.19115860000011,33.17088518000012,33.175667100000055,34.31202357999994,,,,,,,,,,,,,,,,,,,,,,,,,,,,,,,,,,,,EmoCon002,2020_Dec_09_1707,EmoCon_Pilot_120Hz,2020.2.4,120.10006737610905,
3,0,3,0,,,,,,,,,,,,,,,,,,,,,,3,2.0,f,1112_m_f_h_a.jpg,happy,d,17,34.31335100000001,34.61199417999999,34.81688000000008,34.97684468000009,34.97953099999995,35.020670079999924,35.02341999999999,35.48400098,d,1,0.4457542000000103,445.7542000000103,35.02341999999999,35.48400098,35.48877760000005,37.12041578000001,,,,,,,,,,,,,,,,,,,,,,,,,,,,,,,,,,,,EmoCon002,2020_Dec_09_1707,EmoCon_Pilot_120Hz,2020.2.4,120.10006737610905,
4,0,4,0,,,,,,,,,,,,,,,,,,,,,,4,2.0,f,1112_m_f_n_a.jpg,neutral,s,3,37.121666600000026,37.42041007999999,37.61190590000001,37.6379867800001,37.63847940000005,37.673204079999984,37.67323690000012,38.720741079999904,s,1,1.035895900000014,1035.895900000014,37.67323690000012,38.720741079999904,38.72344500000008,40.070300780000004,,,,,,,,,,,,,,,,,,,,,,,,,,,,,,,,,,,,EmoCon002,2020_Dec_09_1707,EmoCon_Pilot_120Hz,2020.2.4,120.10006737610905,
,,,,0,0,0,0,0,0,0,0,,,,,,,,,,,,,,,,,,,,,,,,,,,,,,,,,,,,,40.120158100000026,43.112277879999944,43.116384700000026,44.73105697999993,space,1.6006781999999475,1600.6781999999475,43.116384700000026,44.73105697999993,0,8.0,f,019_m_f_s_a.jpg,sad,a,17,1,44.7357214000001,45.028818680000064,45.7871983,45.94588337999992,45.95058199999994,45.98963827999999,45.99685490000002,46.555889879999974,a,1,0.544181700000081,544.181700000081,45.99685490000002,46.555889879999974,46.56344160000003,48.07884237999995,,,EmoCon002,2020_Dec_09_1707,EmoCon_Pilot_120Hz,2020.2.4,120.10006737610905,
,,,,0,0,0,0,1,0,1,0,,,,,,,,,,,,,,,,,,,,,,,,,,,,,,,,,,,,,,,,,,,,,,1,6.0,m,033_o_m_n_a.jpg,neutral,s,3,1,48.08284600000002,48.37882888000011,48.599111600000015,48.62543778000006,48.62591829999997,48.66343157999993,48.66351869999994,50.07772707999991,s,1,1.3977548000000297,1397.7548000000297,48.66351869999994,50.07772707999991,50.0859382000001,51.595578379999985,,,EmoCon002,2020_Dec_09_1707,EmoCon_Pilot_120Hz,2020.2.4,120.10006737610905,
,,,,0,0,0,0,2,0,2,0,,,,,,,,,,,,,,,,,,,,,,,,,,,,,,,,,,,,,,,,,,,,,,2,2.0,m,008_y_m_s_a.jpg,sad,a,17,1,51.59969460000002,51.895548680000026,52.12169300000005,52.27346848,52.27712880000013,52.31453067999994,52.31750970000007,52.79435678000002,a,1,0.4638033999999607,463.8033999999607,52.31750970000007,52.79435678000002,52.8036247,53.878938179999956,,,EmoCon002,2020_Dec_09_1707,EmoCon_Pilot_120Hz,2020.2.4,120.10006737610905,
,,,,0,0,0,0,3,0,3,0,,,,,,,,,,,,,,,,,,,,,,,,,,,,,,,,,,,,,,,,,,,,,,3,11.0,f,030_o_f_h_a.jpg,happy,d,17,1,53.879478600000084,54.1789521800001,54.38905369999998,54.556332180000005,54.56113410000012,54.60214257999994,54.6066029000001,55.05575337999992,d,1,0.43851889999996274,438.51889999996274,54.6066029000001,55.05575337999992,55.06226979999997,56.50412518000005,,,EmoCon002,2020_Dec_09_1707,EmoCon_Pilot_120Hz,2020.2.4,120.10006737610905,
,,,,0,0,0,0,4,0,4,0,,,,,,,,,,,,,,,,,,,,,,,,,,,,,,,,,,,,,,,,,,,,,,4,11.0,f,030_o_f_s_a.jpg,sad,a,3,1,56.50828739999997,56.804005380000014,57.03233690000002,57.05892977999995,57.06253319999996,57.10016597999991,57.10468200000014,58.37841647999992,a,1,1.2603423000000475,1260.3423000000475,57.10468200000014,58.37841647999992,58.38607380000008,60.36240938000012,,,EmoCon002,2020_Dec_09_1707,EmoCon_Pilot_120Hz,2020.2.4,120.10006737610905,
,,,,0,0,0,0,5,0,5,0,,,,,,,,,,,,,,,,,,,,,,,,,,,,,,,,,,,,,,,,,,,,,,5,11.0,f,030_o_f_s_a.jpg,sad,a,3,1,60.36660329999995,60.66245797999998,60.86154940000006,60.88732638000008,60.88766880000003,60.92231437999997,60.92353419999995,62.44453737999991,s,0,1.505716300000131,1505.716300000131,60.92353419999995,62.44453737999991,62.45703070000013,64.23760407999995,,,EmoCon002,2020_Dec_09_1707,EmoCon_Pilot_120Hz,2020.2.4,120.10006737610905,
,,,,0,0,0,0,6,0,6,0,,,,,,,,,,,,,,,,,,,,,,,,,,,,,,,,,,,,,,,,,,,,,,6,5.0,m,027_o_m_n_a.jpg,neutral,s,3,1,64.24315019999995,64.53762658000002,64.7573655000001,64.78412788000011,64.78489170000012,64.82200267999994,64.82353690000014,65.44476888000005,s,1,0.6056467000000794,605.6467000000794,64.82353690000014,65.44476888000005,65.45418369999993,67.39590317999998,,,EmoCon002,2020_Dec_09_1707,EmoCon_Pilot_120Hz,2020.2.4,120.10006737610905,
,,,,0,0,0,0,7,0,7,0,,,,,,,,,,,,,,,,,,,,,,,,,,,,,,,,,,,,,,,,,,,,,,7,8.0,f,019_m_f_n_a.jpg,neutral,s,3,1,67.39894430000004,67.69586788000012,67.95206129999997,67.97933697999994,67.98424210000007,68.02448707999994,68.02946450000013,68.9562453799999,s,1,0.9116036000000349,911.6036000000349,68.02946450000013,68.9562453799999,68.96025510000004,70.28761598000003,,,EmoCon002,2020_Dec_09_1707,EmoCon_Pilot_120Hz,2020.2.4,120.10006737610905,
,,,,0,0,0,0,8,0,8,0,,,,,,,,,,,,,,,,,,,,,,,,,,,,,,,,,,,,,,,,,,,,,,8,5.0,m,027_o_m_h_a.jpg,happy,d,3,1,70.29079960000013,70.5874455800001,70.79808789999993,70.82512597999991,70.82600279999997,70.86380688000006,70.86381929999993,71.53026737999991,d,1,0.6534552000000531,653.4552000000531,70.86381929999993,71.53026737999991,71.5392796000001,73.3626959800001,,,EmoCon002,2020_Dec_09_1707,EmoCon_Pilot_120Hz,2020.2.4,120.10006737610905,
,,,,0,0,0,0,9,0,9,0,,,,,,,,,,,,,,,,,,,,,,,,,,,,,,,,,,,,,,,,,,,,,,9,8.0,f,019_m_f_n_a.jpg,neutral,s,17,1,73.36554320000005,73.66268327999998,73.90339470000004,74.06034657999996,74.06520169999999,74.10615468000012,74.11123889999999,74.58032597999997,s,1,0.46196340000005875,461.96340000005875,74.11123889999999,74.58032597999997,74.59205939999993,76.16286388,,,EmoCon002,2020_Dec_09_1707,EmoCon_Pilot_120Hz,2020.2.4,120.10006737610905,
,,,,0,0,0,0,10,0,10,0,,,,,,,,,,,,,,,,,,,,,,,,,,,,,,,,,,,,,,,,,,,,,,10,11.0,f,030_o_f_h_a.jpg,happy,d,17,1,76.16815420000012,76.46273238,76.6648173000001,76.82471817999996,76.82803009999998,76.86530388000003,76.86939789999997,77.3355816800001,d,1,0.45583289999990484,455.83289999990484,76.86939789999997,77.3355816800001,77.34698419999995,79.21283398000011,,,EmoCon002,2020_Dec_09_1707,EmoCon_Pilot_120Hz,2020.2.4,120.10006737610905,
,,,,0,0,0,0,11,0,11,0,,,,,,,,,,,,,,,,,,,,,,,,,,,,,,,,,,,,,,,,,,,,,,11,3.0,m,013_y_m_s_a.jpg,sad,a,3,1,79.21613490000004,79.51282188000002,79.61197590000006,79.63452998,79.63513760000001,79.67218857999998,79.67235290000008,80.30814368000003,a,1,0.6289824999998928,628.9824999998928,79.67235290000008,80.30814368000003,80.31895520000012,81.78791778000002,,,EmoCon002,2020_Dec_09_1707,EmoCon_Pilot_120Hz,2020.2.4,120.10006737610905,
,,,,0,0,0,0,12,0,12,0,,,,,,,,,,,,,,,,,,,,,,,,,,,,,,,,,,,,,,,,,,,,,,12,12.0,f,040_y_f_n_a.jpg,neutral,s,3,1,81.79204750000008,82.08783968000009,82.42449910000005,82.45064887999999,82.45069330000001,82.48542668000002,82.48497810000003,83.60485867999998,s,1,1.111972700000024,1111.972700000024,82.48497810000003,83.60485867999998,83.61226160000001,85.38789328000004,,,EmoCon002,2020_Dec_09_1707,EmoCon_Pilot_120Hz,2020.2.4,120.10006737610905,
,,,,0,0,0,0,13,0,13,0,,,,,,,,,,,,,,,,,,,,,,,,,,,,,,,,,,,,,,,,,,,,,,13,12.0,f,040_y_f_h_a.jpg,happy,d,3,1,85.39213889999996,85.68796238000002,85.7148115,85.73761858000009,85.73820939999996,85.77438268000012,85.77478859999997,86.33426987999994,d,1,0.5423647000000074,542.3647000000074,85.77478859999997,86.33426987999994,86.3447592,87.65469668000011,,,EmoCon002,2020_Dec_09_1707,EmoCon_Pilot_120Hz,2020.2.4,120.10006737610905,
,,,,0,0,0,0,14,0,14,0,,,,,,,,,,,,,,,,,,,,,,,,,,,,,,,,,,,,,,,,,,,,,,14,7.0,f,012_o_f_h_a.jpg,happy,d,3,1,87.6576751,87.95469827999997,87.98318100000006,88.00588467999998,88.00741620000008,88.04363067999995,88.04335379999998,88.58971427999992,d,1,0.5376596999999492,537.6596999999492,88.04335379999998,88.58971427999992,88.59610029999999,90.14636298000002,,,EmoCon002,2020_Dec_09_1707,EmoCon_Pilot_120Hz,2020.2.4,120.10006737610905,
,,,,0,0,0,0,15,0,15,0,,,,,,,,,,,,,,,,,,,,,,,,,,,,,,,,,,,,,,,,,,,,,,15,9.0,f,021_o_f_n_a.jpg,neutral,s,17,1,90.15206899999998,90.44646867999992,90.67879010000001,90.84026917999992,90.84392230000003,90.88373348000002,90.8881801,91.3582303800001,s,1,0.46092380000004596,460.92380000004596,90.8881801,91.3582303800001,91.37092869999992,93.32139847999994,,,EmoCon002,2020_Dec_09_1707,EmoCon_Pilot_120Hz,2020.2.4,120.10006737610905,
,,,,0,0,0,0,16,0,16,0,,,,,,,,,,,,,,,,,,,,,,,,,,,,,,,,,,,,,,,,,,,,,,16,10.0,f,028_y_f_s_a.jpg,sad,a,17,1,93.32543329999999,93.62146088000006,93.64315979999992,93.78144388000007,93.78508579999993,93.8226314799999,93.82547939999995,94.86462498000012,a,1,1.0274880999998004,1027.4880999998004,93.82547939999995,94.86462498000012,94.87092140000004,96.33822428000005,,,EmoCon002,2020_Dec_09_1707,EmoCon_Pilot_120Hz,2020.2.4,120.10006737610905,
,,,,0,0,0,0,17,0,17,0,,,,,,,,,,,,,,,,,,,,,,,,,,,,,,,,,,,,,,,,,,,,,,17,10.0,f,028_y_f_h_a.jpg,happy,d,3,1,96.34229099999993,96.63822277999995,96.66459120000013,96.68725598000012,96.68816319999996,96.7227651800001,96.72268660000009,97.50773187999991,d,1,0.7705222000001868,770.5222000001868,96.72268660000009,97.50773187999991,97.51516970000011,99.12984198000001,,,EmoCon002,2020_Dec_09_1707,EmoCon_Pilot_120Hz,2020.2.4,120.10006737610905,
,,,,0,0,0,0,18,0,18,0,,,,,,,,,,,,,,,,,,,,,,,,,,,,,,,,,,,,,,,,,,,,,,18,9.0,f,021_o_f_h_a.jpg,happy,d,3,1,99.13287489999993,99.42985868000002,99.69570850000014,99.7215782800001,99.72246719999998,99.75688977999991,99.7569168,100.46849857999993,d,1,0.704128800000035,704.128800000035,99.7569168,100.46849857999993,100.47050170000011,101.83815118000004,,,EmoCon002,2020_Dec_09_1707,EmoCon_Pilot_120Hz,2020.2.4,120.10006737610905,
,,,,0,0,0,0,19,0,19,0,,,,,,,,,,,,,,,,,,,,,,,,,,,,,,,,,,,,,,,,,,,,,,19,6.0,m,033_o_m_h_a.jpg,happy,d,3,1,101.84124580000002,102.13824638000003,102.16465570000014,102.18738978000007,102.18801970000004,102.22374158,102.22513849999996,102.74024327999993,d,1,0.5079464000000371,507.9464000000371,102.22513849999996,102.74024327999993,102.74778579999997,103.98835428000004,,,EmoCon002,2020_Dec_09_1707,EmoCon_Pilot_120Hz,2020.2.4,120.10006737610905,
,,,,0,0,0,0,20,0,20,0,,,,,,,,,,,,,,,,,,,,,,,,,,,,,,,,,,,,,,,,,,,,,,20,1.0,m,004_o_m_h_a.jpg,happy,d,3,1,103.99349490000009,104.28828808,104.50610430000006,104.53209037999997,104.53242539999997,104.56682088,104.56718769999998,105.06151967999992,d,1,0.48631589999990865,486.31589999990865,104.56718769999998,105.06151967999992,105.07326089999992,106.93832797999991,,,EmoCon002,2020_Dec_09_1707,EmoCon_Pilot_120Hz,2020.2.4,120.10006737610905,
,,,,0,0,0,0,21,0,21,0,,,,,,,,,,,,,,,,,,,,,,,,,,,,,,,,,,,,,,,,,,,,,,21,2.0,m,008_y_m_s_a.jpg,sad,a,3,1,106.9436604,107.23839468000003,107.46753890000014,107.49383078000002,107.49414580000007,107.53126818000007,107.53130650000003,108.11733247999993,a,1,0.5776611999999659,577.6611999999659,107.53130650000003,108.11733247999993,108.12474799999995,109.94681648000002,,,EmoCon002,2020_Dec_09_1707,EmoCon_Pilot_120Hz,2020.2.4,120.10006737610905,
,,,,0,0,0,0,22,0,22,0,,,,,,,,,,,,,,,,,,,,,,,,,,,,,,,,,,,,,,,,,,,,,,22,4.0,m,016_y_m_s_a.jpg,sad,a,3,1,109.95101739999996,110.24681998000003,110.27779850000002,110.30034227999997,110.30125850000013,110.33960818000011,110.33971150000002,110.96891707999995,a,1,0.6172669999998561,617.2669999998561,110.33971150000002,110.96891707999995,110.97642790000009,112.82180338000009,,,EmoCon002,2020_Dec_09_1707,EmoCon_Pilot_120Hz,2020.2.4,120.10006737610905,
,,,,0,0,0,0,23,0,23,0,,,,,,,,,,,,,,,,,,,,,,,,,,,,,,,,,,,,,,,,,,,,,,23,8.0,f,019_m_f_h_a.jpg,happy,d,3,1,112.82784360000005,113.12190178000012,113.14963719999992,113.17229887999994,113.17263079999998,113.20697328000003,113.20658780000008,113.8664338799999,d,1,0.6464114000000336,646.4114000000336,113.20658780000008,113.8664338799999,113.87436920000005,115.73028857999995,,,EmoCon002,2020_Dec_09_1707,EmoCon_Pilot_120Hz,2020.2.4,120.10006737610905,
,,,,0,0,0,0,24,0,24,0,,,,,,,,,,,,,,,,,,,,,,,,,,,,,,,,,,,,,,,,,,,,,,24,8.0,f,019_m_f_h_a.jpg,happy,d,17,1,115.73656699999992,116.03029738000006,116.05445290000011,116.19045378000007,116.19416550000005,116.2356976799999,116.239691,116.58781478000012,d,1,0.33342439999978524,333.42439999978524,116.239691,116.58781478000012,116.59937930000001,117.99688108000007,,,EmoCon002,2020_Dec_09_1707,EmoCon_Pilot_120Hz,2020.2.4,120.10006737610905,
,,,,0,0,0,0,25,0,25,0,,,,,,,,,,,,,,,,,,,,,,,,,,,,,,,,,,,,,,,,,,,,,,25,4.0,m,016_y_m_n_a.jpg,neutral,s,17,1,118.00224240000011,118.29697678,118.55984239999998,118.71783997999998,118.72268080000003,118.76362687999992,118.76866310000014,119.47414137999996,s,1,0.6922349999999824,692.2349999999824,118.76866310000014,119.47414137999996,119.48241159999998,121.12194087999998,,,EmoCon002,2020_Dec_09_1707,EmoCon_Pilot_120Hz,2020.2.4,120.10006737610905,
,,,,0,0,0,0,26,0,26,0,,,,,,,,,,,,,,,,,,,,,,,,,,,,,,,,,,,,,,,,,,,,,,26,4.0,m,016_y_m_h_a.jpg,happy,d,17,1,121.12592310000014,121.42193917999995,121.44736069999999,121.58175647999994,121.58245590000001,121.62379897999992,121.62415269999997,122.14681248000008,d,1,0.5087929999999687,508.79299999996874,121.62415269999997,122.14681248000008,122.14877750000005,123.9886696799999,,,EmoCon002,2020_Dec_09_1707,EmoCon_Pilot_120Hz,2020.2.4,120.10006737610905,
,,,,0,0,0,0,27,0,27,0,,,,,,,,,,,,,,,,,,,,,,,,,,,,,,,,,,,,,,,,,,,,,,27,8.0,f,019_m_f_h_a.jpg,happy,d,3,1,123.9914698,124.28873397999993,124.31123709999997,124.33404678000008,124.33503969999992,124.3732993799999,124.3731835000001,124.92434808000004,d,1,0.5359246000000439,535.9246000000439,124.3731835000001,124.92434808000004,124.9308661,126.63879298000003,,,EmoCon002,2020_Dec_09_1707,EmoCon_Pilot_120Hz,2020.2.4,120.10006737610905,
,,,,0,0,0,0,28,0,28,0,,,,,,,,,,,,,,,,,,,,,,,,,,,,,,,,,,,,,,,,,,,,,,28,8.0,f,019_m_f_s_a.jpg,sad,a,17,1,126.64202169999999,126.93871708000003,127.18771229999993,127.35785608000012,127.36307690000012,127.40330528000001,127.40830770000002,127.86792697999996,a,1,0.4448678999999629,444.8678999999629,127.40830770000002,127.86792697999996,127.87897590000011,129.1054254800001,,,EmoCon002,2020_Dec_09_1707,EmoCon_Pilot_120Hz,2020.2.4,120.10006737610905,
,,,,0,0,0,0,29,0,29,0,,,,,,,,,,,,,,,,,,,,,,,,,,,,,,,,,,,,,,,,,,,,,,29,10.0,f,028_y_f_n_a.jpg,neutral,s,17,1,129.1093562000001,129.40549288000008,129.61660849999998,129.78276077999996,129.78707899999995,129.82780438000006,129.83303,130.3730797800001,s,1,0.5240284999999858,524.0284999999858,129.83303,130.3730797800001,130.3844153,132.06378928,,,EmoCon002,2020_Dec_09_1707,EmoCon_Pilot_120Hz,2020.2.4,120.10006737610905,
,,,,0,0,0,0,30,0,30,0,,,,,,,,,,,,,,,,,,,,,,,,,,,,,,,,,,,,,,,,,,,,,,30,12.0,f,040_y_f_n_a.jpg,neutral,s,3,1,132.06675100000007,132.36379557999996,132.58012559999997,132.60571888,132.6063133,132.64040248000012,132.64063570000008,133.34159608000002,s,1,0.6925760000001446,692.5760000001446,132.64063570000008,133.34159608000002,133.35445460000005,135.31396498,,,EmoCon002,2020_Dec_09_1707,EmoCon_Pilot_120Hz,2020.2.4,120.10006737610905,
,,,,0,0,0,0,31,0,31,0,,,,,,,,,,,,,,,,,,,,,,,,,,,,,,,,,,,,,,,,,,,,,,31,5.0,m,027_o_m_n_a.jpg,neutral,s,17,1,135.31835060000003,135.61392178000003,135.82420879999995,135.99279238000005,135.9961148,136.03718778000004,136.04206780000004,136.51108928000005,s,1,0.45884909999995216,458.84909999995216,136.04206780000004,136.51108928000005,136.51434440000003,137.54728558000008,,,EmoCon002,2020_Dec_09_1707,EmoCon_Pilot_120Hz,2020.2.4,120.10006737610905,
,,,,0,0,0,0,32,0,32,0,,,,,,,,,,,,,,,,,,,,,,,,,,,,,,,,,,,,,,,,,,,,,,32,8.0,f,019_m_f_n_a.jpg,neutral,s,17,1,137.55247959999997,137.84731578000012,138.0950524,138.25513027999997,138.25991799999997,138.30120708,138.3063178,138.73335638,s,1,0.4187021000000186,418.7021000000186,138.3063178,138.73335638,138.74166910000008,140.58902637999992,,,EmoCon002,2020_Dec_09_1707,EmoCon_Pilot_120Hz,2020.2.4,120.10006737610905,
,,,,0,0,0,0,33,0,33,0,,,,,,,,,,,,,,,,,,,,,,,,,,,,,,,,,,,,,,,,,,,,,,33,4.0,m,016_y_m_n_a.jpg,neutral,s,17,1,140.59418110000001,140.88911327999992,141.13456380000002,141.29794497999998,141.30269199999998,141.34126117999992,141.3465638,141.72468217999992,s,1,0.36263209999992796,362.63209999992796,141.3465638,141.72468217999992,141.73523920000002,143.0306912799999,,,EmoCon002,2020_Dec_09_1707,EmoCon_Pilot_120Hz,2020.2.4,120.10006737610905,
,,,,0,0,0,0,34,0,34,0,,,,,,,,,,,,,,,,,,,,,,,,,,,,,,,,,,,,,,,,,,,,,,34,11.0,f,030_o_f_n_a.jpg,neutral,s,3,1,143.03482039999994,143.3306210800001,143.52632280000012,143.55299398000008,143.5529716000001,143.59022537999996,143.59004299999992,144.34979988000006,s,1,0.7430798000000323,743.0798000000323,143.59004299999992,144.34979988000006,144.35630489999994,145.69735177999993,,,EmoCon002,2020_Dec_09_1707,EmoCon_Pilot_120Hz,2020.2.4,120.10006737610905,
,,,,0,0,0,0,35,0,35,0,,,,,,,,,,,,,,,,,,,,,,,,,,,,,,,,,,,,,,,,,,,,,,35,9.0,f,021_o_f_h_a.jpg,happy,d,3,1,145.70021889999998,145.99742328,146.21135299999992,146.23760908000006,146.23791610000012,146.27365217999997,146.27511589999995,146.92241497999996,d,1,0.6338407000000643,633.8407000000643,146.27511589999995,146.92241497999996,146.92901770000003,148.1558594800001,,,EmoCon002,2020_Dec_09_1707,EmoCon_Pilot_120Hz,2020.2.4,120.10006737610905,
,,,,0,0,0,0,36,0,36,0,,,,,,,,,,,,,,,,,,,,,,,,,,,,,,,,,,,,,,,,,,,,,,36,11.0,f,030_o_f_s_a.jpg,sad,a,3,1,148.1597746,148.45582568000006,148.66076629999998,148.68675968,148.68695939999998,148.72377378000007,148.72378019999996,149.81395388000007,a,1,1.0812794999999369,1081.279499999937,148.72378019999996,149.81395388000007,149.82056779999994,151.15586327999992,,,EmoCon002,2020_Dec_09_1707,EmoCon_Pilot_120Hz,2020.2.4,120.10006737610905,
,,,,0,0,0,0,37,0,37,0,,,,,,,,,,,,,,,,,,,,,,,,,,,,,,,,,,,,,,,,,,,,,,37,12.0,f,040_y_f_n_a.jpg,neutral,s,17,1,151.1589097000001,151.45584438000012,151.66563999999994,151.82361018000003,151.8283695,151.86945508000005,151.87437339999997,152.48189047999992,s,1,0.5947654000001421,594.7654000001421,151.87437339999997,152.48189047999992,152.4872256000001,154.29769918000008,,,EmoCon002,2020_Dec_09_1707,EmoCon_Pilot_120Hz,2020.2.4,120.10006737610905,
,,,,0,0,0,0,38,0,38,0,,,,,,,,,,,,,,,,,,,,,,,,,,,,,,,,,,,,,,,,,,,,,,38,9.0,f,021_o_f_s_a.jpg,sad,a,17,1,154.30343670000002,154.59769047999995,154.6282655,154.76590617999997,154.76895190000005,154.80718567999995,154.81128919999992,155.67580128000006,a,1,0.8495442999999341,849.5442999999341,154.81128919999992,155.67580128000006,155.68007869999997,157.23103338000007,,,EmoCon002,2020_Dec_09_1707,EmoCon_Pilot_120Hz,2020.2.4,120.10006737610905,
,,,,0,0,0,0,39,0,39,0,,,,,,,,,,,,,,,,,,,,,,,,,,,,,,,,,,,,,,,,,,,,,,39,4.0,m,016_y_m_n_a.jpg,neutral,s,3,1,157.2351066000001,157.53109708000008,157.7772708,157.8029309799999,157.80327030000012,157.84054377999993,157.84101110000006,158.3823437799999,s,1,0.5319455999999718,531.9455999999718,157.84101110000006,158.3823437799999,158.38981489999992,159.9894231800001,,,EmoCon002,2020_Dec_09_1707,EmoCon_Pilot_120Hz,2020.2.4,120.10006737610905,
,,,,0,0,0,0,40,0,40,0,,,,,,,,,,,,,,,,,,,,,,,,,,,,,,,,,,,,,,,,,,,,,,40,9.0,f,021_o_f_s_a.jpg,sad,a,17,1,159.99340890000008,160.28940148000012,160.31255320000014,160.44948678000011,160.45271449999996,160.49097277999996,160.4941556000001,161.27051967999998,a,1,0.7668888000000607,766.8888000000607,160.4941556000001,161.27051967999998,161.28118059999997,163.23110208,,,EmoCon002,2020_Dec_09_1707,EmoCon_Pilot_120Hz,2020.2.4,120.10006737610905,
,,,,0,0,0,0,41,0,41,0,,,,,,,,,,,,,,,,,,,,,,,,,,,,,,,,,,,,,,,,,,,,,,41,11.0,f,030_o_f_h_a.jpg,happy,d,3,1,163.23638090000009,163.53111527999997,163.74101489999998,163.7680296799999,163.77077899999995,163.80784848000005,163.81090339999992,164.41944418,d,1,0.5942241000000195,594.2241000000195,163.81090339999992,164.41944418,164.42863949999992,166.28939147999992,,,EmoCon002,2020_Dec_09_1707,EmoCon_Pilot_120Hz,2020.2.4,120.10006737610905,
,,,,0,0,0,0,42,0,42,0,,,,,,,,,,,,,,,,,,,,,,,,,,,,,,,,,,,,,,,,,,,,,,42,4.0,m,016_y_m_h_a.jpg,happy,d,17,1,166.2898662,166.58961758000007,166.61515609999992,166.74952527999992,166.75405569999998,166.79457997999995,166.7997941000001,167.20841317999995,d,1,0.39720779999993283,397.20779999993283,166.7997941000001,167.20841317999995,167.21997050000004,168.63132478000009,,,EmoCon002,2020_Dec_09_1707,EmoCon_Pilot_120Hz,2020.2.4,120.10006737610905,
,,,,0,0,0,0,43,0,43,0,,,,,,,,,,,,,,,,,,,,,,,,,,,,,,,,,,,,,,,,,,,,,,43,1.0,m,004_o_m_s_a.jpg,sad,a,17,1,168.63697630000001,168.93134768000002,168.95996000000014,169.09128587999996,169.09599090000006,169.13570258000001,169.14017439999998,170.1566158800001,a,1,1.0086679000000913,1008.6679000000913,169.14017439999998,170.1566158800001,170.16147210000008,171.68136378000005,,,EmoCon002,2020_Dec_09_1707,EmoCon_Pilot_120Hz,2020.2.4,120.10006737610905,
,,,,0,0,0,0,44,0,44,0,,,,,,,,,,,,,,,,,,,,,,,,,,,,,,,,,,,,,,,,,,,,,,44,4.0,m,016_y_m_h_a.jpg,happy,d,17,1,171.6855746000001,171.98134318000004,172.00617890000012,172.14126428000006,172.14462030000004,172.18260497999992,172.18569780000007,172.61169777999996,d,1,0.4113724999999704,411.3724999999704,172.18569780000007,172.61169777999996,172.62210800000003,174.34811327999998,,,EmoCon002,2020_Dec_09_1707,EmoCon_Pilot_120Hz,2020.2.4,120.10006737610905,
,,,,0,0,0,0,45,0,45,0,,,,,,,,,,,,,,,,,,,,,,,,,,,,,,,,,,,,,,,,,,,,,,45,7.0,f,012_o_f_s_a.jpg,sad,a,3,1,174.35365780000006,174.64801858000007,174.68219520000002,174.70658838000006,174.7098949000001,174.74745488000005,174.75027079999995,175.42470907999993,a,1,0.662629700000025,662.629700000025,174.75027079999995,175.42470907999993,175.4329795000001,177.17305237999992,,,EmoCon002,2020_Dec_09_1707,EmoCon_Pilot_120Hz,2020.2.4,120.10006737610905,
,,,,0,0,0,0,46,0,46,0,,,,,,,,,,,,,,,,,,,,,,,,,,,,,,,,,,,,,,,,,,,,,,46,8.0,f,019_m_f_n_a.jpg,neutral,s,3,1,177.17630880000002,177.47294478,177.73146450000013,177.7572978800001,177.75787059999993,177.79151868000005,177.7921999,178.91182668000008,s,1,1.1087735000000976,1108.7735000000976,177.7921999,178.91182668000008,178.91935200000012,180.61486878000002,,,EmoCon002,2020_Dec_09_1707,EmoCon_Pilot_120Hz,2020.2.4,120.10006737610905,
,,,,0,0,0,0,47,0,47,0,,,,,,,,,,,,,,,,,,,,,,,,,,,,,,,,,,,,,,,,,,,,,,47,2.0,m,008_y_m_h_a.jpg,happy,d,3,1,180.61908749999998,180.91486738,180.94579610000005,180.96768068000003,180.96855359999995,181.00771168000003,181.00869680000005,181.64770348,d,1,0.628272700000025,628.272700000025,181.00869680000005,181.64770348,181.65499290000002,183.48162077999993,,,EmoCon002,2020_Dec_09_1707,EmoCon_Pilot_120Hz,2020.2.4,120.10006737610905,
,,,,0,0,0,0,48,0,48,0,,,,,,,,,,,,,,,,,,,,,,,,,,,,,,,,,,,,,,,,,,,,,,48,12.0,f,040_y_f_n_a.jpg,neutral,s,3,1,183.4871697000001,183.78154018000006,184.01372730000003,184.03911108000008,184.0425577000001,184.0834506799999,184.08853980000004,184.93461668000006,s,1,0.8286656000000221,828.6656000000221,184.08853980000004,184.93461668000006,184.9458889,186.53997208000007,,,EmoCon002,2020_Dec_09_1707,EmoCon_Pilot_120Hz,2020.2.4,120.10006737610905,
,,,,0,0,0,0,49,0,49,0,,,,,,,,,,,,,,,,,,,,,,,,,,,,,,,,,,,,,,,,,,,,,,49,11.0,f,030_o_f_n_a.jpg,neutral,s,3,1,186.54290570000012,186.83992818,187.04622919999997,187.07205457999996,187.07299639999997,187.10858338,187.10946779999995,187.77940177999992,s,1,0.6559861000000637,655.9861000000637,187.10946779999995,187.77940177999992,187.7907358,189.12333078000003,,,EmoCon002,2020_Dec_09_1707,EmoCon_Pilot_120Hz,2020.2.4,120.10006737610905,
,,,,0,0,0,0,50,0,50,0,,,,,,,,,,,,,,,,,,,,,,,,,,,,,,,,,,,,,,,,,,,,,,50,8.0,f,019_m_f_h_a.jpg,happy,d,17,1,189.1266075000001,189.42336238000004,189.44359970000005,189.57497678000001,189.57866609999996,189.61945368000008,189.62392169999998,190.02365718000007,d,1,0.38918710000007195,389.18710000007195,189.62392169999998,190.02365718000007,190.03138130000002,191.3900868800001,,,EmoCon002,2020_Dec_09_1707,EmoCon_Pilot_120Hz,2020.2.4,120.10006737610905,
,,,,0,0,0,0,51,0,51,0,,,,,,,,,,,,,,,,,,,,,,,,,,,,,,,,,,,,,,,,,,,,,,51,8.0,f,019_m_f_n_a.jpg,neutral,s,3,1,191.39442540000005,191.69005818000002,191.93029769999998,191.95699437999994,191.96070129999998,191.99919668000004,192.00438200000008,192.94232168000005,s,1,0.9213801999999305,921.3801999999305,192.00438200000008,192.94232168000005,192.94496619999995,194.72352318,,,EmoCon002,2020_Dec_09_1707,EmoCon_Pilot_120Hz,2020.2.4,120.10006737610905,
,,,,0,0,0,0,52,0,52,0,,,,,,,,,,,,,,,,,,,,,,,,,,,,,,,,,,,,,,,,,,,,,,52,12.0,f,040_y_f_n_a.jpg,neutral,s,3,1,194.72905519999995,195.02348918000004,195.24560050000014,195.27058478,195.2706161000001,195.3079872800001,195.30931269999996,195.89852928000002,s,1,0.5756569999998646,575.6569999998646,195.30931269999996,195.89852928000002,195.9051197000001,197.40684127999995,,,EmoCon002,2020_Dec_09_1707,EmoCon_Pilot_120Hz,2020.2.4,120.10006737610905,
,,,,0,0,0,0,53,0,53,0,,,,,,,,,,,,,,,,,,,,,,,,,,,,,,,,,,,,,,,,,,,,,,53,9.0,f,021_o_f_h_a.jpg,happy,d,3,1,197.4101313000001,197.70673808000012,197.92470679999997,197.9515882800001,197.9517389,197.98608078000004,197.98662349999995,198.86654638000002,d,1,0.8662724000000708,866.2724000000708,197.98662349999995,198.86654638000002,198.87262340000007,200.28191018000004,,,EmoCon002,2020_Dec_09_1707,EmoCon_Pilot_120Hz,2020.2.4,120.10006737610905,
,,,,0,0,0,0,54,0,54,0,,,,,,,,,,,,,,,,,,,,,,,,,,,,,,,,,,,,,,,,,,,,,,54,2.0,m,008_y_m_n_a.jpg,neutral,s,17,1,200.2872843,200.58187128000006,200.82802160000006,200.98534098000002,200.98921960000007,201.0303025800001,201.03529240000012,201.7878662800001,s,1,0.737659800000074,737.659800000074,201.03529240000012,201.7878662800001,201.79449339999996,203.14031958000007,,,EmoCon002,2020_Dec_09_1707,EmoCon_Pilot_120Hz,2020.2.4,120.10006737610905,
,,,,0,0,0,0,55,0,55,0,,,,,,,,,,,,,,,,,,,,,,,,,,,,,,,,,,,,,,,,,,,,,,55,10.0,f,028_y_f_n_a.jpg,neutral,s,3,1,203.14577929999996,203.4403064800001,203.63479499999994,203.66046737999997,203.66073030000007,203.69464248000006,203.69513849999998,204.30882917999995,s,1,0.605699500000128,605.699500000128,203.69513849999998,204.30882917999995,204.31651669999997,205.54870617999993,,,EmoCon002,2020_Dec_09_1707,EmoCon_Pilot_120Hz,2020.2.4,120.10006737610905,
,,,,0,0,0,0,56,0,56,0,,,,,,,,,,,,,,,,,,,,,,,,,,,,,,,,,,,,,,,,,,,,,,56,12.0,f,040_y_f_h_a.jpg,happy,d,17,1,205.55436650000001,205.84873947999992,205.86658379999994,206.00057807999994,206.00433950000001,206.04529778000003,206.05044150000003,206.43704247999992,d,1,0.37863609999999426,378.63609999999426,206.05044150000003,206.43704247999992,206.4474212,207.74866887999994,,,EmoCon002,2020_Dec_09_1707,EmoCon_Pilot_120Hz,2020.2.4,120.10006737610905,
,,,,0,0,0,0,57,0,57,0,,,,,,,,,,,,,,,,,,,,,,,,,,,,,,,,,,,,,,,,,,,,,,57,2.0,m,008_y_m_n_a.jpg,neutral,s,3,1,207.75422959999992,208.04877237999992,208.2915766000001,208.31727797999994,208.31819410000003,208.35378738000006,208.35373400000003,209.14314097999997,s,1,0.7791408000000501,779.1408000000501,208.35373400000003,209.14314097999997,209.1505400000001,210.61537317999998,,,EmoCon002,2020_Dec_09_1707,EmoCon_Pilot_120Hz,2020.2.4,120.10006737610905,
,,,,0,0,0,0,58,0,58,0,,,,,,,,,,,,,,,,,,,,,,,,,,,,,,,,,,,,,,,,,,,,,,58,9.0,f,021_o_f_n_a.jpg,neutral,s,3,1,210.61963500000002,210.91539037999993,211.1285001000001,211.15414467999992,211.15418019999993,211.19156597999992,211.1917324000001,211.8951813799999,s,1,0.6931870999999319,693.1870999999319,211.1917324000001,211.8951813799999,211.90266680000013,213.18216888000003,,,EmoCon002,2020_Dec_09_1707,EmoCon_Pilot_120Hz,2020.2.4,120.10006737610905,
,,,,0,0,0,0,59,0,59,0,,,,,,,,,,,,,,,,,,,,,,,,,,,,,,,,,,,,,,,,,,,,,,59,4.0,m,016_y_m_n_a.jpg,neutral,s,17,1,213.18613490000007,213.48216868000006,213.72408719999999,213.8808908799999,213.8858897,213.92614348000004,213.93132190000006,214.30386197999994,s,1,0.3615983999998207,361.5983999998207,213.93132190000006,214.30386197999994,214.31237090000013,215.74046818000008,,,EmoCon002,2020_Dec_09_1707,EmoCon_Pilot_120Hz,2020.2.4,120.10006737610905,
,,,,0,0,0,0,60,0,60,0,,,,,,,,,,,,,,,,,,,,,,,,,,,,,,,,,,,,,,,,,,,,,,60,6.0,m,033_o_m_s_a.jpg,sad,a,3,1,215.74451820000013,216.04056278000004,216.07046749999995,216.09361338000005,216.0952933000001,216.13340607999996,216.13469209999994,217.04299048000004,a,1,0.8943484999999782,894.3484999999782,216.13469209999994,217.04299048000004,217.04950080000003,218.04881287999999,,,EmoCon002,2020_Dec_09_1707,EmoCon_Pilot_120Hz,2020.2.4,120.10006737610905,
,,,,0,0,0,0,61,0,61,0,,,,,,,,,,,,,,,,,,,,,,,,,,,,,,,,,,,,,,,,,,,,,,61,7.0,f,012_o_f_n_a.jpg,neutral,s,3,1,218.05183720000014,218.34886647999994,218.57703089999995,218.60446958000009,218.60515720000012,218.6417756800001,218.64304570000013,219.47613307999993,a,0,0.8259573000000273,825.9573000000273,218.64304570000013,219.47613307999993,219.48042450000003,220.7489442799999,,,EmoCon002,2020_Dec_09_1707,EmoCon_Pilot_120Hz,2020.2.4,120.10006737610905,
,,,,0,0,0,0,62,0,62,0,,,,,,,,,,,,,,,,,,,,,,,,,,,,,,,,,,,,,,,,,,,,,,62,2.0,m,008_y_m_h_a.jpg,happy,d,17,1,220.7529575000001,221.04895828000005,221.07095389999995,221.2089229800001,221.21246900000006,221.25076398000007,221.2542413000001,221.81931097999993,d,1,0.5508285000000797,550.8285000000797,221.2542413000001,221.81931097999993,221.82914699999992,223.13228107999996,,,EmoCon002,2020_Dec_09_1707,EmoCon_Pilot_120Hz,2020.2.4,120.10006737610905,
,,,,0,0,0,0,63,0,63,0,,,,,,,,,,,,,,,,,,,,,,,,,,,,,,,,,,,,,,,,,,,,,,63,10.0,f,028_y_f_h_a.jpg,happy,d,3,1,223.13541409999993,223.43237457999996,223.45361759999992,223.47618587999997,223.47637310000005,223.5113395800001,223.5112670000001,224.21186848,d,1,0.6936200000000099,693.6200000000099,223.5112670000001,224.21186848,224.21947169999999,225.44069538000005,,,EmoCon002,2020_Dec_09_1707,EmoCon_Pilot_120Hz,2020.2.4,120.10006737610905,
,,,,0,0,0,0,64,0,64,0,,,,,,,,,,,,,,,,,,,,,,,,,,,,,,,,,,,,,,,,,,,,,,64,4.0,m,016_y_m_h_a.jpg,happy,d,3,1,225.44640559999993,225.74080228,225.76409179999996,225.78664767999996,225.78760119999993,225.82519408000005,225.82503399999996,226.53286518000002,d,1,0.6999004000001605,699.9004000001605,225.82503399999996,226.53286518000002,226.53877239999997,228.32400858000003,,,EmoCon002,2020_Dec_09_1707,EmoCon_Pilot_120Hz,2020.2.4,120.10006737610905,
,,,,0,0,0,0,65,0,65,0,,,,,,,,,,,,,,,,,,,,,,,,,,,,,,,,,,,,,,,,,,,,,,65,9.0,f,021_o_f_s_a.jpg,sad,a,3,1,228.32677639999997,228.62406697999992,228.63754919999997,228.65929587999992,228.66012419999993,228.70025538000002,228.70174939999993,229.90006418000004,a,1,1.1913024000000405,1191.3024000000405,228.70174939999993,229.90006418000004,229.90856570000005,231.30745488,,,EmoCon002,2020_Dec_09_1707,EmoCon_Pilot_120Hz,2020.2.4,120.10006737610905,
,,,,0,0,0,0,66,0,66,0,,,,,,,,,,,,,,,,,,,,,,,,,,,,,,,,,,,,,,,,,,,,,,66,7.0,f,012_o_f_h_a.jpg,happy,d,3,1,231.31150419999994,231.60748448,231.62747839999997,231.6505807799999,231.6511977,231.6854092799999,231.68694129999994,232.26014497999992,d,1,0.5660456000000522,566.0456000000522,231.68694129999994,232.26014497999992,232.26674460000004,233.3408523800001,,,EmoCon002,2020_Dec_09_1707,EmoCon_Pilot_120Hz,2020.2.4,120.10006737610905,
,,,,0,0,0,0,67,0,67,0,,,,,,,,,,,,,,,,,,,,,,,,,,,,,,,,,,,,,,,,,,,,,,67,9.0,f,021_o_f_h_a.jpg,happy,d,17,1,233.3460136000001,233.64091948000006,233.8596215,234.02088627999998,234.02444910000008,234.0622103800001,234.06626699999993,234.44508698,d,1,0.3704519000000346,370.4519000000346,234.06626699999993,234.44508698,234.44795670000008,235.51593008000006,,,EmoCon002,2020_Dec_09_1707,EmoCon_Pilot_120Hz,2020.2.4,120.10006737610905,
,,,,0,0,0,0,68,0,68,0,,,,,,,,,,,,,,,,,,,,,,,,,,,,,,,,,,,,,,,,,,,,,,68,8.0,f,019_m_f_h_a.jpg,happy,d,3,1,235.51978439999993,235.81583227999997,235.8296061000001,235.85169347999997,235.85229870000012,235.8920654799999,235.8935438000001,236.34243497999998,d,1,0.4396190999998453,439.6190999998453,235.8935438000001,236.34243497999998,236.34992590000002,237.89924818000006,,,EmoCon002,2020_Dec_09_1707,EmoCon_Pilot_120Hz,2020.2.4,120.10006737610905,
,,,,0,0,0,0,69,0,69,0,,,,,,,,,,,,,,,,,,,,,,,,,,,,,,,,,,,,,,,,,,,,,,69,9.0,f,021_o_f_s_a.jpg,sad,a,17,1,237.9022691,238.19926768000002,238.21371019999992,238.3509054799999,238.35450229999992,238.39531267999993,238.399858,239.1205322800001,a,1,0.7090679999998883,709.0679999998883,238.399858,239.1205322800001,239.1289173,240.9575557800001,,,EmoCon002,2020_Dec_09_1707,EmoCon_Pilot_120Hz,2020.2.4,120.10006737610905,
,,,,0,0,0,0,70,0,70,0,,,,,,,,,,,,,,,,,,,,,,,,,,,,,,,,,,,,,,,,,,,,,,70,2.0,m,008_y_m_h_a.jpg,happy,d,17,1,240.96061280000004,241.25766657999995,241.27320809999992,241.40928888000005,241.41131240000004,241.45043838000012,241.45351060000007,241.95674308,d,1,0.48747180000009394,487.47180000009394,241.45351060000007,241.95674308,241.96498670000005,243.89940528000008,,,EmoCon002,2020_Dec_09_1707,EmoCon_Pilot_120Hz,2020.2.4,120.10006737610905,
,,,,0,0,0,0,71,0,71,0,,,,,,,,,,,,,,,,,,,,,,,,,,,,,,,,,,,,,,,,,,,,,,71,1.0,m,004_o_m_h_a.jpg,happy,d,17,1,243.90341450000005,244.19936318000006,244.62569989999997,244.7813301799999,244.78612569999996,244.82610868000003,244.83134900000005,245.23838937999992,d,1,0.3976689000000988,397.6689000000988,244.83134900000005,245.23838937999992,245.25010049999992,246.27452108000008,,,EmoCon002,2020_Dec_09_1707,EmoCon_Pilot_120Hz,2020.2.4,120.10006737610905,
,,,,0,0,0,0,72,0,72,0,,,,,,,,,,,,,,,,,,,,,,,,,,,,,,,,,,,,,,,,,,,,,,72,11.0,f,030_o_f_h_a.jpg,happy,d,3,1,246.2787393000001,246.57440238,246.7671812000001,246.7941734799999,246.7949013,246.83017457999992,246.83013570000003,247.47615287999994,d,1,0.6307636999999886,630.7636999999886,246.83013570000003,247.47615287999994,247.48192340000014,248.89957378000005,,,EmoCon002,2020_Dec_09_1707,EmoCon_Pilot_120Hz,2020.2.4,120.10006737610905,
,,,,0,0,0,0,73,0,73,0,,,,,,,,,,,,,,,,,,,,,,,,,,,,,,,,,,,,,,,,,,,,,,73,8.0,f,019_m_f_s_a.jpg,sad,a,3,1,248.90537500000005,249.1995913800001,249.4445343,249.47071567999998,249.4713018,249.50899997999997,249.51037199999996,250.10627057999997,a,1,0.5825485999998818,582.5485999998818,249.51037199999996,250.10627057999997,250.1162144,251.64961037999998,,,EmoCon002,2020_Dec_09_1707,EmoCon_Pilot_120Hz,2020.2.4,120.10006737610905,
,,,,0,0,0,0,74,0,74,0,,,,,,,,,,,,,,,,,,,,,,,,,,,,,,,,,,,,,,,,,,,,,,74,5.0,m,027_o_m_h_a.jpg,happy,d,3,1,251.65518240000006,251.94964488000002,252.16740890000005,252.19583108000003,252.19932519999998,252.24020147999997,252.24549980000006,252.82842578000006,d,1,0.5676449000000048,567.6449000000048,252.24549980000006,252.82842578000006,252.83919680000008,254.61619547999996,,,EmoCon002,2020_Dec_09_1707,EmoCon_Pilot_120Hz,2020.2.4,120.10006737610905,
,,,,0,0,0,0,75,0,75,0,,,,,,,,,,,,,,,,,,,,,,,,,,,,,,,,,,,,,,,,,,,,,,75,8.0,f,019_m_f_s_a.jpg,sad,a,3,1,254.62003830000003,254.91621258000006,255.16290800000002,255.1886790799999,255.18924770000012,255.22567028,255.2268368,255.86714808000008,a,1,0.6259333000000424,625.9333000000424,255.2268368,255.86714808000008,255.87314459999993,257.0659808800001,,,EmoCon002,2020_Dec_09_1707,EmoCon_Pilot_120Hz,2020.2.4,120.10006737610905,
,,,,0,0,0,0,76,0,76,0,,,,,,,,,,,,,,,,,,,,,,,,,,,,,,,,,,,,,,,,,,,,,,76,7.0,f,012_o_f_n_a.jpg,neutral,s,3,1,257.0662846,257.36632708,257.5829507000001,257.60994968,257.6133285000001,257.6509160800001,257.65536410000004,258.4511422800001,a,0,0.7816012000000683,781.6012000000683,257.65536410000004,258.4511422800001,258.46169009999994,260.1246839800001,,,EmoCon002,2020_Dec_09_1707,EmoCon_Pilot_120Hz,2020.2.4,120.10006737610905,
,,,,0,0,0,0,77,0,77,0,,,,,,,,,,,,,,,,,,,,,,,,,,,,,,,,,,,,,,,,,,,,,,77,6.0,m,033_o_m_s_a.jpg,sad,a,17,1,260.1287794,260.42475258000013,260.4486654,260.58466378,260.58801429999994,260.62596798000004,260.63015799999994,262.44666908,None,0,,,260.63015799999994,262.44666908,262.4543992000001,263.7664700800001,,,EmoCon002,2020_Dec_09_1707,EmoCon_Pilot_120Hz,2020.2.4,120.10006737610905,
,,,,0,0,0,0,78,0,78,0,,,,,,,,,,,,,,,,,,,,,,,,,,,,,,,,,,,,,,,,,,,,,,78,1.0,m,004_o_m_h_a.jpg,happy,d,17,1,263.7705863000001,264.06641988,264.27306169999997,264.43009357999995,264.4352192000001,264.47556938,264.4805891000001,264.87908098,d,1,0.38834989999986647,388.34989999986647,264.4805891000001,264.87908098,264.89084460000004,266.46654488000013,,,EmoCon002,2020_Dec_09_1707,EmoCon_Pilot_120Hz,2020.2.4,120.10006737610905,
,,,,0,0,0,0,79,0,79,0,,,,,,,,,,,,,,,,,,,,,,,,,,,,,,,,,,,,,,,,,,,,,,79,5.0,m,027_o_m_s_a.jpg,sad,a,17,1,266.47053359999995,266.76646628000003,266.7769766000001,266.9097758800001,266.91214059999993,266.95105298,266.95396589999996,267.60053388000006,a,1,0.6349555000001601,634.9555000001601,266.95396589999996,267.60053388000006,267.60931890000006,269.1999421800001,,,EmoCon002,2020_Dec_09_1707,EmoCon_Pilot_120Hz,2020.2.4,120.10006737610905,
,,,,0,0,0,0,80,0,80,0,,,,,,,,,,,,,,,,,,,,,,,,,,,,,,,,,,,,,,,,,,,,,,80,9.0,f,021_o_f_s_a.jpg,sad,a,17,1,269.20530770000005,269.4998811800001,269.52206380000007,269.65986238000005,269.6641178,269.70491008,269.7102046,270.94701667999993,a,1,1.2230125999999473,1223.0125999999473,269.7102046,270.94701667999993,270.9577703,272.1748204800001,,,EmoCon002,2020_Dec_09_1707,EmoCon_Pilot_120Hz,2020.2.4,120.10006737610905,
,,,,0,0,0,0,81,0,81,0,,,,,,,,,,,,,,,,,,,,,,,,,,,,,,,,,,,,,,,,,,,,,,81,5.0,m,027_o_m_s_a.jpg,sad,a,3,1,272.17778279999993,272.47501207999994,272.49862499999995,272.5203386800001,272.52102979999995,272.5594925800001,272.5607666000001,273.47276508000004,a,1,0.9002146999998786,900.2146999998786,272.5607666000001,273.47276508000004,273.4838211000001,274.81662817999995,,,EmoCon002,2020_Dec_09_1707,EmoCon_Pilot_120Hz,2020.2.4,120.10006737610905,
,,,,0,0,0,0,82,0,82,0,,,,,,,,,,,,,,,,,,,,,,,,,,,,,,,,,,,,,,,,,,,,,,82,7.0,f,012_o_f_h_a.jpg,happy,d,3,1,274.82068389999995,275.1167347800001,275.1370584000001,275.15954378000015,275.1601068,275.19496978000006,275.19501749999995,275.81225828000015,d,1,0.6099364999997761,609.9364999997761,275.19501749999995,275.81225828000015,275.81948839999995,276.84143498000003,,,EmoCon002,2020_Dec_09_1707,EmoCon_Pilot_120Hz,2020.2.4,120.10006737610905,
,,,,0,0,0,0,83,0,83,0,,,,,,,,,,,,,,,,,,,,,,,,,,,,,,,,,,,,,,,,,,,,,,83,3.0,m,013_y_m_s_a.jpg,sad,a,3,1,276.8418065000001,277.14165288000004,277.16549239999995,277.18776707999996,277.1883067000001,277.22620238000013,277.22782559999996,277.77900107999994,s,0,0.5370763000000807,537.0763000000807,277.22782559999996,277.77900107999994,277.7815926999999,279.51675167999997,,,EmoCon002,2020_Dec_09_1707,EmoCon_Pilot_120Hz,2020.2.4,120.10006737610905,
,,,,0,0,0,0,84,0,84,0,,,,,,,,,,,,,,,,,,,,,,,,,,,,,,,,,,,,,,,,,,,,,,84,5.0,m,027_o_m_s_a.jpg,sad,a,3,1,279.5209969,279.81676117999996,279.8370264,279.85986677999995,279.86048099999994,279.89470888000005,279.89445290000003,280.92088118000015,s,0,1.0145838000000822,1014.5838000000822,279.89445290000003,280.92088118000015,280.9333931000001,281.9835169800001,,,EmoCon002,2020_Dec_09_1707,EmoCon_Pilot_120Hz,2020.2.4,120.10006737610905,
,,,,0,0,0,0,85,0,85,0,,,,,,,,,,,,,,,,,,,,,,,,,,,,,,,,,,,,,,,,,,,,,,85,4.0,m,016_y_m_s_a.jpg,sad,a,3,1,281.98660459999996,282.2835694800001,282.3050058000001,282.32707247999997,282.3278941000001,282.3679357799999,282.3680641000001,283.59644308,a,1,1.2209226999998464,1220.9226999998464,282.3680641000001,283.59644308,283.60949359999995,285.55024617999993,,,EmoCon002,2020_Dec_09_1707,EmoCon_Pilot_120Hz,2020.2.4,120.10006737610905,
,,,,0,0,0,0,86,0,86,0,,,,,,,,,,,,,,,,,,,,,,,,,,,,,,,,,,,,,,,,,,,,,,86,5.0,m,027_o_m_n_a.jpg,neutral,s,3,1,285.5555422,285.85021478,286.07921950000014,286.10576448000006,286.1057005,286.14307157999997,286.1429515,286.95898148000015,s,1,0.8062264000000141,806.2264000000141,286.1429515,286.95898148000015,286.9618749000001,288.40030398,,,EmoCon002,2020_Dec_09_1707,EmoCon_Pilot_120Hz,2020.2.4,120.10006737610905,
,,,,0,0,0,0,87,0,87,0,,,,,,,,,,,,,,,,,,,,,,,,,,,,,,,,,,,,,,,,,,,,,,87,3.0,m,013_y_m_h_a.jpg,happy,d,3,1,288.40565830000014,288.70031438,288.93394149999995,288.9599080800001,288.9599062,288.99531858,288.9948466999999,289.53005218,d,1,0.5219403999999486,521.9403999999486,288.9948466999999,289.53005218,289.53573640000013,291.1086430800001,,,EmoCon002,2020_Dec_09_1707,EmoCon_Pilot_120Hz,2020.2.4,120.10006737610905,
,,,,0,0,0,0,88,0,88,0,,,,,,,,,,,,,,,,,,,,,,,,,,,,,,,,,,,,,,,,,,,,,,88,5.0,m,027_o_m_s_a.jpg,sad,a,3,1,291.1146185,291.40862547999996,291.4295022000001,291.4526372800001,291.45344969999996,291.48744778000014,291.48701140000003,292.20537788,s,0,0.7099439000000984,709.9439000000984,291.48701140000003,292.20537788,292.2175277000001,294.02535478000004,,,EmoCon002,2020_Dec_09_1707,EmoCon_Pilot_120Hz,2020.2.4,120.10006737610905,
,,,,0,0,0,0,89,0,89,0,,,,,,,,,,,,,,,,,,,,,,,,,,,,,,,,,,,,,,,,,,,,,,89,5.0,m,027_o_m_s_a.jpg,sad,a,17,1,294.029348,294.3253290800001,294.3454919999999,294.47745037999994,294.4811902000001,294.5195942800001,294.52299029999995,295.00947528000006,s,0,0.47413559999995414,474.13559999995414,294.52299029999995,295.00947528000006,295.02044309999997,296.1170935800001,,,EmoCon002,2020_Dec_09_1707,EmoCon_Pilot_120Hz,2020.2.4,120.10006737610905,
,,,,0,0,0,0,90,0,90,0,,,,,,,,,,,,,,,,,,,,,,,,,,,,,,,,,,,,,,,,,,,,,,90,12.0,f,040_y_f_s_a.jpg,sad,a,3,1,296.1210143999999,296.41703888000006,296.44463300000007,296.46719048,296.4678798,296.50407098000005,296.50450479999995,297.27489438,a,1,0.7563641000001553,756.3641000001553,296.50450479999995,297.27489438,297.2779565999999,298.75890477999997,,,EmoCon002,2020_Dec_09_1707,EmoCon_Pilot_120Hz,2020.2.4,120.10006737610905,
,,,,0,0,0,0,91,0,91,0,,,,,,,,,,,,,,,,,,,,,,,,,,,,,,,,,,,,,,,,,,,,,,91,3.0,m,013_y_m_n_a.jpg,neutral,s,3,1,298.76443829999994,299.05876407999995,299.47211600000014,299.49813238,299.49859089999995,299.53493718000004,299.5362617999999,300.73459677999995,a,0,1.188671599999907,1188.671599999907,299.5362617999999,300.73459677999995,300.74288350000006,301.74206847999994,,,EmoCon002,2020_Dec_09_1707,EmoCon_Pilot_120Hz,2020.2.4,120.10006737610905,
,,,,0,0,0,0,92,0,92,0,,,,,,,,,,,,,,,,,,,,,,,,,,,,,,,,,,,,,,,,,,,,,,92,12.0,f,040_y_f_s_a.jpg,sad,a,17,1,301.74488480000014,302.0421991800001,302.06336540000007,302.19380997999997,302.1968753000001,302.23505418000013,302.2383463000001,302.88572238000006,a,1,0.6386185000001205,638.6185000001205,302.2383463000001,302.88572238000006,302.89742550000005,304.62551828000005,,,EmoCon002,2020_Dec_09_1707,EmoCon_Pilot_120Hz,2020.2.4,120.10006737610905,
,,,,0,0,0,0,93,0,93,0,,,,,,,,,,,,,,,,,,,,,,,,,,,,,,,,,,,,,,,,,,,,,,93,6.0,m,033_o_m_s_a.jpg,sad,a,3,1,304.6302501,304.92558858000007,304.94738170000005,304.96976768000013,304.96994659999996,305.01010308000014,305.01128429999994,306.3400810800001,a,1,1.3137768999999935,1313.7768999999935,305.01128429999994,306.3400810800001,306.3464302,308.05901158000006,,,EmoCon002,2020_Dec_09_1707,EmoCon_Pilot_120Hz,2020.2.4,120.10006737610905,
,,,,0,0,0,0,94,0,94,0,,,,,,,,,,,,,,,,,,,,,,,,,,,,,,,,,,,,,,,,,,,,,,94,2.0,m,008_y_m_s_a.jpg,sad,a,3,1,308.0647394,308.35899578,308.61321850000013,308.63907287999996,308.6396022000001,308.67683158,308.6782313000001,309.32586577999996,a,1,0.6387114999999994,638.7114999999994,308.6782313000001,309.32586577999996,309.3334133000001,310.7173519800001,,,EmoCon002,2020_Dec_09_1707,EmoCon_Pilot_120Hz,2020.2.4,120.10006737610905,
,,,,0,0,0,0,95,0,95,0,,,,,,,,,,,,,,,,,,,,,,,,,,,,,,,,,,,,,,,,,,,,,,95,8.0,f,019_m_f_s_a.jpg,sad,a,17,1,310.72159110000007,311.0173514800001,311.2667036,311.4379257800001,311.4414882000001,311.48269858000003,311.48759640000003,312.0188676800001,a,1,0.5172479000000294,517.2479000000294,311.48759640000003,312.0188676800001,312.0303795,313.18408567999995,,,EmoCon002,2020_Dec_09_1707,EmoCon_Pilot_120Hz,2020.2.4,120.10006737610905,
,,,,0,0,0,0,96,0,96,0,,,,,,,,,,,,,,,,,,,,,,,,,,,,,,,,,,,,,,,,,,,,,,96,9.0,f,021_o_f_n_a.jpg,neutral,s,3,1,313.18958380000004,313.48418317999995,313.6973316000001,313.72351998,313.72440030000007,313.76033828000004,313.76146540000013,314.57337198000005,s,1,0.8033756999998332,803.3756999998332,313.76146540000013,314.57337198000005,314.58087810000006,316.05918638,,,EmoCon002,2020_Dec_09_1707,EmoCon_Pilot_120Hz,2020.2.4,120.10006737610905,
,,,,0,0,0,0,97,0,97,0,,,,,,,,,,,,,,,,,,,,,,,,,,,,,,,,,,,,,,,,,,,,,,97,11.0,f,030_o_f_h_a.jpg,happy,d,17,1,316.06330460000004,316.35911188,316.55897040000013,316.71633738000014,316.7210577999999,316.76111918000015,316.76611,317.2045272800001,d,1,0.4307739999999285,430.7739999999285,316.76611,317.2045272800001,317.2162134,319.15092718000005,,,EmoCon002,2020_Dec_09_1707,EmoCon_Pilot_120Hz,2020.2.4,120.10006737610905,
,,,,0,0,0,0,98,0,98,0,,,,,,,,,,,,,,,,,,,,,,,,,,,,,,,,,,,,,,,,,,,,,,98,12.0,f,040_y_f_n_a.jpg,neutral,s,17,1,319.1540818000001,319.45089998000003,319.67154440000013,319.8347323800001,319.8395723000001,319.88025328000003,319.8848209,320.36536228,s,1,0.47217619999992166,472.17619999992166,319.8848209,320.36536228,320.3771828000001,321.97597238000003,,,EmoCon002,2020_Dec_09_1707,EmoCon_Pilot_120Hz,2020.2.4,120.10006737610905,
,,,,0,0,0,0,99,0,99,0,,,,,,,,,,,,,,,,,,,,,,,,,,,,,,,,,,,,,,,,,,,,,,99,12.0,f,040_y_f_s_a.jpg,sad,a,17,1,321.9801844000001,322.2758856800001,322.28971360000014,322.42771117999996,322.4326106000001,322.47341998,322.4787013,323.5582093800001,a,1,1.0700480999998945,1070.0480999998945,322.4787013,323.5582093800001,323.5652480000001,325.41770918,,,EmoCon002,2020_Dec_09_1707,EmoCon_Pilot_120Hz,2020.2.4,120.10006737610905,
,,,,0,0,0,0,100,0,100,0,,,,,,,,,,,,,,,,,,,,,,,,,,,,,,,,,,,,,,,,,,,,,,100,4.0,m,016_y_m_n_a.jpg,neutral,s,17,1,325.4219150000001,325.7177168800001,325.9598702999999,326.1178081800001,326.1227994000001,326.1628158799999,326.16720980000014,327.0136697800001,s,1,0.829667900000004,829.667900000004,326.16720980000014,327.0136697800001,327.02532480000013,328.39268558000003,,,EmoCon002,2020_Dec_09_1707,EmoCon_Pilot_120Hz,2020.2.4,120.10006737610905,
,,,,0,0,0,0,101,0,101,0,,,,,,,,,,,,,,,,,,,,,,,,,,,,,,,,,,,,,,,,,,,,,,101,11.0,f,030_o_f_s_a.jpg,sad,a,17,1,328.3974997,328.69274978,328.88656170000013,329.05023017999997,329.0549925,329.09421778,329.0993361000001,329.6197999799999,a,1,0.5137073000000782,513.7073000000782,329.0993361000001,329.6197999799999,329.6313292,330.69282318,,,EmoCon002,2020_Dec_09_1707,EmoCon_Pilot_120Hz,2020.2.4,120.10006737610905,
,,,,0,0,0,0,102,0,102,0,,,,,,,,,,,,,,,,,,,,,,,,,,,,,,,,,,,,,,,,,,,,,,102,3.0,m,013_y_m_h_a.jpg,happy,d,17,1,330.6969808000001,330.99283418000005,331.220859,331.37200048,331.37492250000014,331.41222628000014,331.41563999999994,331.8727343800001,d,1,0.4451861000000008,445.1861000000008,331.41563999999994,331.8727343800001,331.8814837,333.0178008800001,,,EmoCon002,2020_Dec_09_1707,EmoCon_Pilot_120Hz,2020.2.4,120.10006737610905,
,,,,0,0,0,0,103,0,103,0,,,,,,,,,,,,,,,,,,,,,,,,,,,,,,,,,,,,,,,,,,,,,,103,2.0,m,008_y_m_s_a.jpg,sad,a,17,1,333.02074459999994,333.31780128000014,333.5431705000001,333.69584188,333.6989109000001,333.73560767999993,333.738284,334.3712126800001,a,1,0.6186350999998922,618.6350999998922,333.738284,334.3712126800001,334.3770032,335.94289617999993,,,EmoCon002,2020_Dec_09_1707,EmoCon_Pilot_120Hz,2020.2.4,120.10006737610905,
,,,,0,0,0,0,104,0,104,0,,,,,,,,,,,,,,,,,,,,,,,,,,,,,,,,,,,,,,,,,,,,,,104,11.0,f,030_o_f_s_a.jpg,sad,a,17,1,335.9469346000001,336.24283818000004,336.43793170000004,336.59869658,336.6034535000001,336.64471568,336.64880459999995,337.0568673800001,a,1,0.39611330000002454,396.11330000002454,336.64880459999995,337.0568673800001,337.0684375000001,338.93465317999994,,,EmoCon002,2020_Dec_09_1707,EmoCon_Pilot_120Hz,2020.2.4,120.10006737610905,
,,,,0,0,0,0,105,0,105,0,,,,,,,,,,,,,,,,,,,,,,,,,,,,,,,,,,,,,,,,,,,,,,105,4.0,m,016_y_m_h_a.jpg,happy,d,17,1,338.93875530000014,339.23456148000014,339.25824940000007,339.39454888,339.3975958000001,339.4358382800001,339.4389831000001,339.84302398,d,1,0.3898477999998704,389.8477999998704,339.4389831000001,339.84302398,339.85368770000014,341.60973038,,,EmoCon002,2020_Dec_09_1707,EmoCon_Pilot_120Hz,2020.2.4,120.10006737610905,
,,,,0,0,0,0,106,0,106,0,,,,,,,,,,,,,,,,,,,,,,,,,,,,,,,,,,,,,,,,,,,,,,106,7.0,f,012_o_f_n_a.jpg,neutral,s,17,1,341.6154974000001,341.90963338000006,342.1276951,342.29144088,342.2958804,342.33538348,342.3405464,342.85190098,s,1,0.4964164000000437,496.4164000000437,342.3405464,342.85190098,342.8634399,344.28475658,,,EmoCon002,2020_Dec_09_1707,EmoCon_Pilot_120Hz,2020.2.4,120.10006737610905,
,,,,0,0,0,0,107,0,107,0,,,,,,,,,,,,,,,,,,,,,,,,,,,,,,,,,,,,,,,,,,,,,,107,11.0,f,030_o_f_h_a.jpg,happy,d,17,1,344.2875722000001,344.58473308,344.77772419999997,344.93821228,344.9427052000001,344.98348358,344.98837419999995,345.46741367999994,d,1,0.47245840000005046,472.45840000005046,344.98837419999995,345.46741367999994,345.4748317000001,346.4847170800001,,,EmoCon002,2020_Dec_09_1707,EmoCon_Pilot_120Hz,2020.2.4,120.10006737610905,
,,,,0,0,0,0,108,0,108,0,,,,,,,,,,,,,,,,,,,,,,,,,,,,,,,,,,,,,,,,,,,,,,108,1.0,m,004_o_m_s_a.jpg,sad,a,17,1,346.48777799999993,346.78468797999994,346.8038546,346.93625498000006,346.9393354000001,346.9775614800001,346.97987979999994,347.7881657800001,a,1,0.8009041000000252,800.9041000000252,346.97987979999994,347.7881657800001,347.79678910000007,349.71818618,,,EmoCon002,2020_Dec_09_1707,EmoCon_Pilot_120Hz,2020.2.4,120.10006737610905,
,,,,0,0,0,0,109,0,109,0,,,,,,,,,,,,,,,,,,,,,,,,,,,,,,,,,,,,,,,,,,,,,,109,3.0,m,013_y_m_n_a.jpg,neutral,s,17,1,349.72139590000006,350.0181958800001,350.256124,350.41271698000014,350.4177062000001,350.4577787800001,350.46294680000005,350.97407898000006,s,1,0.4940025999999307,494.0025999999307,350.46294680000005,350.97407898000006,350.98441660000003,352.90983248,,,EmoCon002,2020_Dec_09_1707,EmoCon_Pilot_120Hz,2020.2.4,120.10006737610905,
,,,,0,0,0,0,110,0,110,0,,,,,,,,,,,,,,,,,,,,,,,,,,,,,,,,,,,,,,,,,,,,,,110,10.0,f,028_y_f_s_a.jpg,sad,a,17,1,352.91394719999994,353.2098785800001,353.22991120000006,353.36148718000004,353.3647658,353.4034371800001,353.40728680000007,354.1833844800001,a,1,0.7655272000001787,765.5272000001787,353.40728680000007,354.1833844800001,354.1915649,355.4599057800001,,,EmoCon002,2020_Dec_09_1707,EmoCon_Pilot_120Hz,2020.2.4,120.10006737610905,
,,,,0,0,0,0,111,0,111,0,,,,,,,,,,,,,,,,,,,,,,,,,,,,,,,,,,,,,,,,,,,,,,111,11.0,f,030_o_f_h_a.jpg,happy,d,17,1,355.4629027000001,355.75987998000005,355.96582119999994,356.12604358,356.1308088999999,356.1724397800001,356.1774660000001,356.63713568000003,d,1,0.44365509999988717,443.65509999988717,356.1774660000001,356.63713568000003,356.64855439999997,357.68499058,,,EmoCon002,2020_Dec_09_1707,EmoCon_Pilot_120Hz,2020.2.4,120.10006737610905,
,,,,0,0,0,0,112,0,112,0,,,,,,,,,,,,,,,,,,,,,,,,,,,,,,,,,,,,,,,,,,,,,,112,7.0,f,012_o_f_n_a.jpg,neutral,s,17,1,357.6883471000001,357.9849552800001,358.20399139999995,358.36848588,358.3728265,358.41239758000006,358.41756269999996,359.4378446800001,s,1,1.0111985000000914,1011.1985000000914,358.41756269999996,359.4378446800001,359.44503929999996,361.03497858000014,,,EmoCon002,2020_Dec_09_1707,EmoCon_Pilot_120Hz,2020.2.4,120.10006737610905,
,,,,0,0,0,0,113,0,113,0,,,,,,,,,,,,,,,,,,,,,,,,,,,,,,,,,,,,,,,,,,,,,,113,2.0,m,008_y_m_s_a.jpg,sad,a,17,1,361.03817129999993,361.33503167999993,361.5742279000001,361.7284884800001,361.7315315999999,361.7692371800001,361.7725932000001,362.60654238000006,a,1,0.824181899999985,824.181899999985,361.7725932000001,362.60654238000006,362.61083959999996,364.35175938,,,EmoCon002,2020_Dec_09_1707,EmoCon_Pilot_120Hz,2020.2.4,120.10006737610905,
,,,,0,0,0,0,114,0,114,0,,,,,,,,,,,,,,,,,,,,,,,,,,,,,,,,,,,,,,,,,,,,,,114,11.0,f,030_o_f_h_a.jpg,happy,d,17,1,364.35718880000013,364.65186378,364.8548946000001,365.02291607999996,365.0268192000001,365.06666728000005,365.0716486000001,365.58157738,d,1,0.49337340000010954,493.37340000010954,365.0716486000001,365.58157738,365.5930126999999,366.92680427999994,,,EmoCon002,2020_Dec_09_1707,EmoCon_Pilot_120Hz,2020.2.4,120.10006737610905,
,,,,0,0,0,0,115,0,115,0,,,,,,,,,,,,,,,,,,,,,,,,,,,,,,,,,,,,,,,,,,,,,,115,3.0,m,013_y_m_h_a.jpg,happy,d,17,1,366.92975980000006,367.22671747999993,367.45865019999997,367.6189517800001,367.6222126,367.6626280800001,367.66761829999996,368.0122667800001,d,1,0.3369133999999576,336.9133999999576,367.66761829999996,368.0122667800001,368.0152683000001,369.76850648000004,,,EmoCon002,2020_Dec_09_1707,EmoCon_Pilot_120Hz,2020.2.4,120.10006737610905,
,,,,0,0,0,0,116,0,116,0,,,,,,,,,,,,,,,,,,,,,,,,,,,,,,,,,,,,,,,,,,,,,,116,2.0,m,008_y_m_s_a.jpg,sad,a,17,1,369.7716341,370.06853488,370.28799090000007,370.45181558000013,370.4564663000001,370.4961054800001,370.50128859999995,371.32803318000015,a,1,0.8157145000000128,815.7145000000128,370.50128859999995,371.32803318000015,371.3395938000001,372.7186119800001,,,EmoCon002,2020_Dec_09_1707,EmoCon_Pilot_120Hz,2020.2.4,120.10006737610905,
,,,,0,0,0,0,117,0,117,0,,,,,,,,,,,,,,,,,,,,,,,,,,,,,,,,,,,,,,,,,,,,,,117,3.0,m,013_y_m_n_a.jpg,neutral,s,17,1,372.7216115000001,373.01860738000005,373.2535855000001,373.41713768,373.421196,373.4625802800001,373.46773630000007,373.94809018,s,1,0.47313660000008895,473.13660000008895,373.46773630000007,373.94809018,373.9583586000001,375.14360037999995,,,EmoCon002,2020_Dec_09_1707,EmoCon_Pilot_120Hz,2020.2.4,120.10006737610905,
,,,,0,0,0,0,118,0,118,0,,,,,,,,,,,,,,,,,,,,,,,,,,,,,,,,,,,,,,,,,,,,,,118,6.0,m,033_o_m_n_a.jpg,neutral,s,17,1,375.14771659999997,375.4436977800001,375.64451299999996,375.8055463800001,375.8088789000001,375.8460431799999,375.85021430000006,376.29993528,s,1,0.44248179999999593,442.4817999999959,375.85021430000006,376.29993528,376.30621410000003,378.29366847999995,,,EmoCon002,2020_Dec_09_1707,EmoCon_Pilot_120Hz,2020.2.4,120.10006737610905,
,,,,0,0,0,0,119,0,119,0,,,,,,,,,,,,,,,,,,,,,,,,,,,,,,,,,,,,,,,,,,,,,,119,6.0,m,033_o_m_n_a.jpg,neutral,s,17,1,378.2976794000001,378.59372618,378.7852921000001,378.94439778000014,378.9493907000001,378.98925368000005,378.994557,379.3548980800001,s,1,0.3460374999999658,346.0374999999658,378.994557,379.3548980800001,379.358827,380.47709297999995,,,EmoCon002,2020_Dec_09_1707,EmoCon_Pilot_120Hz,2020.2.4,120.10006737610905,
,,,,1,0,1,0,0,0,0,0,,,,,,,,,,,,,,,,,,,,,,,,,,,,,,,,,,,,,,,380.56505790000006,383.05327508000005,space,2.471732100000054,2471.732100000054,380.56505790000006,383.05327508000005,0,1.0,m,004_o_m_s_a.jpg,sad,a,17,2,383.0585023000001,383.35209708,383.37252609999996,383.5037302800001,383.5067875,383.5449157800001,383.54504880000013,384.35248978000004,a,1,0.7955575999999382,795.5575999999382,383.54504880000013,384.35248978000004,384.35849329999996,385.6688096800001,,,EmoCon002,2020_Dec_09_1707,EmoCon_Pilot_120Hz,2020.2.4,120.10006737610905,
,,,,1,0,1,0,1,0,1,0,,,,,,,,,,,,,,,,,,,,,,,,,,,,,,,,,,,,,,,,,,,,,,1,9.0,f,021_o_f_n_a.jpg,neutral,s,2,2,385.67045600000006,385.96891268000013,386.4154042,386.4325618800001,386.4327966999999,386.47005437999997,386.47035170000004,388.06433418000006,None,0,,,386.47035170000004,388.06433418000006,388.0675848000001,389.89389357999994,,,EmoCon002,2020_Dec_09_1707,EmoCon_Pilot_120Hz,2020.2.4,120.10006737610905,
,,,,1,0,1,0,2,0,2,0,,,,,,,,,,,,,,,,,,,,,,,,,,,,,,,,,,,,,,,,,,,,,,2,11.0,f,030_o_f_s_a.jpg,sad,a,17,2,389.89827000000014,390.19396987999994,390.3879376,390.54758758,390.5514803000001,390.59267678000015,390.5976326,391.12853498000004,a,1,0.5192556000001787,519.2556000001787,390.5976326,391.12853498000004,391.1400215000001,392.60236097999996,,,EmoCon002,2020_Dec_09_1707,EmoCon_Pilot_120Hz,2020.2.4,120.10006737610905,
,,,,1,0,1,0,3,0,3,0,,,,,,,,,,,,,,,,,,,,,,,,,,,,,,,,,,,,,,,,,,,,,,3,10.0,f,028_y_f_s_a.jpg,sad,a,2,2,392.6055401000001,392.90223128,392.92253400000004,392.93777937999994,392.93866879999996,392.97364917999994,392.97335380000004,393.63487267999994,a,1,0.6474788000000444,647.4788000000444,392.97335380000004,393.63487267999994,393.64327419999995,395.0690405800001,,,EmoCon002,2020_Dec_09_1707,EmoCon_Pilot_120Hz,2020.2.4,120.10006737610905,
,,,,1,0,1,0,4,0,4,0,,,,,,,,,,,,,,,,,,,,,,,,,,,,,,,,,,,,,,,,,,,,,,4,6.0,m,033_o_m_n_a.jpg,neutral,s,17,2,395.0729936,395.36900188000004,395.5766751000001,395.74126748000003,395.7462279000001,395.78679588,395.7918833000001,396.16887468000004,s,1,0.3650322999999389,365.0322999999389,395.7918833000001,396.16887468000004,396.17888590000007,397.21082808000006,,,EmoCon002,2020_Dec_09_1707,EmoCon_Pilot_120Hz,2020.2.4,120.10006737610905,
,,,,1,0,1,0,5,0,5,0,,,,,,,,,,,,,,,,,,,,,,,,,,,,,,,,,,,,,,,,,,,,,,5,1.0,m,004_o_m_n_a.jpg,neutral,s,2,2,397.2162982,397.51083638,397.71757950000006,397.73384037999995,397.7342807,397.77027197999996,397.7718999000001,398.44525208000005,s,1,0.6569954000001417,656.9954000001417,397.7718999000001,398.44525208000005,398.45423299999993,400.26090248000014,,,EmoCon002,2020_Dec_09_1707,EmoCon_Pilot_120Hz,2020.2.4,120.10006737610905,
,,,,1,0,1,0,6,0,6,0,,,,,,,,,,,,,,,,,,,,,,,,,,,,,,,,,,,,,,,,,,,,,,6,12.0,f,040_y_f_s_a.jpg,sad,a,2,2,400.2666753000001,400.5608431800001,400.5841365000001,400.59912727999995,400.60015509999994,400.63695428000005,400.6371025000001,401.64445868000007,a,1,0.9998219000001427,999.8219000001427,400.6371025000001,401.64445868000007,401.65628370000013,402.93586488000005,,,EmoCon002,2020_Dec_09_1707,EmoCon_Pilot_120Hz,2020.2.4,120.10006737610905,
,,,,1,0,1,0,7,0,7,0,,,,,,,,,,,,,,,,,,,,,,,,,,,,,,,,,,,,,,,,,,,,,,7,9.0,f,021_o_f_n_a.jpg,neutral,s,2,2,402.93985450000014,403.23582158,403.46394929999997,403.4812927800001,403.4843329,403.52167848,403.5270181000001,404.2618187800001,s,1,0.7258332000001246,725.8332000001246,403.5270181000001,404.2618187800001,404.27349920000006,405.34421468000005,,,EmoCon002,2020_Dec_09_1707,EmoCon_Pilot_120Hz,2020.2.4,120.10006737610905,
,,,,1,0,1,0,8,0,8,0,,,,,,,,,,,,,,,,,,,,,,,,,,,,,,,,,,,,,,,,,,,,,,8,9.0,f,021_o_f_s_a.jpg,sad,a,17,2,405.34731880000004,405.64429528000005,405.6665358,405.80409557999997,405.8063821999999,405.84534868000014,405.8483421000001,406.78599927999994,a,1,0.924510699999928,924.510699999928,405.8483421000001,406.78599927999994,406.79408420000004,408.3527145800001,,,EmoCon002,2020_Dec_09_1707,EmoCon_Pilot_120Hz,2020.2.4,120.10006737610905,
,,,,1,0,1,0,9,0,9,0,,,,,,,,,,,,,,,,,,,,,,,,,,,,,,,,,,,,,,,,,,,,,,9,4.0,m,016_y_m_s_a.jpg,sad,a,2,2,408.3582987,408.65270478,408.6773966999999,408.6923268800001,408.69306370000004,408.72877657999993,408.72884870000007,409.9647055800001,s,0,1.2279661999998552,1227.9661999998552,408.72884870000007,409.9647055800001,409.9715503,411.21940598000015,,,EmoCon002,2020_Dec_09_1707,EmoCon_Pilot_120Hz,2020.2.4,120.10006737610905,
,,,,1,0,1,0,10,0,10,0,,,,,,,,,,,,,,,,,,,,,,,,,,,,,,,,,,,,,,,,,,,,,,10,7.0,f,012_o_f_n_a.jpg,neutral,s,17,2,411.22539600000005,411.5193655800001,411.73266250000006,411.9042517800001,411.9087807000001,411.94936108,411.95440770000005,412.36383188000013,s,1,0.4026421000000937,402.6421000000937,411.95440770000005,412.36383188000013,412.3754857000001,413.86946728,,,EmoCon002,2020_Dec_09_1707,EmoCon_Pilot_120Hz,2020.2.4,120.10006737610905,
,,,,1,0,1,0,11,0,11,0,,,,,,,,,,,,,,,,,,,,,,,,,,,,,,,,,,,,,,,,,,,,,,11,2.0,m,008_y_m_n_a.jpg,neutral,s,2,2,413.8736606,414.16947247999997,414.39499580000006,414.41147688,414.41525260000003,414.45327027999997,414.4585777,415.24399038,s,1,0.7703196000002208,770.3196000002208,414.4585777,415.24399038,415.25623470000005,417.20288918000006,,,EmoCon002,2020_Dec_09_1707,EmoCon_Pilot_120Hz,2020.2.4,120.10006737610905,
,,,,1,0,1,0,12,0,12,0,,,,,,,,,,,,,,,,,,,,,,,,,,,,,,,,,,,,,,,,,,,,,,12,1.0,m,004_o_m_s_a.jpg,sad,a,2,2,417.20837800000004,417.50278358000014,417.5251674000001,417.54126338000015,417.5428342,417.5798915800001,417.5816204,418.3624227800001,d,0,0.7671298999998726,767.1298999998726,417.5816204,418.3624227800001,418.3689194000001,419.46111098000006,,,EmoCon002,2020_Dec_09_1707,EmoCon_Pilot_120Hz,2020.2.4,120.10006737610905,
,,,,1,0,1,0,13,0,13,0,,,,,,,,,,,,,,,,,,,,,,,,,,,,,,,,,,,,,,,,,,,,,,13,7.0,f,012_o_f_h_a.jpg,happy,d,17,2,419.4644469,419.76121667999996,419.78260290000003,419.91282737999995,419.91635270000006,419.95405528000015,419.9571667,420.33528137999997,d,1,0.36761380000007193,367.61380000007193,419.9571667,420.33528137999997,420.3458499000001,422.17796278000014,,,EmoCon002,2020_Dec_09_1707,EmoCon_Pilot_120Hz,2020.2.4,120.10006737610905,
,,,,1,0,1,0,14,0,14,0,,,,,,,,,,,,,,,,,,,,,,,,,,,,,,,,,,,,,,,,,,,,,,14,3.0,m,013_y_m_h_a.jpg,happy,d,2,2,422.18329070000004,422.47787977999997,422.7266499,422.74385757999994,422.7446033000001,422.7804627800001,422.7805548000001,423.30246837999994,d,1,0.5122592000000168,512.2592000000168,422.7805548000001,423.30246837999994,423.31068359999995,424.5946644800001,,,EmoCon002,2020_Dec_09_1707,EmoCon_Pilot_120Hz,2020.2.4,120.10006737610905,
,,,,1,0,1,0,15,0,15,0,,,,,,,,,,,,,,,,,,,,,,,,,,,,,,,,,,,,,,,,,,,,,,15,11.0,f,030_o_f_n_a.jpg,neutral,s,2,2,424.5989082000001,424.89455857999997,425.1017399,425.11874018000003,425.11961910000014,425.15396957999997,425.1542389000001,426.55018948,d,0,1.3863940999999613,1386.3940999999613,425.1542389000001,426.55018948,426.5549052000001,428.31138808000014,,,EmoCon002,2020_Dec_09_1707,EmoCon_Pilot_120Hz,2020.2.4,120.10006737610905,
,,,,1,0,1,0,16,0,16,0,,,,,,,,,,,,,,,,,,,,,,,,,,,,,,,,,,,,,,,,,,,,,,16,3.0,m,013_y_m_n_a.jpg,neutral,s,17,2,428.3157367000001,428.61133548,428.83940329999996,428.99486677999994,428.9991557999999,429.04031198000007,429.0454351000001,429.50074128000006,s,1,0.439310100000057,439.310100000057,429.0454351000001,429.50074128000006,429.50741360000006,430.56967237999993,,,EmoCon002,2020_Dec_09_1707,EmoCon_Pilot_120Hz,2020.2.4,120.10006737610905,
,,,,1,0,1,0,17,0,17,0,,,,,,,,,,,,,,,,,,,,,,,,,,,,,,,,,,,,,,,,,,,,,,17,9.0,f,021_o_f_h_a.jpg,happy,d,17,2,430.57294279999996,430.86973007999995,431.0802596000001,431.25079518000007,431.25577870000006,431.29666098000007,431.3018092,431.77241447999995,d,1,0.4551586000000043,455.1586000000043,431.3018092,431.77241447999995,431.77950250000004,433.25320778000014,,,EmoCon002,2020_Dec_09_1707,EmoCon_Pilot_120Hz,2020.2.4,120.10006737610905,
,,,,1,0,1,0,18,0,18,0,,,,,,,,,,,,,,,,,,,,,,,,,,,,,,,,,,,,,,,,,,,,,,18,3.0,m,013_y_m_s_a.jpg,sad,a,17,2,433.2590378,433.55320918000007,433.57823400000007,433.7130815800001,433.7159687999999,433.7543728800001,433.75734239999997,435.01709928000014,a,1,1.2476246000001083,1247.6246000001083,433.75734239999997,435.01709928000014,435.025267,436.02805698,,,EmoCon002,2020_Dec_09_1707,EmoCon_Pilot_120Hz,2020.2.4,120.10006737610905,
,,,,1,0,1,0,19,0,19,0,,,,,,,,,,,,,,,,,,,,,,,,,,,,,,,,,,,,,,,,,,,,,,19,10.0,f,028_y_f_h_a.jpg,happy,d,17,2,436.0314988,436.32805497999993,436.34852509999996,436.47985988000005,436.48180189999994,436.52105398000003,436.52426590000005,437.15395278000005,d,1,0.616438799999969,616.438799999969,436.52426590000005,437.15395278000005,437.1623933000001,438.66992858000003,,,EmoCon002,2020_Dec_09_1707,EmoCon_Pilot_120Hz,2020.2.4,120.10006737610905,
,,,,1,0,1,0,20,0,20,0,,,,,,,,,,,,,,,,,,,,,,,,,,,,,,,,,,,,,,,,,,,,,,20,4.0,m,016_y_m_h_a.jpg,happy,d,2,2,438.6741813000001,438.96995238,438.99347420000004,439.0085612800001,439.00953000000004,439.0461204800001,439.0472053000001,439.8930167799999,d,1,0.8297291999999743,829.7291999999743,439.0472053000001,439.8930167799999,439.90138509999997,441.85331348,,,EmoCon002,2020_Dec_09_1707,EmoCon_Pilot_120Hz,2020.2.4,120.10006737610905,
,,,,1,0,1,0,21,0,21,0,,,,,,,,,,,,,,,,,,,,,,,,,,,,,,,,,,,,,,,,,,,,,,21,6.0,m,033_o_m_h_a.jpg,happy,d,2,2,441.8581081,442.15332738000006,442.17461849999995,442.18975018000015,442.19028260000005,442.22493538000003,442.22442590000014,442.83131028,d,1,0.5963216000000102,596.3216000000102,442.22442590000014,442.83131028,442.8384833,444.1949884800001,,,EmoCon002,2020_Dec_09_1707,EmoCon_Pilot_120Hz,2020.2.4,120.10006737610905,
,,,,1,0,1,0,22,0,22,0,,,,,,,,,,,,,,,,,,,,,,,,,,,,,,,,,,,,,,,,,,,,,,22,5.0,m,027_o_m_s_a.jpg,sad,a,17,2,444.1976313,444.49496088,444.51558350000005,444.6466593800001,444.64984070000014,444.68884088000004,444.6925040000001,446.12326587999996,a,1,1.4162690999999086,1416.2690999999086,444.6925040000001,446.12326587999996,446.1317001,447.6783877800001,,,EmoCon002,2020_Dec_09_1707,EmoCon_Pilot_120Hz,2020.2.4,120.10006737610905,
,,,,1,0,1,0,23,0,23,0,,,,,,,,,,,,,,,,,,,,,,,,,,,,,,,,,,,,,,,,,,,,,,23,10.0,f,028_y_f_n_a.jpg,neutral,s,17,2,447.68151149999994,447.97839058,448.19309840000005,448.35542878,448.3601430000001,448.40068488,448.4059148000001,448.85521398000014,s,1,0.4388864999998532,438.8864999998532,448.4059148000001,448.85521398000014,448.86600739999994,450.79516997999986,,,EmoCon002,2020_Dec_09_1707,EmoCon_Pilot_120Hz,2020.2.4,120.10006737610905,
,,,,1,0,1,0,24,0,24,0,,,,,,,,,,,,,,,,,,,,,,,,,,,,,,,,,,,,,,,,,,,,,,24,9.0,f,021_o_f_n_a.jpg,neutral,s,17,2,450.7991800000002,451.09516938,451.30230970000025,451.4620154800002,451.4665867000001,451.5079148799998,451.51329550000014,452.03148618,s,1,0.5073717999998735,507.3717999998735,451.51329550000014,452.03148618,452.03714939999986,453.0952268799999,,,EmoCon002,2020_Dec_09_1707,EmoCon_Pilot_120Hz,2020.2.4,120.10006737610905,
,,,,1,0,1,0,25,0,25,0,,,,,,,,,,,,,,,,,,,,,,,,,,,,,,,,,,,,,,,,,,,,,,25,8.0,f,019_m_f_h_a.jpg,happy,d,17,2,453.09943720000024,453.39521788000025,453.4187180000001,453.55517897999994,453.55868829999986,453.59695037999995,453.60014780000006,454.02114898000013,d,1,0.4125878999998349,412.5878999998349,453.60014780000006,454.02114898000013,454.03144069999985,455.3536142800001,,,EmoCon002,2020_Dec_09_1707,EmoCon_Pilot_120Hz,2020.2.4,120.10006737610905,
,,,,1,0,1,0,26,0,26,0,,,,,,,,,,,,,,,,,,,,,,,,,,,,,,,,,,,,,,,,,,,,,,26,4.0,m,016_y_m_n_a.jpg,neutral,s,17,2,455.3577008,455.65350288000013,455.89063469999996,456.04590938000024,456.05083219999983,456.0908560800001,456.09624959999996,456.82039998000005,s,1,0.7086389999999483,708.6389999999483,456.09624959999996,456.82039998000005,456.8317370000002,457.87864018000005,,,EmoCon002,2020_Dec_09_1707,EmoCon_Pilot_120Hz,2020.2.4,120.10006737610905,
,,,,1,0,1,0,27,0,27,0,,,,,,,,,,,,,,,,,,,,,,,,,,,,,,,,,,,,,,,,,,,,,,27,1.0,m,004_o_m_h_a.jpg,happy,d,2,2,457.88295519999997,458.1786786800001,458.3785312000002,458.3959548800001,458.3997136999999,458.43820798,458.44331910000005,459.01615638,d,1,0.5614201999997022,561.4201999997022,458.44331910000005,459.01615638,459.02281719999996,460.09535248,,,EmoCon002,2020_Dec_09_1707,EmoCon_Pilot_120Hz,2020.2.4,120.10006737610905,
,,,,1,0,1,0,28,0,28,0,,,,,,,,,,,,,,,,,,,,,,,,,,,,,,,,,,,,,,,,,,,,,,28,10.0,f,028_y_f_s_a.jpg,sad,a,2,2,460.09944370000017,460.39535718,460.4175965000002,460.4328184799999,460.4331279999999,460.4715088800001,460.47249620000025,461.38717918,d,0,0.9004304000000047,900.4304000000047,460.47249620000025,461.38717918,461.39468379999994,462.47030728000004,,,EmoCon002,2020_Dec_09_1707,EmoCon_Pilot_120Hz,2020.2.4,120.10006737610905,
,,,,1,0,1,0,29,0,29,0,,,,,,,,,,,,,,,,,,,,,,,,,,,,,,,,,,,,,,,,,,,,,,29,5.0,m,027_o_m_h_a.jpg,happy,d,17,2,462.47348579999993,462.77033478,462.9809404,463.14444867999987,463.14919940000004,463.18919828,463.19436010000004,463.71316877999993,d,1,0.5063968999997996,506.39689999979964,463.19436010000004,463.71316877999993,463.7256708000002,465.0204197800001,,,EmoCon002,2020_Dec_09_1707,EmoCon_Pilot_120Hz,2020.2.4,120.10006737610905,
,,,,1,0,1,0,30,0,30,0,,,,,,,,,,,,,,,,,,,,,,,,,,,,,,,,,,,,,,,,,,,,,,30,10.0,f,028_y_f_h_a.jpg,happy,d,17,2,465.0259411999998,465.32049698000014,465.34431530000006,465.4804080800002,465.4837493000002,465.52353598000013,465.5281984999999,465.89654197999994,d,1,0.35660680000000866,356.60680000000866,465.5281984999999,465.89654197999994,465.90928670000017,467.7872432800002,,,EmoCon002,2020_Dec_09_1707,EmoCon_Pilot_120Hz,2020.2.4,120.10006737610905,
,,,,1,0,1,0,31,0,31,0,,,,,,,,,,,,,,,,,,,,,,,,,,,,,,,,,,,,,,,,,,,,,,31,5.0,m,027_o_m_h_a.jpg,happy,d,17,2,467.7929958000002,468.08719748,468.3029322,468.4615272799999,468.46627220000005,468.50625718000015,468.51147939999987,468.8377431800002,d,1,0.31727090000003955,317.27090000003955,468.51147939999987,468.8377431800002,468.85047850000024,470.33727527999986,,,EmoCon002,2020_Dec_09_1707,EmoCon_Pilot_120Hz,2020.2.4,120.10006737610905,
,,,,1,0,1,0,32,0,32,0,,,,,,,,,,,,,,,,,,,,,,,,,,,,,,,,,,,,,,,,,,,,,,32,9.0,f,021_o_f_n_a.jpg,neutral,s,17,2,470.3428391,470.63720388000024,470.8480314000001,471.01072197999997,471.0140322999998,471.05201108000006,471.0561009999999,471.6353129800002,s,1,0.5646725999999944,564.6725999999944,471.0561009999999,471.6353129800002,471.64500639999983,472.9289842800001,,,EmoCon002,2020_Dec_09_1707,EmoCon_Pilot_120Hz,2020.2.4,120.10006737610905,
,,,,1,0,1,0,33,0,33,0,,,,,,,,,,,,,,,,,,,,,,,,,,,,,,,,,,,,,,,,,,,,,,33,3.0,m,013_y_m_s_a.jpg,sad,a,2,2,472.9343741,473.2288713800001,473.2547357000001,473.2705868800001,473.2709622,473.3056484800002,473.3057151999999,474.1297950800001,d,0,0.8109713000003467,810.9713000003467,473.3057151999999,474.1297950800001,474.1363638999999,475.99568748000024,,,EmoCon002,2020_Dec_09_1707,EmoCon_Pilot_120Hz,2020.2.4,120.10006737610905,
,,,,1,0,1,0,34,0,34,0,,,,,,,,,,,,,,,,,,,,,,,,,,,,,,,,,,,,,,,,,,,,,,34,1.0,m,004_o_m_n_a.jpg,neutral,s,17,2,475.9999906999999,476.29568698000026,476.50452629999995,476.6604313800001,476.66402730000004,476.70133027999987,476.7055492000002,477.2112574800001,s,1,0.4912192000001596,491.2192000001596,476.7055492000002,477.2112574800001,477.223714,478.33727578,,,EmoCon002,2020_Dec_09_1707,EmoCon_Pilot_120Hz,2020.2.4,120.10006737610905,
,,,,1,0,1,0,35,0,35,0,,,,,,,,,,,,,,,,,,,,,,,,,,,,,,,,,,,,,,,,,,,,,,35,12.0,f,040_y_f_h_a.jpg,happy,d,17,2,478.3413791999999,478.63737147999996,478.65849570000023,478.78894558000025,478.7923727,478.8303132799999,478.8334837,479.5476559800002,d,1,0.6993102999999792,699.3102999999792,478.8334837,479.5476559800002,479.5540072000001,480.62080618000005,,,EmoCon002,2020_Dec_09_1707,EmoCon_Pilot_120Hz,2020.2.4,120.10006737610905,
,,,,1,0,1,0,36,0,36,0,,,,,,,,,,,,,,,,,,,,,,,,,,,,,,,,,,,,,,,,,,,,,,36,10.0,f,028_y_f_n_a.jpg,neutral,s,17,2,480.6265506000002,480.9208234800001,481.1271158000002,481.2920010800001,481.2959241000001,481.3358429799998,481.3409462000002,481.89308048,s,1,0.5437825000003613,543.7825000003613,481.3409462000002,481.89308048,481.90160149999997,483.4124847800001,,,EmoCon002,2020_Dec_09_1707,EmoCon_Pilot_120Hz,2020.2.4,120.10006737610905,
,,,,1,0,1,0,37,0,37,0,,,,,,,,,,,,,,,,,,,,,,,,,,,,,,,,,,,,,,,,,,,,,,37,11.0,f,030_o_f_n_a.jpg,neutral,s,2,2,483.41861989999984,483.7125432800001,483.92072470000016,483.93781728,483.9414279,483.98098928000013,483.98616860000016,484.66991858000006,d,0,0.6669394000000466,666.9394000000466,483.98616860000016,484.66991858000006,484.6814826000002,486.5124733800001,,,EmoCon002,2020_Dec_09_1707,EmoCon_Pilot_120Hz,2020.2.4,120.10006737610905,
,,,,1,0,1,0,38,0,38,0,,,,,,,,,,,,,,,,,,,,,,,,,,,,,,,,,,,,,,,,,,,,,,38,1.0,m,004_o_m_h_a.jpg,happy,d,17,2,486.5155523000001,486.8124782799998,487.0144579999999,487.18190548000007,487.1864942999998,487.22766818000014,487.23264270000004,487.7648632799999,d,1,0.5162881000001107,516.2881000001107,487.23264270000004,487.7648632799999,487.7727247,489.14589697999986,,,EmoCon002,2020_Dec_09_1707,EmoCon_Pilot_120Hz,2020.2.4,120.10006737610905,
,,,,1,0,1,0,39,0,39,0,,,,,,,,,,,,,,,,,,,,,,,,,,,,,,,,,,,,,,,,,,,,,,39,6.0,m,033_o_m_h_a.jpg,happy,d,17,2,489.1519489,489.44587007999985,489.46712760000014,489.59744897999985,489.6021997,489.6410693800001,489.64551640000013,490.0327107800001,d,1,0.37533010000015565,375.33010000015565,489.64551640000013,490.0327107800001,490.04446239999993,491.5208573799998,,,EmoCon002,2020_Dec_09_1707,EmoCon_Pilot_120Hz,2020.2.4,120.10006737610905,
,,,,1,0,1,0,40,0,40,0,,,,,,,,,,,,,,,,,,,,,,,,,,,,,,,,,,,,,,,,,,,,,,40,7.0,f,012_o_f_h_a.jpg,happy,d,2,2,491.5247793000001,491.82087818000014,491.84210259999986,491.85771278000016,491.8584883000001,491.89423188000023,491.8946305000002,492.43937647999996,d,1,0.5341640999999981,534.1640999999981,491.8946305000002,492.43937647999996,492.4491172999999,493.49584568000023,,,EmoCon002,2020_Dec_09_1707,EmoCon_Pilot_120Hz,2020.2.4,120.10006737610905,
,,,,1,0,1,0,41,0,41,0,,,,,,,,,,,,,,,,,,,,,,,,,,,,,,,,,,,,,,,,,,,,,,41,6.0,m,033_o_m_n_a.jpg,neutral,s,2,2,493.49883449999993,493.7959572799998,493.99181090000025,494.00933667999993,494.0102291999999,494.0472494799999,494.0472053000001,494.6954014800001,s,1,0.6376906999998937,637.6906999998937,494.0472053000001,494.6954014800001,494.7046567,496.0543129800001,,,EmoCon002,2020_Dec_09_1707,EmoCon_Pilot_120Hz,2020.2.4,120.10006737610905,
,,,,1,0,1,0,42,0,42,0,,,,,,,,,,,,,,,,,,,,,,,,,,,,,,,,,,,,,,,,,,,,,,42,7.0,f,012_o_f_h_a.jpg,happy,d,17,2,496.05743480000024,496.35433627999987,496.37638159999983,496.51433138000016,496.51693409999984,496.5555589799999,496.55762340000024,497.0203452799999,d,1,0.4471350999997412,447.1350999997412,496.55762340000024,497.0203452799999,497.02878339999984,498.62095748000024,,,EmoCon002,2020_Dec_09_1707,EmoCon_Pilot_120Hz,2020.2.4,120.10006737610905,
,,,,1,0,1,0,43,0,43,0,,,,,,,,,,,,,,,,,,,,,,,,,,,,,,,,,,,,,,,,,,,,,,43,5.0,m,027_o_m_h_a.jpg,happy,d,17,2,498.62395870000023,498.9209604800001,499.1343202999999,499.29532668000024,499.3000436,499.34076818000017,499.34585870000024,499.62214247999987,d,1,0.2589655000001585,258.9655000001585,499.34585870000024,499.62214247999987,499.6317425999998,500.63783137999985,,,EmoCon002,2020_Dec_09_1707,EmoCon_Pilot_120Hz,2020.2.4,120.10006737610905,
,,,,1,0,1,0,44,0,44,0,,,,,,,,,,,,,,,,,,,,,,,,,,,,,,,,,,,,,,,,,,,,,,44,10.0,f,028_y_f_s_a.jpg,sad,a,17,2,500.64171090000013,500.9378323799999,500.96013590000007,501.09771078000017,501.0994991,501.13900708000006,501.1419926000001,501.53394977999983,s,0,0.38269039999977394,382.69039999977394,501.1419926000001,501.53394977999983,501.54212859999984,503.41282897999986,,,EmoCon002,2020_Dec_09_1707,EmoCon_Pilot_120Hz,2020.2.4,120.10006737610905,
,,,,1,0,1,0,45,0,45,0,,,,,,,,,,,,,,,,,,,,,,,,,,,,,,,,,,,,,,,,,,,,,,45,7.0,f,012_o_f_n_a.jpg,neutral,s,17,2,503.41577329999996,503.7128287799999,503.9296987,504.09196378,504.0964394,504.13712427999985,504.14229409999984,504.67975248000016,s,1,0.526338300000134,526.338300000134,504.14229409999984,504.67975248000016,504.6849577999999,506.08791738000014,,,EmoCon002,2020_Dec_09_1707,EmoCon_Pilot_120Hz,2020.2.4,120.10006737610905,
,,,,1,0,1,0,46,0,46,0,,,,,,,,,,,,,,,,,,,,,,,,,,,,,,,,,,,,,,,,,,,,,,46,1.0,m,004_o_m_n_a.jpg,neutral,s,17,2,506.09190319999993,506.38783537999984,506.57557580000025,506.73563328000023,506.7404727999999,506.7814921800002,506.7865078000002,507.2646675799999,s,1,0.4662689000001592,466.2689000001592,506.7865078000002,507.2646675799999,507.27610770000024,508.4129463800002,,,EmoCon002,2020_Dec_09_1707,EmoCon_Pilot_120Hz,2020.2.4,120.10006737610905,
,,,,1,0,1,0,47,0,47,0,,,,,,,,,,,,,,,,,,,,,,,,,,,,,,,,,,,,,,,,,,,,,,47,9.0,f,021_o_f_h_a.jpg,happy,d,2,2,508.41576580000014,508.71281467999984,508.92186370000013,508.9390786800002,508.9393757,508.9746120799998,508.9744346,509.78058308000004,d,1,0.7981557999996767,798.1557999996767,508.9744346,509.78058308000004,509.7880779999998,511.24633668,,,EmoCon002,2020_Dec_09_1707,EmoCon_Pilot_120Hz,2020.2.4,120.10006737610905,
,,,,1,0,1,0,48,0,48,0,,,,,,,,,,,,,,,,,,,,,,,,,,,,,,,,,,,,,,,,,,,,,,48,10.0,f,028_y_f_n_a.jpg,neutral,s,2,2,511.2493938,511.54632258000015,511.74109310000017,511.75796758,511.75838980000003,511.7934820799999,511.7940701,512.5633814800001,s,1,0.7626408000000993,762.6408000000993,511.7940701,512.5633814800001,512.5707746999999,514.5297115800001,,,EmoCon002,2020_Dec_09_1707,EmoCon_Pilot_120Hz,2020.2.4,120.10006737610905,
,,,,1,0,1,0,49,0,49,0,,,,,,,,,,,,,,,,,,,,,,,,,,,,,,,,,,,,,,,,,,,,,,49,7.0,f,012_o_f_h_a.jpg,happy,d,2,2,514.532602,514.8297076800002,514.8518925000001,514.8675614800002,514.8682962999999,514.90593208,514.9072361000001,515.7320239799999,d,1,0.8174085999999079,817.4085999999079,514.9072361000001,515.7320239799999,515.7406816999999,516.91297298,,,EmoCon002,2020_Dec_09_1707,EmoCon_Pilot_120Hz,2020.2.4,120.10006737610905,
,,,,1,0,1,0,50,0,50,0,,,,,,,,,,,,,,,,,,,,,,,,,,,,,,,,,,,,,,,,,,,,,,50,5.0,m,027_o_m_h_a.jpg,happy,d,2,2,516.9156624999998,517.2130462799998,517.4264283999998,517.44302408,517.4437851999999,517.48099918,517.4809257,518.0800385800001,d,1,0.5876726999999846,587.6726999999846,517.4809257,518.0800385800001,518.0862448,519.5131879799999,,,EmoCon002,2020_Dec_09_1707,EmoCon_Pilot_120Hz,2020.2.4,120.10006737610905,
,,,,1,0,1,0,51,0,51,0,,,,,,,,,,,,,,,,,,,,,,,,,,,,,,,,,,,,,,,,,,,,,,51,12.0,f,040_y_f_n_a.jpg,neutral,s,2,2,519.5162867000001,519.81320028,520.0277606000002,520.04413168,520.0448312000001,520.08097238,520.0810818000002,520.9321660799999,d,0,0.8357014999996863,835.7014999996863,520.0810818000002,520.9321660799999,520.9404319000002,521.9466181800001,,,EmoCon002,2020_Dec_09_1707,EmoCon_Pilot_120Hz,2020.2.4,120.10006737610905,
,,,,1,0,1,0,52,0,52,0,,,,,,,,,,,,,,,,,,,,,,,,,,,,,,,,,,,,,,,,,,,,,,52,2.0,m,008_y_m_h_a.jpg,happy,d,17,2,521.9521894000002,522.2465998800001,522.2704606999998,522.40654978,522.4100845999999,522.4510706799999,522.4556593,522.82201448,d,1,0.3571955999996135,357.1955999996135,522.4556593,522.82201448,522.8336341000002,523.9049609800002,,,EmoCon002,2020_Dec_09_1707,EmoCon_Pilot_120Hz,2020.2.4,120.10006737610905,
,,,,1,0,1,0,53,0,53,0,,,,,,,,,,,,,,,,,,,,,,,,,,,,,,,,,,,,,,,,,,,,,,53,6.0,m,033_o_m_h_a.jpg,happy,d,17,2,523.9092615000002,524.20487488,524.2238457000001,524.3566028799999,524.3597659,524.3989950799998,524.4041178999998,524.7096248800001,d,1,0.296604600000137,296.604600000137,524.4041178999998,524.7096248800001,524.7214396000002,526.55500018,,,EmoCon002,2020_Dec_09_1707,EmoCon_Pilot_120Hz,2020.2.4,120.10006737610905,
,,,,1,0,1,0,54,0,54,0,,,,,,,,,,,,,,,,,,,,,,,,,,,,,,,,,,,,,,,,,,,,,,54,2.0,m,008_y_m_h_a.jpg,happy,d,17,2,526.5579160999998,526.8549619799999,526.8733086,527.0066269800002,527.0098240999998,527.04782288,527.0514507,527.3635283800002,d,1,0.29732530000001134,297.32530000001134,527.0514507,527.3635283800002,527.3699884999999,528.7716382800002,,,EmoCon002,2020_Dec_09_1707,EmoCon_Pilot_120Hz,2020.2.4,120.10006737610905,
,,,,1,0,1,0,55,0,55,0,,,,,,,,,,,,,,,,,,,,,,,,,,,,,,,,,,,,,,,,,,,,,,55,12.0,f,040_y_f_h_a.jpg,happy,d,17,2,528.7749513000001,529.0717331799999,529.0974365,529.2318437800002,529.2354025000002,529.2743751800001,529.2795060000001,529.5820184800002,d,1,0.2930634999997892,293.0634999997892,529.2795060000001,529.5820184800002,529.5886951999998,530.7383424800003,,,EmoCon002,2020_Dec_09_1707,EmoCon_Pilot_120Hz,2020.2.4,120.10006737610905,
,,,,1,0,1,0,56,0,56,0,,,,,,,,,,,,,,,,,,,,,,,,,,,,,,,,,,,,,,,,,,,,,,56,10.0,f,028_y_f_n_a.jpg,neutral,s,17,2,530.7436220000002,531.03836458,531.2528479999999,531.4133874800002,531.4184054,531.4588234800001,531.4641665000001,531.8212168799998,s,1,0.3406262000003153,340.6262000003153,531.4641665000001,531.8212168799998,531.8287312,533.7800927800001,,,EmoCon002,2020_Dec_09_1707,EmoCon_Pilot_120Hz,2020.2.4,120.10006737610905,
,,,,1,0,1,0,57,0,57,0,,,,,,,,,,,,,,,,,,,,,,,,,,,,,,,,,,,,,,,,,,,,,,57,12.0,f,040_y_f_s_a.jpg,sad,a,17,2,533.7855287999998,534.0801120799999,534.1010552999999,534.2317645800001,534.2345539,534.2729860800002,534.2758176,534.7804373800002,a,1,0.4966887999999017,496.6887999999017,534.2758176,534.7804373800002,534.7851741000002,536.3219231800001,,,EmoCon002,2020_Dec_09_1707,EmoCon_Pilot_120Hz,2020.2.4,120.10006737610905,
,,,,1,0,1,0,58,0,58,0,,,,,,,,,,,,,,,,,,,,,,,,,,,,,,,,,,,,,,,,,,,,,,58,5.0,m,027_o_m_n_a.jpg,neutral,s,2,2,536.3271568000002,536.6219053799998,536.835378,536.8519934799999,536.8519609000002,536.88967368,536.8896551999999,538.1714864799999,s,1,1.266998699999931,1266.998699999931,536.8896551999999,538.1714864799999,538.1779380999999,540.16359708,,,EmoCon002,2020_Dec_09_1707,EmoCon_Pilot_120Hz,2020.2.4,120.10006737610905,
,,,,1,0,1,0,59,0,59,0,,,,,,,,,,,,,,,,,,,,,,,,,,,,,,,,,,,,,,,,,,,,,,59,4.0,m,016_y_m_s_a.jpg,sad,a,2,2,540.1707613000001,540.46355758,540.4851901,540.5008709800002,540.5018016000001,540.5397559800001,540.5411729,542.0800523800001,s,0,1.5275297000002865,1527.5297000002865,540.5411729,542.0800523800001,542.0885685999999,543.73024448,,,EmoCon002,2020_Dec_09_1707,EmoCon_Pilot_120Hz,2020.2.4,120.10006737610905,
,,,,1,0,1,0,60,0,60,0,,,,,,,,,,,,,,,,,,,,,,,,,,,,,,,,,,,,,,,,,,,,,,60,5.0,m,027_o_m_n_a.jpg,neutral,s,17,2,543.7346264,544.03027688,544.2414256,544.3988050800001,544.4024691000002,544.4398148799999,544.4430026000002,544.9895907799998,s,1,0.5376780000001418,537.6780000001418,544.4430026000002,544.9895907799998,544.9992771999998,546.5552299799999,,,EmoCon002,2020_Dec_09_1707,EmoCon_Pilot_120Hz,2020.2.4,120.10006737610905,
,,,,1,0,1,0,61,0,61,0,,,,,,,,,,,,,,,,,,,,,,,,,,,,,,,,,,,,,,,,,,,,,,61,10.0,f,028_y_f_s_a.jpg,sad,a,2,2,546.5583165,546.85522328,546.8745799999999,546.88965828,546.891159,546.9272962799998,546.9287123000001,547.82452068,a,1,0.8839497999997548,883.9497999997548,546.9287123000001,547.82452068,547.8358784,549.3970571799998,,,EmoCon002,2020_Dec_09_1707,EmoCon_Pilot_120Hz,2020.2.4,120.10006737610905,
,,,,1,0,1,0,62,0,62,0,,,,,,,,,,,,,,,,,,,,,,,,,,,,,,,,,,,,,,,,,,,,,,62,3.0,m,013_y_m_n_a.jpg,neutral,s,17,2,549.4001666000001,549.69704058,549.9360542000002,550.0957450799999,550.1004971,550.1404368800002,550.1455966000001,550.6133320800002,s,1,0.4593329999997877,459.3329999997877,550.1455966000001,550.6133320800002,550.6227388999998,551.7719880800003,,,EmoCon002,2020_Dec_09_1707,EmoCon_Pilot_120Hz,2020.2.4,120.10006737610905,
,,,,1,0,1,0,63,0,63,0,,,,,,,,,,,,,,,,,,,,,,,,,,,,,,,,,,,,,,,,,,,,,,63,4.0,m,016_y_m_s_a.jpg,sad,a,17,2,551.7749228,552.07205688,552.0927432000001,552.2236604800003,552.2257362000003,552.26489758,552.2682041,553.3570892800001,a,1,1.0725862999997844,1072.5862999997844,552.2682041,553.3570892800001,553.3649404,554.49716418,,,EmoCon002,2020_Dec_09_1707,EmoCon_Pilot_120Hz,2020.2.4,120.10006737610905,
,,,,1,0,1,0,64,0,64,0,,,,,,,,,,,,,,,,,,,,,,,,,,,,,,,,,,,,,,,,,,,,,,64,12.0,f,040_y_f_h_a.jpg,happy,d,2,2,554.5000585999999,554.7972341800003,554.8198236999999,554.83559468,554.8365523999998,554.87330068,554.8732348999999,555.61782208,s,0,0.731354100000317,731.354100000317,554.8732348999999,555.61782208,555.6243674,557.0055723799999,,,EmoCon002,2020_Dec_09_1707,EmoCon_Pilot_120Hz,2020.2.4,120.10006737610905,
,,,,1,0,1,0,65,0,65,0,,,,,,,,,,,,,,,,,,,,,,,,,,,,,,,,,,,,,,,,,,,,,,65,5.0,m,027_o_m_n_a.jpg,neutral,s,17,2,557.0095445,557.30558408,557.5670919000002,557.7365457799999,557.7403637999998,557.78144598,557.7864050000001,558.20415428,s,1,0.4023385000000417,402.3385000000417,557.7864050000001,558.20415428,558.2154982999998,559.8805428799999,,,EmoCon002,2020_Dec_09_1707,EmoCon_Pilot_120Hz,2020.2.4,120.10006737610905,
,,,,1,0,1,0,66,0,66,0,,,,,,,,,,,,,,,,,,,,,,,,,,,,,,,,,,,,,,,,,,,,,,66,6.0,m,033_o_m_s_a.jpg,sad,a,17,2,559.8808486999999,560.1805601799999,560.1901386000002,560.32934318,560.3336732999999,560.37481908,560.3799679000001,561.0437266800002,a,1,0.6487067999996725,648.7067999996725,560.3799679000001,561.0437266800002,561.0502021,562.4389987800002,,,EmoCon002,2020_Dec_09_1707,EmoCon_Pilot_120Hz,2020.2.4,120.10006737610905,
,,,,1,0,1,0,67,0,67,0,,,,,,,,,,,,,,,,,,,,,,,,,,,,,,,,,,,,,,,,,,,,,,67,6.0,m,033_o_m_h_a.jpg,happy,d,2,2,562.4442159000002,562.7389245800002,562.7594130999998,562.77554708,562.7765502,562.8131126800001,562.8145545,563.9277964800001,d,1,1.1021236000001409,1102.1236000001409,562.8145545,563.9277964800001,563.9363034999999,565.3223407799999,,,EmoCon002,2020_Dec_09_1707,EmoCon_Pilot_120Hz,2020.2.4,120.10006737610905,
,,,,1,0,1,0,68,0,68,0,,,,,,,,,,,,,,,,,,,,,,,,,,,,,,,,,,,,,,,,,,,,,,68,2.0,m,008_y_m_s_a.jpg,sad,a,17,2,565.3262900000002,565.6223811799998,565.8711495999999,566.0379115799999,566.0428969000002,566.0827933799999,566.0876660000001,566.8721014800001,a,1,0.7729840999995758,772.9840999995758,566.0876660000001,566.8721014800001,566.8835841000002,568.5224669800002,,,EmoCon002,2020_Dec_09_1707,EmoCon_Pilot_120Hz,2020.2.4,120.10006737610905,
,,,,1,0,1,0,69,0,69,0,,,,,,,,,,,,,,,,,,,,,,,,,,,,,,,,,,,,,,,,,,,,,,69,1.0,m,004_o_m_n_a.jpg,neutral,s,2,2,568.5254619999998,568.8225139799999,569.0192328,569.0369728799999,569.0401213000002,569.0774428800003,569.0802909000001,570.1716968799999,s,1,1.0763354999999137,1076.3354999999137,569.0802909000001,570.1716968799999,570.1784374000001,571.8058511800002,,,EmoCon002,2020_Dec_09_1707,EmoCon_Pilot_120Hz,2020.2.4,120.10006737610905,
,,,,1,0,1,0,70,0,70,0,,,,,,,,,,,,,,,,,,,,,,,,,,,,,,,,,,,,,,,,,,,,,,70,2.0,m,008_y_m_s_a.jpg,sad,a,17,2,571.8062401,572.10579368,572.3322329999999,572.4832087799998,572.4879828,572.5288172799999,572.5329712999999,572.9395812800001,a,1,0.3997351000002709,399.7351000002709,572.5329712999999,572.9395812800001,572.9511494999999,574.4059018800001,,,EmoCon002,2020_Dec_09_1707,EmoCon_Pilot_120Hz,2020.2.4,120.10006737610905,
,,,,1,0,1,0,71,0,71,0,,,,,,,,,,,,,,,,,,,,,,,,,,,,,,,,,,,,,,,,,,,,,,71,11.0,f,030_o_f_n_a.jpg,neutral,s,17,2,574.4098901999998,574.7058783800001,574.9010228,575.05876848,575.0633315000002,575.10439118,575.1093366000002,575.5486025799999,s,1,0.4315350000001672,431.5350000001672,575.1093366000002,575.5486025799999,575.5593936000002,577.46434638,,,EmoCon002,2020_Dec_09_1707,EmoCon_Pilot_120Hz,2020.2.4,120.10006737610905,
,,,,1,0,1,0,72,0,72,0,,,,,,,,,,,,,,,,,,,,,,,,,,,,,,,,,,,,,,,,,,,,,,72,11.0,f,030_o_f_n_a.jpg,neutral,s,2,2,577.4685572000001,577.76432348,577.9671635000002,577.9848281800002,577.9855840000002,578.0216338799999,578.0217046999999,578.7074416799999,d,0,0.6709362999999939,670.9362999999939,578.0217046999999,578.7074416799999,578.7131390000002,579.7643814800001,,,EmoCon002,2020_Dec_09_1707,EmoCon_Pilot_120Hz,2020.2.4,120.10006737610905,
,,,,1,0,1,0,73,0,73,0,,,,,,,,,,,,,,,,,,,,,,,,,,,,,,,,,,,,,,,,,,,,,,73,2.0,m,008_y_m_s_a.jpg,sad,a,2,2,579.7685245999999,580.06425298,580.2947199000002,580.31135888,580.311492,580.3488475800002,580.3502237,581.0921029799999,a,1,0.7343605000000935,734.3605000000935,580.3502237,581.0921029799999,581.0997596999998,582.8309452800002,,,EmoCon002,2020_Dec_09_1707,EmoCon_Pilot_120Hz,2020.2.4,120.10006737610905,
,,,,1,0,1,0,74,0,74,0,,,,,,,,,,,,,,,,,,,,,,,,,,,,,,,,,,,,,,,,,,,,,,74,11.0,f,030_o_f_n_a.jpg,neutral,s,17,2,582.8340500000002,583.1309443799998,583.3297272000002,583.49777728,583.5022756000001,583.54371178,583.5479370999999,583.9867645800002,s,1,0.42486159999998563,424.86159999998563,583.5479370999999,583.9867645800002,583.9983656000002,585.2227770800002,,,EmoCon002,2020_Dec_09_1707,EmoCon_Pilot_120Hz,2020.2.4,120.10006737610905,
,,,,1,0,1,0,75,0,75,0,,,,,,,,,,,,,,,,,,,,,,,,,,,,,,,,,,,,,,,,,,,,,,75,1.0,m,004_o_m_s_a.jpg,sad,a,2,2,585.2281232000003,585.5229184799998,585.5435801000001,585.5592653800002,585.5599976999999,585.5945466800001,585.5945942000001,586.5639468800002,a,1,0.9540950000000521,954.0950000000521,585.5945942000001,586.5639468800002,586.5707765999998,588.3227253799998,,,EmoCon002,2020_Dec_09_1707,EmoCon_Pilot_120Hz,2020.2.4,120.10006737610905,
,,,,1,0,1,0,76,0,76,0,,,,,,,,,,,,,,,,,,,,,,,,,,,,,,,,,,,,,,,,,,,,,,76,3.0,m,013_y_m_n_a.jpg,neutral,s,17,2,588.3251622,588.6227209800002,588.8504872000001,589.00601618,589.0110502999999,589.0521937800002,589.0575107000002,589.4946766800001,s,1,0.42714139999998224,427.14139999998224,589.0575107000002,589.4946766800001,589.4967711000002,590.8479488800001,,,EmoCon002,2020_Dec_09_1707,EmoCon_Pilot_120Hz,2020.2.4,120.10006737610905,
,,,,1,0,1,0,77,0,77,0,,,,,,,,,,,,,,,,,,,,,,,,,,,,,,,,,,,,,,,,,,,,,,77,7.0,f,012_o_f_s_a.jpg,sad,a,2,2,590.8536854000001,591.1478874800002,591.1731571000003,591.1882992799999,591.1892451000001,591.22463318,591.2249049999998,592.5779316800001,d,0,1.3396586999997453,1339.6586999997453,591.2249049999998,592.5779316800001,592.5846585000002,594.1146436800002,,,EmoCon002,2020_Dec_09_1707,EmoCon_Pilot_120Hz,2020.2.4,120.10006737610905,
,,,,1,0,1,0,78,0,78,0,,,,,,,,,,,,,,,,,,,,,,,,,,,,,,,,,,,,,,,,,,,,,,78,12.0,f,040_y_f_n_a.jpg,neutral,s,17,2,594.1177068,594.41464028,594.6342391999999,594.7953343800002,594.8004245999998,594.8411622800002,594.8464437,595.2354218799999,s,1,0.38227939999978844,382.27939999978844,594.8464437,595.2354218799999,595.2472418999998,596.8562904799999,,,EmoCon002,2020_Dec_09_1707,EmoCon_Pilot_120Hz,2020.2.4,120.10006737610905,
,,,,1,0,1,0,79,0,79,0,,,,,,,,,,,,,,,,,,,,,,,,,,,,,,,,,,,,,,,,,,,,,,79,6.0,m,033_o_m_h_a.jpg,happy,d,17,2,596.8604727,597.1563085800001,597.1778123000001,597.3079921800002,597.3110666999999,597.3491531800003,597.3491940000001,598.04913018,d,1,0.6873507000000245,687.3507000000245,597.3491940000001,598.04913018,598.0537729999999,599.8480351800001,,,EmoCon002,2020_Dec_09_1707,EmoCon_Pilot_120Hz,2020.2.4,120.10006737610905,
,,,,1,0,1,0,80,0,80,0,,,,,,,,,,,,,,,,,,,,,,,,,,,,,,,,,,,,,,,,,,,,,,80,2.0,m,008_y_m_n_a.jpg,neutral,s,17,2,599.8512152000001,600.1480591800002,600.3875538,600.54563738,600.5500921,600.5879846800001,600.5920395,601.5371459800001,s,1,0.9328556999998909,932.8556999998909,600.5920395,601.5371459800001,601.5495631000001,602.9314602800002,,,EmoCon002,2020_Dec_09_1707,EmoCon_Pilot_120Hz,2020.2.4,120.10006737610905,
,,,,1,0,1,0,81,0,81,0,,,,,,,,,,,,,,,,,,,,,,,,,,,,,,,,,,,,,,,,,,,,,,81,12.0,f,040_y_f_h_a.jpg,happy,d,2,2,602.9348206000002,603.23143688,603.2512076999999,603.2666759800002,603.2671440000001,603.3013097800001,603.3011721,603.94216278,d,1,0.6237237000000277,623.7237000000277,603.3011721,603.94216278,603.9534494000002,605.76481438,,,EmoCon002,2020_Dec_09_1707,EmoCon_Pilot_120Hz,2020.2.4,120.10006737610905,
,,,,1,0,1,0,82,0,82,0,,,,,,,,,,,,,,,,,,,,,,,,,,,,,,,,,,,,,,,,,,,,,,82,9.0,f,021_o_f_h_a.jpg,happy,d,2,2,605.7687598999998,606.0648136799998,606.2806429999998,606.2978777800001,606.2984174000001,606.33345708,606.3329971999999,607.3543296800001,d,1,1.0081612000003588,1008.1612000003588,606.3329971999999,607.3543296800001,607.3641402999999,608.7315837799999,,,EmoCon002,2020_Dec_09_1707,EmoCon_Pilot_120Hz,2020.2.4,120.10006737610905,
,,,,1,0,1,0,83,0,83,0,,,,,,,,,,,,,,,,,,,,,,,,,,,,,,,,,,,,,,,,,,,,,,83,6.0,m,033_o_m_h_a.jpg,happy,d,2,2,608.7346109000002,609.0316293799999,609.0508637999999,609.0666354799998,609.0680012999999,609.1037890800001,609.1038016,609.6992424799998,d,1,0.5808524000003672,580.8524000003672,609.1038016,609.6992424799998,609.7051528,610.9649138799998,,,EmoCon002,2020_Dec_09_1707,EmoCon_Pilot_120Hz,2020.2.4,120.10006737610905,
,,,,1,0,1,0,84,0,84,0,,,,,,,,,,,,,,,,,,,,,,,,,,,,,,,,,,,,,,,,,,,,,,84,2.0,m,008_y_m_n_a.jpg,neutral,s,2,2,610.9704082999999,611.2650579799999,611.6264773,611.64360968,611.6440266000002,611.6798662799999,611.6798967000002,612.5734508799999,s,1,0.8847654000001057,884.7654000001057,611.6798967000002,612.5734508799999,612.5842804000001,614.5317330800001,,,EmoCon002,2020_Dec_09_1707,EmoCon_Pilot_120Hz,2020.2.4,120.10006737610905,
,,,,1,0,1,0,85,0,85,0,,,,,,,,,,,,,,,,,,,,,,,,,,,,,,,,,,,,,,,,,,,,,,85,10.0,f,028_y_f_n_a.jpg,neutral,s,17,2,614.5355910999999,614.83173508,615.0305432000002,615.1860369799999,615.1908678000002,615.2323450800002,615.2373918000001,616.3980002800001,s,1,1.151426100000208,1151.426100000208,615.2373918000001,616.3980002800001,616.4067811000002,618.2150557799998,,,EmoCon002,2020_Dec_09_1707,EmoCon_Pilot_120Hz,2020.2.4,120.10006737610905,
,,,,1,0,1,0,86,0,86,0,,,,,,,,,,,,,,,,,,,,,,,,,,,,,,,,,,,,,,,,,,,,,,86,6.0,m,033_o_m_h_a.jpg,happy,d,17,2,618.219151,618.5150728800002,618.5359381000001,618.66684048,618.6717304000001,618.71209058,618.7162068999999,619.0481148800002,d,1,0.3203696000000491,320.3696000000491,618.7162068999999,619.0481148800002,619.0592100000001,620.7234252800001,,,EmoCon002,2020_Dec_09_1707,EmoCon_Pilot_120Hz,2020.2.4,120.10006737610905,
,,,,1,0,1,0,87,0,87,0,,,,,,,,,,,,,,,,,,,,,,,,,,,,,,,,,,,,,,,,,,,,,,87,5.0,m,027_o_m_s_a.jpg,sad,a,17,2,620.7276033999999,621.0235330799999,621.0449470000001,621.1751866800003,621.1771316000002,621.2164660800001,621.2183124999999,621.7765228800001,a,1,0.5461999999997715,546.1999999997715,621.2183124999999,621.7765228800001,621.7837794,623.0319003800003,,,EmoCon002,2020_Dec_09_1707,EmoCon_Pilot_120Hz,2020.2.4,120.10006737610905,
,,,,1,0,1,0,88,0,88,0,,,,,,,,,,,,,,,,,,,,,,,,,,,,,,,,,,,,,,,,,,,,,,88,7.0,f,012_o_f_s_a.jpg,sad,a,17,2,623.0359553999999,623.3319366799999,623.3543490999998,623.4918831799998,623.4954691,623.5346124800001,623.5390783,624.0192008800002,a,1,0.4735569999998006,473.5569999998006,623.5390783,624.0192008800002,624.0310089000002,625.89022378,,,EmoCon002,2020_Dec_09_1707,EmoCon_Pilot_120Hz,2020.2.4,120.10006737610905,
,,,,1,0,1,0,89,0,89,0,,,,,,,,,,,,,,,,,,,,,,,,,,,,,,,,,,,,,,,,,,,,,,89,2.0,m,008_y_m_h_a.jpg,happy,d,2,2,625.8933726000002,626.1902366800002,626.2048345999999,626.2195238800002,626.2202435000002,626.2581032800001,626.2591789999999,626.9597715799998,d,1,0.6895872999998574,689.5872999998574,626.2591789999999,626.9597715799998,626.9707065999999,628.6403101799999,,,EmoCon002,2020_Dec_09_1707,EmoCon_Pilot_120Hz,2020.2.4,120.10006737610905,
,,,,1,0,1,0,90,0,90,0,,,,,,,,,,,,,,,,,,,,,,,,,,,,,,,,,,,,,,,,,,,,,,90,7.0,f,012_o_f_h_a.jpg,happy,d,2,2,628.6457659,628.9403133799999,628.9636956000002,628.9794849799998,628.9803193999999,629.0163573799998,629.0164698000001,629.54116718,d,1,0.5161788999998862,516.1788999998862,629.0164698000001,629.54116718,629.5496995000001,630.71529618,,,EmoCon002,2020_Dec_09_1707,EmoCon_Pilot_120Hz,2020.2.4,120.10006737610905,
,,,,1,0,1,0,91,0,91,0,,,,,,,,,,,,,,,,,,,,,,,,,,,,,,,,,,,,,,,,,,,,,,91,10.0,f,028_y_f_s_a.jpg,sad,a,2,2,630.7193430999998,631.01538848,631.0376844,631.0524857799999,631.0535332000002,631.0914543800002,631.0926751999998,632.1062987799999,d,0,0.9998441000002458,999.8441000002458,631.0926751999998,632.1062987799999,632.1129739999999,633.6153847799999,,,EmoCon002,2020_Dec_09_1707,EmoCon_Pilot_120Hz,2020.2.4,120.10006737610905,
,,,,1,0,1,0,92,0,92,0,,,,,,,,,,,,,,,,,,,,,,,,,,,,,,,,,,,,,,,,,,,,,,92,12.0,f,040_y_f_s_a.jpg,sad,a,17,2,633.6182657000002,633.91545178,633.9309467,634.0670551800001,634.0699155,634.1105509800002,634.1140461000002,634.6483218800001,a,1,0.5227963000002092,522.7963000002092,634.1140461000002,634.6483218800001,634.6589339,636.0821498799999,,,EmoCon002,2020_Dec_09_1707,EmoCon_Pilot_120Hz,2020.2.4,120.10006737610905,
,,,,1,0,1,0,93,0,93,0,,,,,,,,,,,,,,,,,,,,,,,,,,,,,,,,,,,,,,,,,,,,,,93,2.0,m,008_y_m_n_a.jpg,neutral,s,17,2,636.0876473000001,636.38211058,636.6355280999999,636.7952315800001,636.7973247000002,636.83459178,636.8374726999998,637.51593088,s,1,0.6630927999999585,663.0927999999585,636.8374726999998,637.51593088,637.5218062000001,639.24045508,,,EmoCon002,2020_Dec_09_1707,EmoCon_Pilot_120Hz,2020.2.4,120.10006737610905,
,,,,1,0,1,0,94,0,94,0,,,,,,,,,,,,,,,,,,,,,,,,,,,,,,,,,,,,,,,,,,,,,,94,11.0,f,030_o_f_s_a.jpg,sad,a,2,2,639.2433452000002,639.5403551800002,639.7252491000002,639.7426164800002,639.7427393,639.7778758800002,639.7780958999999,640.6430959800002,s,0,0.8504421999996339,850.4421999996339,639.7780958999999,640.6430959800002,640.6509790000002,641.6904802800002,,,EmoCon002,2020_Dec_09_1707,EmoCon_Pilot_120Hz,2020.2.4,120.10006737610905,
,,,,1,0,1,0,95,0,95,0,,,,,,,,,,,,,,,,,,,,,,,,,,,,,,,,,,,,,,,,,,,,,,95,9.0,f,021_o_f_n_a.jpg,neutral,s,17,2,641.6935477999998,641.9906077799999,642.1928068999998,642.3623288800002,642.3672497,642.4081674800002,642.4135013000002,642.92354408,s,1,0.4951435000002675,495.1435000002675,642.4135013000002,642.92354408,642.9349909,644.39062648,,,EmoCon002,2020_Dec_09_1707,EmoCon_Pilot_120Hz,2020.2.4,120.10006737610905,
,,,,1,0,1,0,96,0,96,0,,,,,,,,,,,,,,,,,,,,,,,,,,,,,,,,,,,,,,,,,,,,,,96,6.0,m,033_o_m_h_a.jpg,happy,d,17,2,644.3946521999999,644.6905628800002,644.7118103999999,644.84222088,644.8455772,644.88346148,644.8871172000001,645.3836432800001,d,1,0.48543070000005173,485.43070000005173,644.8871172000001,645.3836432800001,645.3893667999998,647.2156949799999,,,EmoCon002,2020_Dec_09_1707,EmoCon_Pilot_120Hz,2020.2.4,120.10006737610905,
,,,,1,0,1,0,97,0,97,0,,,,,,,,,,,,,,,,,,,,,,,,,,,,,,,,,,,,,,,,,,,,,,97,3.0,m,013_y_m_s_a.jpg,sad,a,17,2,647.2197398999999,647.5156815799999,647.5360349,647.6676109799998,647.6723337000001,647.71299368,647.7180836,648.40773298,a,1,0.678617900000063,678.617900000063,647.7180836,648.40773298,648.4194295,649.4406527799999,,,EmoCon002,2020_Dec_09_1707,EmoCon_Pilot_120Hz,2020.2.4,120.10006737610905,
,,,,1,0,1,0,98,0,98,0,,,,,,,,,,,,,,,,,,,,,,,,,,,,,,,,,,,,,,,,,,,,,,98,12.0,f,040_y_f_s_a.jpg,sad,a,17,2,649.4447732000001,649.7407691800001,649.7643214000002,649.9007367800002,649.9042574000002,649.94316688,649.9483121000001,650.5685054799999,a,1,0.6082370999997693,608.2370999997693,649.9483121000001,650.5685054799999,650.575959,651.99914608,,,EmoCon002,2020_Dec_09_1707,EmoCon_Pilot_120Hz,2020.2.4,120.10006737610905,
,,,,1,0,1,0,99,0,99,0,,,,,,,,,,,,,,,,,,,,,,,,,,,,,,,,,,,,,,,,,,,,,,99,11.0,f,030_o_f_s_a.jpg,sad,a,17,2,652.0042563,652.2991164799998,652.5132077000001,652.6663707800001,652.6695833000001,652.70745328,652.7110968,653.3584651799999,a,1,0.6374811000000591,637.4811000000591,652.7110968,653.3584651799999,653.3675899000002,655.1325428799998,,,EmoCon002,2020_Dec_09_1707,EmoCon_Pilot_120Hz,2020.2.4,120.10006737610905,
