trials_example.thisRepN,trials_example.thisTrialN,trials_example.thisN,trials_example.thisIndex,block.thisRepN,block.thisTrialN,block.thisN,block.thisIndex,trials_study.thisRepN,trials_study.thisTrialN,trials_study.thisN,trials_study.thisIndex,text_welcome.started,text_welcome.stopped,text_intro.started,text_intro.stopped,key_resp_intro.keys,key_resp_intro.started,key_resp_intro.stopped,text_intro2.started,text_intro2.stopped,key_resp_intro2.keys,key_resp_intro2.rt,key_resp_intro2.started,key_resp_intro2.stopped,example trial,personPrimeExample,genderPrimeExample,primeExample,emotionPrimeExample,corrAnsPrimeExample,example mask time,fix300_example.started,fix300_example.stopped,image_primer_example.started,image_primer_example.stopped,scrambled.started,scrambled.stopped,text_response_example.started,text_response_example.stopped,key_resp_example.keys,key_resp_example.corr,key_resp_example.rt,key_resp_example.rt in ms,key_resp_example.started,key_resp_example.stopped,Jitter_example.started,Jitter_example.stopped,text_start.started,text_start.stopped,text_pause.started,text_pause.stopped,key_resp_pause.keys,key_resp_pause.rt,key_resp_pause.rt in ms,key_resp_pause.started,key_resp_pause.stopped,study trial,personPrimeStudy,genderPrimeStudy,primeStudy,emotionPrimeStudy,corrAnsPrimeStudy,study mask time,Block,fix300_study.started,fix300_study.stopped,image_primer_study.started,image_primer_study.stopped,scrambled_study.started,scrambled_study.stopped,text_response_study.started,text_response_study.stopped,key_resp_study.keys,key_resp_study.corr,key_resp_study.rt,key_resp_study.rt in ms,key_resp_study.started,key_resp_study.stopped,Jitter_study.started,Jitter_study.stopped,participant,date,expName,psychopyVersion,frameRate,
,,,,,,,,,,,,90.40921170000001,93.39803281000022,93.40255789999992,99.22251291000029,None,93.40255789999992,99.22251291000029,,,,,,,,,,,,,,,,,,,,,,,,,,,,,,,,,,,,,,,,,,,,,,,,,,,,,,,,,,,,,,,EMOCONPILOT008,2020_Dec_12_1046,EmoCon_Pilot_120Hz,2020.2.4,119.97355782837421,
,,,,,,,,,,,,,,,,,,,99.22302770000033,101.5376887100002,d,2.307597900000019,99.22302770000033,101.5376887100002,,,,,,,,,,,,,,,,,,,,,,,,,,,,,,,,,,,,,,,,,,,,,,,,,,,,,,,,,EMOCONPILOT008,2020_Dec_12_1046,EmoCon_Pilot_120Hz,2020.2.4,119.97355782837421,
0,0,0,0,,,,,,,,,,,,,,,,,,,,,,0,3.0,f,1113_y_f_s_a.jpg,sad,a,3,101.54172999999992,101.83123540999995,102.06001680000008,102.08805450999998,102.09604590000026,102.1324717100002,102.13303360000009,103.44834651000028,s,0,1.301521800000046,1301.521800000046,102.13303360000009,103.44834651000028,103.45352230000026,105.29812661000014,,,,,,,,,,,,,,,,,,,,,,,,,,,,,,,,,,EMOCONPILOT008,2020_Dec_12_1046,EmoCon_Pilot_120Hz,2020.2.4,119.97355782837421,
1,0,1,0,,,,,,,,,,,,,,,,,,,,,,1,1.0,m,1111_m_m_s_a.jpg,sad,a,17,105.30053050000015,105.59810901,105.79185140000027,105.95083891000021,105.95377170000029,105.9943838099999,105.99769370000013,107.03707801000027,a,1,1.0288471999997455,1028.8471999997455,105.99769370000013,107.03707801000027,107.04037740000012,108.3315827100001,,,,,,,,,,,,,,,,,,,,,,,,,,,,,,,,,,EMOCONPILOT008,2020_Dec_12_1046,EmoCon_Pilot_120Hz,2020.2.4,119.97355782837421,
2,0,2,0,,,,,,,,,,,,,,,,,,,,,,2,3.0,f,1113_y_f_n_a.jpg,neutral,s,17,108.33301269999993,108.63158991000009,108.82418760000019,108.97799661000008,108.98091810000005,109.02084470999998,109.02394060000006,109.63597861000025,s,1,0.6026244000004226,602.6244000004226,109.02394060000006,109.63597861000025,109.64142179999999,110.90661740999994,,,,,,,,,,,,,,,,,,,,,,,,,,,,,,,,,,EMOCONPILOT008,2020_Dec_12_1046,EmoCon_Pilot_120Hz,2020.2.4,119.97355782837421,
3,0,3,0,,,,,,,,,,,,,,,,,,,,,,3,2.0,f,1112_m_f_h_a.jpg,happy,d,17,110.9080097000001,111.20662351000018,111.40067910000016,111.56437791000016,111.56718060000003,111.60719311000011,111.61007380000001,112.04414011000026,d,1,0.42452110000022003,424.52110000022003,111.61007380000001,112.04414011000026,112.04756889999999,113.23167451000026,,,,,,,,,,,,,,,,,,,,,,,,,,,,,,,,,,EMOCONPILOT008,2020_Dec_12_1046,EmoCon_Pilot_120Hz,2020.2.4,119.97355782837421,
4,0,4,0,,,,,,,,,,,,,,,,,,,,,,4,2.0,f,1112_m_f_n_a.jpg,neutral,s,3,113.23369230000026,113.53164690999992,113.72575910000023,113.75245161000029,113.75479600000017,113.79375901000012,113.79694070000005,114.34801840999998,s,1,0.5418371000000661,541.8371000000661,113.79694070000005,114.34801840999998,114.35332860000017,115.71497460999998,,,,,,,,,,,,,,,,,,,,,,,,,,,,,,,,,,EMOCONPILOT008,2020_Dec_12_1046,EmoCon_Pilot_120Hz,2020.2.4,119.97355782837421,
,,,,0,0,0,0,0,0,0,0,,,,,,,,,,,,,,,,,,,,,,,,,,,,,,,,,,,,,115.75609430000031,118.74843870999993,118.74995530000024,121.7729594100002,d,3.012531300000319,3012.531300000319,118.74995530000024,121.7729594100002,0,8.0,f,019_m_f_s_a.jpg,sad,a,3,1,121.77808159999995,122.06508501000016,122.30929130000004,122.33667191000004,122.33799820000013,122.37484400999992,122.37836700000025,123.52034261000026,a,1,1.1281104999998206,1128.1104999998206,122.37836700000025,123.52034261000026,123.52979159999995,125.09848780999991,EMOCONPILOT008,2020_Dec_12_1046,EmoCon_Pilot_120Hz,2020.2.4,119.97355782837421,
,,,,0,0,0,0,1,0,1,0,,,,,,,,,,,,,,,,,,,,,,,,,,,,,,,,,,,,,,,,,,,,,,1,6.0,m,033_o_m_n_a.jpg,neutral,s,17,1,125.10510870000007,125.39854101,125.59711040000002,125.75519820999997,125.75982210000029,125.80017310999992,125.8052144000003,126.17223131,s,1,0.3573252000001048,357.3252000001048,125.8052144000003,126.17223131,126.18382130000009,128.07358140999995,EMOCONPILOT008,2020_Dec_12_1046,EmoCon_Pilot_120Hz,2020.2.4,119.97355782837421,
,,,,0,0,0,0,2,0,2,0,,,,,,,,,,,,,,,,,,,,,,,,,,,,,,,,,,,,,,,,,,,,,,2,2.0,m,008_y_m_s_a.jpg,sad,a,17,1,128.07745730000033,128.37356511000016,128.60278640000024,128.76073811000023,128.7648419000002,128.80545020999998,128.81030280000004,129.45092121000025,a,1,0.6324732000002768,632.4732000002768,128.81030280000004,129.45092121000025,129.46243099999992,131.01530001,EMOCONPILOT008,2020_Dec_12_1046,EmoCon_Pilot_120Hz,2020.2.4,119.97355782837421,
,,,,0,0,0,0,3,0,3,0,,,,,,,,,,,,,,,,,,,,,,,,,,,,,,,,,,,,,,,,,,,,,,3,11.0,f,030_o_f_h_a.jpg,happy,d,3,1,131.0207660000001,131.31539561000008,131.5064937000002,131.53287661000022,131.53329650000023,131.56739491000016,131.5673812,132.08384491000024,d,1,0.507084500000019,507.08450000001903,131.5673812,132.08384491000024,132.0910113,133.64038801000024,EMOCONPILOT008,2020_Dec_12_1046,EmoCon_Pilot_120Hz,2020.2.4,119.97355782837421,
,,,,0,0,0,0,4,0,4,0,,,,,,,,,,,,,,,,,,,,,,,,,,,,,,,,,,,,,,,,,,,,,,4,11.0,f,030_o_f_s_a.jpg,sad,a,3,1,133.6446787,133.94033281000029,134.1412481000002,134.16753801000013,134.16844660000015,134.2029556100002,134.20351070000015,134.98737571,s,0,0.7750541000000339,775.0541000000339,134.20351070000015,134.98737571,134.9969974999999,136.2654080100002,EMOCONPILOT008,2020_Dec_12_1046,EmoCon_Pilot_120Hz,2020.2.4,119.97355782837421,
,,,,0,0,0,0,5,0,5,0,,,,,,,,,,,,,,,,,,,,,,,,,,,,,,,,,,,,,,,,,,,,,,5,11.0,f,030_o_f_s_a.jpg,sad,a,17,1,136.2707206,136.5654062100003,136.76833560000023,136.93768680999992,136.94265870000027,136.98345260999994,136.9873878000003,137.32427801000003,a,1,0.32727939999995215,327.27939999995215,136.9873878000003,137.32427801000003,137.33572589999994,138.58214051000013,EMOCONPILOT008,2020_Dec_12_1046,EmoCon_Pilot_120Hz,2020.2.4,119.97355782837421,
,,,,0,0,0,0,6,0,6,0,,,,,,,,,,,,,,,,,,,,,,,,,,,,,,,,,,,,,,,,,,,,,,6,5.0,m,027_o_m_n_a.jpg,neutral,s,3,1,138.58603429999994,138.8820700100001,139.0931856000002,139.12069811,139.12418460000026,139.1647844099999,139.1698825000003,140.13034891000015,d,0,0.9447070999999596,944.7070999999596,139.1698825000003,140.13034891000015,140.13993010000013,141.5237909100002,EMOCONPILOT008,2020_Dec_12_1046,EmoCon_Pilot_120Hz,2020.2.4,119.97355782837421,
,,,,0,0,0,0,7,0,7,0,,,,,,,,,,,,,,,,,,,,,,,,,,,,,,,,,,,,,,,,,,,,,,7,8.0,f,019_m_f_n_a.jpg,neutral,s,17,1,141.52791690000004,141.82394050999991,142.0621959,142.21810491000005,142.21964460000027,142.25692241000033,142.2595467000001,142.72556541000003,s,1,0.45514630000025136,455.14630000025136,142.2595467000001,142.72556541000003,142.7319964000003,144.5904379100003,EMOCONPILOT008,2020_Dec_12_1046,EmoCon_Pilot_120Hz,2020.2.4,119.97355782837421,
,,,,0,0,0,0,8,0,8,0,,,,,,,,,,,,,,,,,,,,,,,,,,,,,,,,,,,,,,,,,,,,,,8,5.0,m,027_o_m_h_a.jpg,happy,d,3,1,144.5905885000002,144.89063681000025,145.11304210000026,145.1385213100003,145.14247920000025,145.18234341000024,145.18732099999988,145.87017191000004,d,1,0.67126399999961,671.26399999961,145.18732099999988,145.87017191000004,145.88213110000015,147.74897831000007,EMOCONPILOT008,2020_Dec_12_1046,EmoCon_Pilot_120Hz,2020.2.4,119.97355782837421,
,,,,0,0,0,0,9,0,9,0,,,,,,,,,,,,,,,,,,,,,,,,,,,,,,,,,,,,,,,,,,,,,,9,8.0,f,019_m_f_n_a.jpg,neutral,s,3,1,147.75441900000033,148.04908951000024,148.29155119999996,148.31816991000014,148.31845500000009,148.35252550999994,148.35317780000014,150.1794334100001,None,0,,,148.35317780000014,150.1794334100001,150.18703480000022,152.0324147100001,EMOCONPILOT008,2020_Dec_12_1046,EmoCon_Pilot_120Hz,2020.2.4,119.97355782837421,
,,,,0,0,0,0,10,0,10,0,,,,,,,,,,,,,,,,,,,,,,,,,,,,,,,,,,,,,,,,,,,,,,10,11.0,f,030_o_f_h_a.jpg,happy,d,3,1,152.03794490000018,152.3324110100003,152.53994890000013,152.5660719100002,152.56691870000031,152.6026144100002,152.60335280000027,153.2664283099999,d,1,0.6474210000001221,647.4210000001221,152.60335280000027,153.2664283099999,153.2756991000001,155.0991085100005,EMOCONPILOT008,2020_Dec_12_1046,EmoCon_Pilot_120Hz,2020.2.4,119.97355782837421,
,,,,0,0,0,0,11,0,11,0,,,,,,,,,,,,,,,,,,,,,,,,,,,,,,,,,,,,,,,,,,,,,,11,3.0,m,013_y_m_s_a.jpg,sad,a,17,1,155.10335420000047,155.3992050099997,155.49643060000017,155.63415190999976,155.63762730000053,155.67872261000056,155.68399599999975,156.13333581000015,a,1,0.4387431999994078,438.7431999994078,155.68399599999975,156.13333581000015,156.1448166,157.96589391000006,EMOCONPILOT008,2020_Dec_12_1046,EmoCon_Pilot_120Hz,2020.2.4,119.97355782837421,
,,,,0,0,0,0,12,0,12,0,,,,,,,,,,,,,,,,,,,,,,,,,,,,,,,,,,,,,,,,,,,,,,12,12.0,f,040_y_f_n_a.jpg,neutral,s,17,1,157.97022620000007,158.2658026099999,158.49415899999985,158.6534805100001,158.65822790000038,158.69943561000045,158.70427610000024,159.1523579100004,s,1,0.43449909999981173,434.49909999981173,158.70427610000024,159.1523579100004,159.16348149999976,160.56600011000054,EMOCONPILOT008,2020_Dec_12_1046,EmoCon_Pilot_120Hz,2020.2.4,119.97355782837421,
,,,,0,0,0,0,13,0,13,0,,,,,,,,,,,,,,,,,,,,,,,,,,,,,,,,,,,,,,,,,,,,,,13,12.0,f,040_y_f_h_a.jpg,happy,d,3,1,160.57160470000053,160.86601451000033,160.89203429999998,160.9150532100003,160.91587460000028,160.95052501000018,160.95060889999968,161.49061190999973,d,1,0.5238799999997354,523.8799999997354,160.95060889999968,161.49061190999973,161.4990883999999,163.20772191000023,EMOCONPILOT008,2020_Dec_12_1046,EmoCon_Pilot_120Hz,2020.2.4,119.97355782837421,
,,,,0,0,0,0,14,0,14,0,,,,,,,,,,,,,,,,,,,,,,,,,,,,,,,,,,,,,,,,,,,,,,14,7.0,f,012_o_f_h_a.jpg,happy,d,17,1,163.2135212000003,163.50765991000034,163.53089770000042,163.66758381000008,163.67059810000046,163.7089179100004,163.71206090000032,164.1053145100005,d,1,0.3784413000003042,378.4413000003042,163.71206090000032,164.1053145100005,164.11201840000012,165.8326798099998,EMOCONPILOT008,2020_Dec_12_1046,EmoCon_Pilot_120Hz,2020.2.4,119.97355782837421,
,,,,0,0,0,0,15,0,15,0,,,,,,,,,,,,,,,,,,,,,,,,,,,,,,,,,,,,,,,,,,,,,,15,9.0,f,021_o_f_n_a.jpg,neutral,s,17,1,165.8359218000005,166.1326830099998,166.35625489999984,166.51761341000028,166.5222530000001,166.56304870999983,166.56834450000042,166.9445991100002,s,1,0.3622070999999778,362.2070999999778,166.56834450000042,166.9445991100002,166.95760520000022,168.20783880999997,EMOCONPILOT008,2020_Dec_12_1046,EmoCon_Pilot_120Hz,2020.2.4,119.97355782837421,
,,,,0,0,0,0,16,0,16,0,,,,,,,,,,,,,,,,,,,,,,,,,,,,,,,,,,,,,,,,,,,,,,16,10.0,f,028_y_f_s_a.jpg,sad,a,3,1,168.21323680000023,168.50772110999978,168.53108940000038,168.55383111,168.5548971999997,168.59234111000032,168.59349949999978,169.73973330999988,s,0,1.1372166000001016,1137.2166000001016,168.59349949999978,169.73973330999988,169.74801130000014,171.23287881000041,EMOCONPILOT008,2020_Dec_12_1046,EmoCon_Pilot_120Hz,2020.2.4,119.97355782837421,
,,,,0,0,0,0,17,0,17,0,,,,,,,,,,,,,,,,,,,,,,,,,,,,,,,,,,,,,,,,,,,,,,17,10.0,f,028_y_f_h_a.jpg,happy,d,3,1,171.2371578000002,171.5327704100001,171.55308510000032,171.5753084099998,171.5760151000004,171.61163231000054,171.61204739999994,172.09628901000005,d,1,0.470437299999503,470.437299999503,171.61204739999994,172.09628901000005,172.1030227000001,173.82457341000017,EMOCONPILOT008,2020_Dec_12_1046,EmoCon_Pilot_120Hz,2020.2.4,119.97355782837421,
,,,,0,0,0,0,18,0,18,0,,,,,,,,,,,,,,,,,,,,,,,,,,,,,,,,,,,,,,,,,,,,,,18,9.0,f,021_o_f_h_a.jpg,happy,d,3,1,173.83073760000025,174.12458610999974,174.33947809999972,174.36630931000045,174.3693062000002,174.40809971000007,174.4119464000005,174.90024101000026,d,1,0.4788528999997652,478.8528999997652,174.4119464000005,174.90024101000026,174.9127857000003,176.25797161,EMOCONPILOT008,2020_Dec_12_1046,EmoCon_Pilot_120Hz,2020.2.4,119.97355782837421,
,,,,0,0,0,0,19,0,19,0,,,,,,,,,,,,,,,,,,,,,,,,,,,,,,,,,,,,,,,,,,,,,,19,6.0,m,033_o_m_h_a.jpg,happy,d,3,1,176.2622405000002,176.55787960999996,176.58095310000044,176.6043670099999,176.6048652999998,176.64246431,176.6425747000003,177.25329550999967,d,1,0.6000715999998647,600.0715999998647,176.6425747000003,177.25329550999967,177.2628190000005,178.6078827100001,EMOCONPILOT008,2020_Dec_12_1046,EmoCon_Pilot_120Hz,2020.2.4,119.97355782837421,
,,,,0,0,0,0,20,0,20,0,,,,,,,,,,,,,,,,,,,,,,,,,,,,,,,,,,,,,,,,,,,,,,20,1.0,m,004_o_m_h_a.jpg,happy,d,3,1,178.61188159999983,178.90789801000037,179.1184542000001,179.14411541000035,179.14470520000032,179.18281311000018,179.18791620000047,179.65613541000047,d,1,0.45459780000055616,454.59780000055616,179.18791620000047,179.65613541000047,179.66388629999983,181.0997248100003,EMOCONPILOT008,2020_Dec_12_1046,EmoCon_Pilot_120Hz,2020.2.4,119.97355782837421,
,,,,0,0,0,0,21,0,21,0,,,,,,,,,,,,,,,,,,,,,,,,,,,,,,,,,,,,,,,,,,,,,,21,2.0,m,008_y_m_s_a.jpg,sad,a,3,1,181.10575900000003,181.39968141000017,181.63661950000005,181.66214210999996,181.6624922000001,181.69823411000024,181.6985762000004,182.2613200100005,a,1,0.5520218000001478,552.0218000001478,181.6985762000004,182.2613200100005,182.2706379000001,183.84135840999997,EMOCONPILOT008,2020_Dec_12_1046,EmoCon_Pilot_120Hz,2020.2.4,119.97355782837421,
,,,,0,0,0,0,22,0,22,0,,,,,,,,,,,,,,,,,,,,,,,,,,,,,,,,,,,,,,,,,,,,,,22,4.0,m,016_y_m_s_a.jpg,sad,a,3,1,183.84549229999993,184.14146541,184.16334490000008,184.18640931000036,184.1870125000005,184.22593271000014,184.2270993000002,184.82581841000055,s,0,0.5837493999997605,583.7493999997605,184.2270993000002,184.82581841000055,184.8342702,185.94143240999992,EMOCONPILOT008,2020_Dec_12_1046,EmoCon_Pilot_120Hz,2020.2.4,119.97355782837421,
,,,,0,0,0,0,23,0,23,0,,,,,,,,,,,,,,,,,,,,,,,,,,,,,,,,,,,,,,,,,,,,,,23,8.0,f,019_m_f_h_a.jpg,happy,d,3,1,185.94555860000037,186.24142511,186.26778920000015,186.29011791000002,186.29096170000048,186.32585651000053,186.32586059999994,186.86154461000032,d,1,0.524655299999722,524.655299999722,186.32586059999994,186.86154461000032,186.86896419999994,188.83319760999993,EMOCONPILOT008,2020_Dec_12_1046,EmoCon_Pilot_120Hz,2020.2.4,119.97355782837421,
,,,,0,0,0,0,24,0,24,0,,,,,,,,,,,,,,,,,,,,,,,,,,,,,,,,,,,,,,,,,,,,,,24,8.0,f,019_m_f_h_a.jpg,happy,d,17,1,188.83881949999977,189.13323881000005,189.1609166999997,189.29316781000043,189.29752280000048,189.33852691,189.34383040000012,189.65991671000037,d,1,0.30674809999982244,306.74809999982244,189.34383040000012,189.65991671000037,189.67140420000032,191.50810121000004,EMOCONPILOT008,2020_Dec_12_1046,EmoCon_Pilot_120Hz,2020.2.4,119.97355782837421,
,,,,0,0,0,0,25,0,25,0,,,,,,,,,,,,,,,,,,,,,,,,,,,,,,,,,,,,,,,,,,,,,,25,4.0,m,016_y_m_n_a.jpg,neutral,s,17,1,191.51102300000002,191.80830600999988,192.0645531,192.22284881000004,192.22735639999974,192.26841321000038,192.27277709999998,192.71246451000033,s,1,0.42578279999997903,425.78279999997903,192.27277709999998,192.71246451000033,192.72440090000055,193.78334391000053,EMOCONPILOT008,2020_Dec_12_1046,EmoCon_Pilot_120Hz,2020.2.4,119.97355782837421,
,,,,0,0,0,0,26,0,26,0,,,,,,,,,,,,,,,,,,,,,,,,,,,,,,,,,,,,,,,,,,,,,,26,4.0,m,016_y_m_h_a.jpg,happy,d,17,1,193.7877193000004,194.08322770999993,194.10769810000056,194.24326781000045,194.24659229999997,194.28448530999967,194.2892850999997,194.60312581000025,s,0,0.29734280000047875,297.34280000047875,194.2892850999997,194.60312581000025,194.61373090000052,195.69999771000047,EMOCONPILOT008,2020_Dec_12_1046,EmoCon_Pilot_120Hz,2020.2.4,119.97355782837421,
,,,,0,0,0,0,27,0,27,0,,,,,,,,,,,,,,,,,,,,,,,,,,,,,,,,,,,,,,,,,,,,,,27,8.0,f,019_m_f_h_a.jpg,happy,d,3,1,195.7040616000004,195.99985080999986,196.0124262999998,196.0352519099998,196.0351139000004,196.07098981000044,196.07274700000016,196.51807971000025,d,1,0.4339341999993849,433.9341999993849,196.07274700000016,196.51807971000025,196.5264930000003,197.7001346099997,EMOCONPILOT008,2020_Dec_12_1046,EmoCon_Pilot_120Hz,2020.2.4,119.97355782837421,
,,,,0,0,0,0,28,0,28,0,,,,,,,,,,,,,,,,,,,,,,,,,,,,,,,,,,,,,,,,,,,,,,28,8.0,f,019_m_f_s_a.jpg,sad,a,3,1,197.70639680000022,197.9998060099998,198.23384570000053,198.25979380999988,198.2599024000001,198.29523050999987,198.29559440000048,198.89026551000015,a,1,0.5870459999996456,587.0459999996456,198.29559440000048,198.89026551000015,198.90036210000017,200.03336340999985,EMOCONPILOT008,2020_Dec_12_1046,EmoCon_Pilot_120Hz,2020.2.4,119.97355782837421,
,,,,0,0,0,0,29,0,29,0,,,,,,,,,,,,,,,,,,,,,,,,,,,,,,,,,,,,,,,,,,,,,,29,10.0,f,028_y_f_n_a.jpg,neutral,s,17,1,200.03736490000028,200.33338140999976,200.5375813999999,200.69693041000036,200.70066529999986,200.73779080999984,200.7409190999997,201.1378045100001,s,1,0.3896181999998589,389.6181999998589,200.7409190999997,201.1378045100001,201.14544260000002,202.6917679099998,EMOCONPILOT008,2020_Dec_12_1046,EmoCon_Pilot_120Hz,2020.2.4,119.97355782837421,
,,,,0,0,0,0,30,0,30,0,,,,,,,,,,,,,,,,,,,,,,,,,,,,,,,,,,,,,,,,,,,,,,30,12.0,f,040_y_f_n_a.jpg,neutral,s,3,1,202.69467220000024,202.9917694100005,203.2131900000004,203.23893400999995,203.2390531000001,203.27620201,203.27636940000048,203.97991101000034,s,1,0.6943084000004092,694.3084000004092,203.27636940000048,203.97991101000034,203.9894578000003,205.9085579100002,EMOCONPILOT008,2020_Dec_12_1046,EmoCon_Pilot_120Hz,2020.2.4,119.97355782837421,
,,,,0,0,0,0,31,0,31,0,,,,,,,,,,,,,,,,,,,,,,,,,,,,,,,,,,,,,,,,,,,,,,31,5.0,m,027_o_m_n_a.jpg,neutral,s,17,1,205.91284540000015,206.2085555100003,206.41047200000048,206.57202420999974,206.57683369999995,206.6174963100003,206.62255470000036,207.09050830999976,s,1,0.4600595000001704,460.0595000001704,206.62255470000036,207.09050830999976,207.10110170000007,209.00855970999973,EMOCONPILOT008,2020_Dec_12_1046,EmoCon_Pilot_120Hz,2020.2.4,119.97355782837421,
,,,,0,0,0,0,32,0,32,0,,,,,,,,,,,,,,,,,,,,,,,,,,,,,,,,,,,,,,,,,,,,,,32,8.0,f,019_m_f_n_a.jpg,neutral,s,17,1,209.01285139999982,209.3085696099998,209.55445500000042,209.71375421000002,209.71887119999974,209.75819830999998,209.76195890000054,210.16318431000045,s,1,0.3927446999996391,392.7446999996391,209.76195890000054,210.16318431000045,210.1715610000001,212.11700330999983,EMOCONPILOT008,2020_Dec_12_1046,EmoCon_Pilot_120Hz,2020.2.4,119.97355782837421,
,,,,0,0,0,0,33,0,33,0,,,,,,,,,,,,,,,,,,,,,,,,,,,,,,,,,,,,,,,,,,,,,,33,4.0,m,016_y_m_n_a.jpg,neutral,s,17,1,212.12022220000017,212.4168625100002,212.64529800000037,212.81118381000041,212.8157239000002,212.8569059100001,212.8618948000003,213.13824640999982,s,1,0.26079289999961475,260.79289999961475,212.8618948000003,213.13824640999982,213.14894619999995,215.04200491000037,EMOCONPILOT008,2020_Dec_12_1046,EmoCon_Pilot_120Hz,2020.2.4,119.97355782837421,
,,,,0,0,0,0,34,0,34,0,,,,,,,,,,,,,,,,,,,,,,,,,,,,,,,,,,,,,,,,,,,,,,34,11.0,f,030_o_f_n_a.jpg,neutral,s,17,1,215.0462051000004,215.34200790999975,215.54684960000031,215.71050071,215.71505890000026,215.7558445100004,215.76097089999985,216.21004320999972,s,1,0.43369199999960983,433.69199999960983,215.76097089999985,216.21004320999972,216.22064200000023,217.61710271,EMOCONPILOT008,2020_Dec_12_1046,EmoCon_Pilot_120Hz,2020.2.4,119.97355782837421,
,,,,0,0,0,0,35,0,35,0,,,,,,,,,,,,,,,,,,,,,,,,,,,,,,,,,,,,,,,,,,,,,,35,9.0,f,021_o_f_h_a.jpg,happy,d,3,1,217.62091359999977,217.9171242100002,218.1298568000002,218.15651550999982,218.15963459999966,218.20060901000042,218.20386430000053,218.74441121000027,d,1,0.5266405000002123,526.6405000002123,218.20386430000053,218.74441121000027,218.7525297000002,219.78382451000024,EMOCONPILOT008,2020_Dec_12_1046,EmoCon_Pilot_120Hz,2020.2.4,119.97355782837421,
,,,,0,0,0,0,36,0,36,0,,,,,,,,,,,,,,,,,,,,,,,,,,,,,,,,,,,,,,,,,,,,,,36,11.0,f,030_o_f_s_a.jpg,sad,a,17,1,219.78773509999974,220.0838437100002,220.2892836000001,220.45975901000028,220.4644748999999,220.50563811000038,220.51066119999996,220.95928921000004,a,1,0.43622549999963667,436.22549999963667,220.51066119999996,220.95928921000004,220.9708986000005,222.81728460999975,EMOCONPILOT008,2020_Dec_12_1046,EmoCon_Pilot_120Hz,2020.2.4,119.97355782837421,
,,,,0,0,0,0,37,0,37,0,,,,,,,,,,,,,,,,,,,,,,,,,,,,,,,,,,,,,,,,,,,,,,37,12.0,f,040_y_f_n_a.jpg,neutral,s,17,1,222.82159860000047,223.11722911000024,223.33049850000043,223.4937326099999,223.49861070000043,223.53928661000018,223.5445553999998,223.90025591000003,s,1,0.34615709999980027,346.15709999980027,223.5445553999998,223.90025591000003,223.9116623,225.43391571000038,EMOCONPILOT008,2020_Dec_12_1046,EmoCon_Pilot_120Hz,2020.2.4,119.97355782837421,
,,,,0,0,0,0,38,0,38,0,,,,,,,,,,,,,,,,,,,,,,,,,,,,,,,,,,,,,,,,,,,,,,38,9.0,f,021_o_f_s_a.jpg,sad,a,17,1,225.44012380000004,225.73394080999978,225.75982790000035,225.89395191000048,225.8989787999999,225.9394331100003,225.94438809999974,226.8686838100003,a,1,0.9141970000000583,914.1970000000583,225.94438809999974,226.8686838100003,226.8763125000005,228.75064801000016,EMOCONPILOT008,2020_Dec_12_1046,EmoCon_Pilot_120Hz,2020.2.4,119.97355782837421,
,,,,0,0,0,0,39,0,39,0,,,,,,,,,,,,,,,,,,,,,,,,,,,,,,,,,,,,,,,,,,,,,,39,4.0,m,016_y_m_n_a.jpg,neutral,s,3,1,228.7549608999998,229.05070201000044,229.28816610000013,229.31386051000035,229.31475930000033,229.35181630999986,229.35339139999996,229.8610485099999,s,1,0.49713489999976446,497.13489999976446,229.35339139999996,229.8610485099999,229.86857150000014,231.1756386099997,EMOCONPILOT008,2020_Dec_12_1046,EmoCon_Pilot_120Hz,2020.2.4,119.97355782837421,
,,,,0,0,0,0,40,0,40,0,,,,,,,,,,,,,,,,,,,,,,,,,,,,,,,,,,,,,,,,,,,,,,40,9.0,f,021_o_f_s_a.jpg,sad,a,17,1,231.1797333000004,231.47564980999968,231.4968748000001,231.62759990999993,231.63213189999988,231.67283751000022,231.67801289999989,232.6875918100005,a,1,0.9966184000004432,996.6184000004432,231.67801289999989,232.6875918100005,232.69495290000032,234.5341093099997,EMOCONPILOT008,2020_Dec_12_1046,EmoCon_Pilot_120Hz,2020.2.4,119.97355782837421,
,,,,0,0,0,0,41,0,41,0,,,,,,,,,,,,,,,,,,,,,,,,,,,,,,,,,,,,,,,,,,,,,,41,11.0,f,030_o_f_h_a.jpg,happy,d,17,1,234.5397106999999,234.83411781000004,235.03764640000009,235.19774970999978,235.20280319999983,235.2438251100003,235.24888770000052,235.64611531,d,1,0.38591940000060276,385.91940000060276,235.24888770000052,235.64611531,235.65945780000038,237.1008235099999,EMOCONPILOT008,2020_Dec_12_1046,EmoCon_Pilot_120Hz,2020.2.4,119.97355782837421,
,,,,0,0,0,0,42,0,42,0,,,,,,,,,,,,,,,,,,,,,,,,,,,,,,,,,,,,,,,,,,,,,,42,4.0,m,016_y_m_h_a.jpg,happy,d,3,1,237.10643580000033,237.40092581000053,237.42623249999997,237.44881201000052,237.4495095000002,237.48526691000015,237.48665660000006,238.2916915100005,d,1,0.7958743000008326,795.8743000008326,237.48665660000006,238.2916915100005,238.29426160000003,239.78423700999983,EMOCONPILOT008,2020_Dec_12_1046,EmoCon_Pilot_120Hz,2020.2.4,119.97355782837421,
,,,,0,0,0,0,43,0,43,0,,,,,,,,,,,,,,,,,,,,,,,,,,,,,,,,,,,,,,,,,,,,,,43,1.0,m,004_o_m_s_a.jpg,sad,a,3,1,239.79036150000047,240.08421331000054,240.10049069999968,240.1228903100001,240.12362200000007,240.1604515099999,240.1617068000005,240.79529961000034,a,1,0.6247851999996783,624.7851999996783,240.1617068000005,240.79529961000034,240.79930440000044,242.78432250999967,EMOCONPILOT008,2020_Dec_12_1046,EmoCon_Pilot_120Hz,2020.2.4,119.97355782837421,
,,,,0,0,0,0,44,0,44,0,,,,,,,,,,,,,,,,,,,,,,,,,,,,,,,,,,,,,,,,,,,,,,44,4.0,m,016_y_m_h_a.jpg,happy,d,3,1,242.7895956000002,243.08437720999981,243.1106651,243.13348671000048,243.13396869999997,243.16961060999992,243.16923899999983,243.99703340999994,d,1,0.8173297000003004,817.3297000003004,243.16923899999983,243.99703340999994,244.0064342000005,245.86768590999972,EMOCONPILOT008,2020_Dec_12_1046,EmoCon_Pilot_120Hz,2020.2.4,119.97355782837421,
,,,,0,0,0,0,45,0,45,0,,,,,,,,,,,,,,,,,,,,,,,,,,,,,,,,,,,,,,,,,,,,,,45,7.0,f,012_o_f_s_a.jpg,sad,a,3,1,245.8706142000001,246.16768521000003,246.18784550000055,246.21123591000023,246.2119448000003,246.2479623099999,246.24969760000022,246.9857642099997,a,1,0.7208954999996422,720.8954999996422,246.24969760000022,246.9857642099997,246.9939559000004,248.58448991000031,EMOCONPILOT008,2020_Dec_12_1046,EmoCon_Pilot_120Hz,2020.2.4,119.97355782837421,
,,,,0,0,0,0,46,0,46,0,,,,,,,,,,,,,,,,,,,,,,,,,,,,,,,,,,,,,,,,,,,,,,46,8.0,f,019_m_f_n_a.jpg,neutral,s,3,1,248.5881687000001,248.88437230999997,249.1400153000004,249.16600971000034,249.16694160000043,249.20475370999984,249.2081973000004,249.85025970999968,s,1,0.6345037000000957,634.5037000000957,249.2081973000004,249.85025970999968,249.85673769999994,251.41787791000033,EMOCONPILOT008,2020_Dec_12_1046,EmoCon_Pilot_120Hz,2020.2.4,119.97355782837421,
,,,,0,0,0,0,47,0,47,0,,,,,,,,,,,,,,,,,,,,,,,,,,,,,,,,,,,,,,,,,,,,,,47,2.0,m,008_y_m_h_a.jpg,happy,d,3,1,251.42231720000018,251.7178093100002,251.73990159999994,251.7617475099997,251.76191949999975,251.80233881000012,251.8037516000004,252.29803851000005,d,1,0.48690540000006877,486.90540000006877,251.8037516000004,252.29803851000005,252.30637920000026,253.79270750999976,EMOCONPILOT008,2020_Dec_12_1046,EmoCon_Pilot_120Hz,2020.2.4,119.97355782837421,
,,,,0,0,0,0,48,0,48,0,,,,,,,,,,,,,,,,,,,,,,,,,,,,,,,,,,,,,,,,,,,,,,48,12.0,f,040_y_f_n_a.jpg,neutral,s,3,1,253.79562420000002,254.0928306100005,254.3151843000005,254.34051841000027,254.34093010000015,254.37739491000056,254.37888769999972,255.00051021000044,s,1,0.6076397999995606,607.6397999995606,254.37888769999972,255.00051021000044,255.00819779999983,256.4762417100002,EMOCONPILOT008,2020_Dec_12_1046,EmoCon_Pilot_120Hz,2020.2.4,119.97355782837421,
,,,,0,0,0,0,49,0,49,0,,,,,,,,,,,,,,,,,,,,,,,,,,,,,,,,,,,,,,,,,,,,,,49,11.0,f,030_o_f_n_a.jpg,neutral,s,3,1,256.4817052999997,256.77630371000043,256.9705762000003,256.99718081000003,256.9973920000002,257.03251080999974,257.03405250000014,257.8323511099999,a,0,0.7844910000003438,784.4910000003438,257.03405250000014,257.8323511099999,257.83493240000007,258.9845862100002,EMOCONPILOT008,2020_Dec_12_1046,EmoCon_Pilot_120Hz,2020.2.4,119.97355782837421,
,,,,0,0,0,0,50,0,50,0,,,,,,,,,,,,,,,,,,,,,,,,,,,,,,,,,,,,,,,,,,,,,,50,8.0,f,019_m_f_h_a.jpg,happy,d,3,1,258.9887047000002,259.28465251000046,259.30963340000017,259.33217531,259.3331401000005,259.3691652099998,259.3692011000003,259.8367549100004,d,1,0.45736529999976483,457.36529999976483,259.3692011000003,259.8367549100004,259.84508900000037,261.54309191000004,EMOCONPILOT008,2020_Dec_12_1046,EmoCon_Pilot_120Hz,2020.2.4,119.97355782837421,
,,,,0,0,0,0,51,0,51,0,,,,,,,,,,,,,,,,,,,,,,,,,,,,,,,,,,,,,,,,,,,,,,51,8.0,f,019_m_f_n_a.jpg,neutral,s,17,1,261.5486069999997,261.8430696100005,262.0857023999997,262.25383101,262.25864679999995,262.29956030999995,262.30447209999966,262.6608823099997,s,1,0.3462977999997747,346.2977999997747,262.30447209999966,262.6608823099997,262.6729286,264.39304620999985,EMOCONPILOT008,2020_Dec_12_1046,EmoCon_Pilot_120Hz,2020.2.4,119.97355782837421,
,,,,0,0,0,0,52,0,52,0,,,,,,,,,,,,,,,,,,,,,,,,,,,,,,,,,,,,,,,,,,,,,,52,12.0,f,040_y_f_n_a.jpg,neutral,s,3,1,264.3971327999998,264.6931299099998,264.90761720000046,264.93268701000045,264.93611990000045,264.9747847099999,264.9799006000003,265.9147655099997,s,1,0.9268572000000859,926.8572000000859,264.9799006000003,265.9147655099997,265.9229236000001,267.21810990999995,EMOCONPILOT008,2020_Dec_12_1046,EmoCon_Pilot_120Hz,2020.2.4,119.97355782837421,
,,,,0,0,0,0,53,0,53,0,,,,,,,,,,,,,,,,,,,,,,,,,,,,,,,,,,,,,,,,,,,,,,53,9.0,f,021_o_f_h_a.jpg,happy,d,17,1,267.22215310000047,267.5181295100002,267.72816560000047,267.89112210999986,267.8958493,267.9371641099998,267.94128400000045,268.37722251000025,d,1,0.42131220000010217,421.31220000010217,267.94128400000045,268.37722251000025,268.3850488999997,270.0182136100003,EMOCONPILOT008,2020_Dec_12_1046,EmoCon_Pilot_120Hz,2020.2.4,119.97355782837421,
,,,,0,0,0,0,54,0,54,0,,,,,,,,,,,,,,,,,,,,,,,,,,,,,,,,,,,,,,,,,,,,,,54,2.0,m,008_y_m_n_a.jpg,neutral,s,3,1,270.02370340000016,270.31829751,270.5437130999999,270.5696271099997,270.57029280000006,270.60521920999975,270.60581999999977,271.29788570999983,a,0,0.6848809000002802,684.8809000002802,270.60581999999977,271.29788570999983,271.3072821000005,272.4932305100002,EMOCONPILOT008,2020_Dec_12_1046,EmoCon_Pilot_120Hz,2020.2.4,119.97355782837421,
,,,,0,0,0,0,55,0,55,0,,,,,,,,,,,,,,,,,,,,,,,,,,,,,,,,,,,,,,,,,,,,,,55,10.0,f,028_y_f_n_a.jpg,neutral,s,3,1,272.49747389999993,272.7932636100005,272.99111489999996,273.0171528100001,273.02210660000037,273.06320641000013,273.06744849999995,273.69724921000045,s,1,0.6232180000006338,623.2180000006338,273.06744849999995,273.69724921000045,273.70913050000036,275.5599667099997,EMOCONPILOT008,2020_Dec_12_1046,EmoCon_Pilot_120Hz,2020.2.4,119.97355782837421,
,,,,0,0,0,0,56,0,56,0,,,,,,,,,,,,,,,,,,,,,,,,,,,,,,,,,,,,,,,,,,,,,,56,12.0,f,040_y_f_h_a.jpg,happy,d,17,1,275.56556869999986,275.8599860100004,275.8827191999999,276.0199900099998,276.0235091000004,276.06468941000014,276.0696522999997,276.3939175100005,d,1,0.3168766999997388,316.8766999997388,276.0696522999997,276.3939175100005,276.40185440000005,278.16833431000043,EMOCONPILOT008,2020_Dec_12_1046,EmoCon_Pilot_120Hz,2020.2.4,119.97355782837421,
,,,,0,0,0,0,57,0,57,0,,,,,,,,,,,,,,,,,,,,,,,,,,,,,,,,,,,,,,,,,,,,,,57,2.0,m,008_y_m_n_a.jpg,neutral,s,3,1,278.17380820000017,278.4683597100003,278.70870360000026,278.7342901100002,278.7386257999997,278.7788229099998,278.78398840000045,279.3950584100004,s,1,0.5946850000000268,594.6850000000268,278.78398840000045,279.3950584100004,279.4055559999997,280.6267413100005,EMOCONPILOT008,2020_Dec_12_1046,EmoCon_Pilot_120Hz,2020.2.4,119.97355782837421,
,,,,0,0,0,0,58,0,58,0,,,,,,,,,,,,,,,,,,,,,,,,,,,,,,,,,,,,,,,,,,,,,,58,9.0,f,021_o_f_n_a.jpg,neutral,s,3,1,280.63206960000025,280.9268441100004,281.1288254000001,281.15580501000034,281.1569463000005,281.19460041000013,281.1957215000002,281.8994466100004,s,1,0.6949060999995709,694.9060999995709,281.1957215000002,281.8994466100004,281.9090358000003,283.77675531000034,EMOCONPILOT008,2020_Dec_12_1046,EmoCon_Pilot_120Hz,2020.2.4,119.97355782837421,
,,,,0,0,0,0,59,0,59,0,,,,,,,,,,,,,,,,,,,,,,,,,,,,,,,,,,,,,,,,,,,,,,59,4.0,m,016_y_m_n_a.jpg,neutral,s,17,1,283.78068450000046,284.0768530100005,284.3080520000003,284.46482750999996,284.4687012000004,284.5109564100004,284.51576879999993,284.91339021000033,s,1,0.3828526999996029,382.8526999996029,284.51576879999993,284.91339021000033,284.92449860000033,286.6185817100005,EMOCONPILOT008,2020_Dec_12_1046,EmoCon_Pilot_120Hz,2020.2.4,119.97355782837421,
,,,,0,0,0,0,60,0,60,0,,,,,,,,,,,,,,,,,,,,,,,,,,,,,,,,,,,,,,,,,,,,,,60,6.0,m,033_o_m_s_a.jpg,sad,a,17,1,286.62378050000007,286.9186277099999,286.9409218999999,287.0784867100002,287.08179610000025,287.11988630999997,287.1240280000002,287.61787281000045,a,1,0.4868062999994436,486.8062999994436,287.1240280000002,287.61787281000045,287.6291019,289.06867131000047,EMOCONPILOT008,2020_Dec_12_1046,EmoCon_Pilot_120Hz,2020.2.4,119.97355782837421,
,,,,0,0,0,0,61,0,61,0,,,,,,,,,,,,,,,,,,,,,,,,,,,,,,,,,,,,,,,,,,,,,,61,7.0,f,012_o_f_n_a.jpg,neutral,s,17,1,289.07410830000026,289.36866831000054,289.5874117000003,289.7589984100006,289.7634280000002,289.8039680100002,289.8090226000004,290.33003831000053,s,1,0.5056467000003977,505.6467000003977,289.8090226000004,290.33003831000053,290.3408552000001,292.1770666100002,EMOCONPILOT008,2020_Dec_12_1046,EmoCon_Pilot_120Hz,2020.2.4,119.97355782837421,
,,,,0,0,0,0,62,0,62,0,,,,,,,,,,,,,,,,,,,,,,,,,,,,,,,,,,,,,,,,,,,,,,62,2.0,m,008_y_m_h_a.jpg,happy,d,3,1,292.18271019999975,292.4770980100003,292.5014664999999,292.5231938099997,292.52412410000034,292.56150101000014,292.56158440000036,293.13073361,d,1,0.5612388999998075,561.2388999998075,292.56158440000036,293.13073361,293.1404106,294.7519587099997,EMOCONPILOT008,2020_Dec_12_1046,EmoCon_Pilot_120Hz,2020.2.4,119.97355782837421,
,,,,0,0,0,0,63,0,63,0,,,,,,,,,,,,,,,,,,,,,,,,,,,,,,,,,,,,,,,,,,,,,,63,10.0,f,028_y_f_h_a.jpg,happy,d,3,1,294.7564903000002,295.05198071000007,295.07323199999973,295.0958974100005,295.0974647000003,295.13421781000045,295.1355759999997,295.61343601000056,d,1,0.4670562000001155,467.0562000001155,295.1355759999997,295.61343601000056,295.6270069000002,297.3938173099997,EMOCONPILOT008,2020_Dec_12_1046,EmoCon_Pilot_120Hz,2020.2.4,119.97355782837421,
,,,,0,0,0,0,64,0,64,0,,,,,,,,,,,,,,,,,,,,,,,,,,,,,,,,,,,,,,,,,,,,,,64,4.0,m,016_y_m_h_a.jpg,happy,d,17,1,297.3980701999999,297.6937955100003,297.7170474000004,297.85372221000046,297.8576638000004,297.8966483100004,297.8999157999997,298.25446531000046,s,0,0.3427367000003869,342.7367000003869,297.8999157999997,298.25446531000046,298.2660222000004,299.7605587099998,EMOCONPILOT008,2020_Dec_12_1046,EmoCon_Pilot_120Hz,2020.2.4,119.97355782837421,
,,,,0,0,0,0,65,0,65,0,,,,,,,,,,,,,,,,,,,,,,,,,,,,,,,,,,,,,,,,,,,,,,65,9.0,f,021_o_f_s_a.jpg,sad,a,17,1,299.76616749999994,300.06051390999994,300.0848039000002,300.22051270999975,300.22403010000016,300.2617115100003,300.2651818000004,300.89940731000036,a,1,0.6254361999999674,625.4361999999674,300.2651818000004,300.89940731000036,300.90894019999996,302.4772920100005,EMOCONPILOT008,2020_Dec_12_1046,EmoCon_Pilot_120Hz,2020.2.4,119.97355782837421,
,,,,0,0,0,0,66,0,66,0,,,,,,,,,,,,,,,,,,,,,,,,,,,,,,,,,,,,,,,,,,,,,,66,7.0,f,012_o_f_h_a.jpg,happy,d,17,1,302.48168859999987,302.77720900999986,302.8032406000002,302.93720511000004,302.94053110000004,302.98134820999996,302.9858309000001,303.4846342100001,d,1,0.48890360000041255,488.90360000041255,302.9858309000001,303.4846342100001,303.4942080999999,305.3439918100004,EMOCONPILOT008,2020_Dec_12_1046,EmoCon_Pilot_120Hz,2020.2.4,119.97355782837421,
,,,,0,0,0,0,67,0,67,0,,,,,,,,,,,,,,,,,,,,,,,,,,,,,,,,,,,,,,,,,,,,,,67,9.0,f,021_o_f_h_a.jpg,happy,d,17,1,305.34829290000016,305.6439027100006,305.87114500000007,306.03241111,306.03656169999977,306.07737861,306.08236430000034,306.3881955099997,d,1,0.2885090999998283,288.5090999998283,306.08236430000034,306.3881955099997,306.3948405000001,308.3439803100001,EMOCONPILOT008,2020_Dec_12_1046,EmoCon_Pilot_120Hz,2020.2.4,119.97355782837421,
,,,,0,0,0,0,68,0,68,0,,,,,,,,,,,,,,,,,,,,,,,,,,,,,,,,,,,,,,,,,,,,,,68,8.0,f,019_m_f_h_a.jpg,happy,d,17,1,308.34943459999977,308.6438839100002,308.6672593000003,308.80455581000035,308.8080681000001,308.84892520999995,308.8541273999999,309.1711742099998,d,1,0.3005713000002288,300.5713000002288,308.8541273999999,309.1711742099998,309.1780109000001,310.3940091100004,EMOCONPILOT008,2020_Dec_12_1046,EmoCon_Pilot_120Hz,2020.2.4,119.97355782837421,
,,,,0,0,0,0,69,0,69,0,,,,,,,,,,,,,,,,,,,,,,,,,,,,,,,,,,,,,,,,,,,,,,69,9.0,f,021_o_f_s_a.jpg,sad,a,3,1,310.39908300000025,310.6940280099999,310.7173565000003,310.73976071000027,310.7402450999998,310.77859401000035,310.77975100000003,311.17297691000033,d,0,0.38276240000050166,382.76240000050166,310.77975100000003,311.17297691000033,311.18069110000033,313.1024460099999,EMOCONPILOT008,2020_Dec_12_1046,EmoCon_Pilot_120Hz,2020.2.4,119.97355782837421,
,,,,0,0,0,0,70,0,70,0,,,,,,,,,,,,,,,,,,,,,,,,,,,,,,,,,,,,,,,,,,,,,,70,2.0,m,008_y_m_h_a.jpg,happy,d,17,1,313.10661750000054,313.40237171,313.4235402000004,313.5541206099998,313.5585866000001,313.59943640999984,313.60452780000014,314.1046713100005,d,1,0.4861605000005511,486.1605000005511,313.60452780000014,314.1046713100005,314.11246670000037,315.53585340999973,EMOCONPILOT008,2020_Dec_12_1046,EmoCon_Pilot_120Hz,2020.2.4,119.97355782837421,
,,,,0,0,0,0,71,0,71,0,,,,,,,,,,,,,,,,,,,,,,,,,,,,,,,,,,,,,,,,,,,,,,71,1.0,m,004_o_m_h_a.jpg,happy,d,17,1,315.54030909999983,315.83578451000005,316.05870550000054,316.21558471000037,316.22016989999975,316.26091861,316.2658911999997,316.64275651000037,d,1,0.3689892000002146,368.9892000002146,316.2658911999997,316.64275651000037,316.65417609999986,318.5608559100002,EMOCONPILOT008,2020_Dec_12_1046,EmoCon_Pilot_120Hz,2020.2.4,119.97355782837421,
,,,,0,0,0,0,72,0,72,0,,,,,,,,,,,,,,,,,,,,,,,,,,,,,,,,,,,,,,,,,,,,,,72,11.0,f,030_o_f_h_a.jpg,happy,d,3,1,318.5660915999997,318.86087211000006,319.0516705,319.07741221000026,319.0807084999997,319.11995280999975,319.1249878999997,319.5427314099999,d,1,0.4057726000000912,405.7726000000912,319.1249878999997,319.5427314099999,319.5542481000002,320.8608739100001,EMOCONPILOT008,2020_Dec_12_1046,EmoCon_Pilot_120Hz,2020.2.4,119.97355782837421,
,,,,0,0,0,0,73,0,73,0,,,,,,,,,,,,,,,,,,,,,,,,,,,,,,,,,,,,,,,,,,,,,,73,8.0,f,019_m_f_s_a.jpg,sad,a,3,1,320.86509209999986,321.16099251000026,321.39078580000023,321.4161453099997,321.41654670000025,321.4535846099999,321.45506900000055,322.0498740100003,a,1,0.5876222999995662,587.6222999995662,321.45506900000055,322.0498740100003,322.05811540000013,323.4110544100005,EMOCONPILOT008,2020_Dec_12_1046,EmoCon_Pilot_120Hz,2020.2.4,119.97355782837421,
,,,,0,0,0,0,74,0,74,0,,,,,,,,,,,,,,,,,,,,,,,,,,,,,,,,,,,,,,,,,,,,,,74,5.0,m,027_o_m_h_a.jpg,happy,d,3,1,323.41638409999996,323.7110752099999,323.9123077000004,323.9381955099999,323.9387926999998,323.9741903100004,323.9743447999999,324.46612390999974,d,1,0.48423800000000483,484.23800000000483,323.9743447999999,324.46612390999974,324.47558149999986,325.47759021000013,EMOCONPILOT008,2020_Dec_12_1046,EmoCon_Pilot_120Hz,2020.2.4,119.97355782837421,
,,,,0,0,0,0,75,0,75,0,,,,,,,,,,,,,,,,,,,,,,,,,,,,,,,,,,,,,,,,,,,,,,75,8.0,f,019_m_f_s_a.jpg,sad,a,17,1,325.47759270000006,325.7777635100002,326.0253386000004,326.1957743100003,326.1991883999999,326.2393604099999,326.24372700000004,326.69144711,a,1,0.43926360000023124,439.26360000023124,326.24372700000004,326.69144711,326.7031280000001,327.80270291000045,EMOCONPILOT008,2020_Dec_12_1046,EmoCon_Pilot_120Hz,2020.2.4,119.97355782837421,
,,,,0,0,0,0,76,0,76,0,,,,,,,,,,,,,,,,,,,,,,,,,,,,,,,,,,,,,,,,,,,,,,76,7.0,f,012_o_f_n_a.jpg,neutral,s,17,1,327.8066885999997,328.1027707100003,328.31040440000015,328.4827288099997,328.4870840000003,328.5281677100003,328.53319290000036,328.9316802100003,s,1,0.3814855999999054,381.4855999999054,328.53319290000036,328.9316802100003,328.94334249999974,330.8360887099999,EMOCONPILOT008,2020_Dec_12_1046,EmoCon_Pilot_120Hz,2020.2.4,119.97355782837421,
,,,,0,0,0,0,77,0,77,0,,,,,,,,,,,,,,,,,,,,,,,,,,,,,,,,,,,,,,,,,,,,,,77,6.0,m,033_o_m_s_a.jpg,sad,a,17,1,330.84064769999986,331.1361067099998,331.15889479999987,331.2963251100001,331.29987470000015,331.3374091100005,331.34200560000045,331.95712801,a,1,0.6044566999999006,604.4566999999006,331.34200560000045,331.95712801,331.9647531999999,333.76124511000046,EMOCONPILOT008,2020_Dec_12_1046,EmoCon_Pilot_120Hz,2020.2.4,119.97355782837421,
,,,,0,0,0,0,78,0,78,0,,,,,,,,,,,,,,,,,,,,,,,,,,,,,,,,,,,,,,,,,,,,,,78,1.0,m,004_o_m_h_a.jpg,happy,d,3,1,333.76721540000017,334.0612471100004,334.26484849999997,334.2918634099998,334.2917712999997,334.32906190999995,334.3291287000002,334.85432971000057,d,1,0.5135287000002791,513.5287000002791,334.3291287000002,334.85432971000057,334.86448780000046,336.34454861000006,EMOCONPILOT008,2020_Dec_12_1046,EmoCon_Pilot_120Hz,2020.2.4,119.97355782837421,
,,,,0,0,0,0,79,0,79,0,,,,,,,,,,,,,,,,,,,,,,,,,,,,,,,,,,,,,,,,,,,,,,79,5.0,m,027_o_m_s_a.jpg,sad,a,17,1,336.34858410000015,336.64454691000003,336.6655698000004,336.7961985100002,336.7990060000002,336.8374350100004,336.8402511000004,337.89930921000007,a,1,1.0503373000001375,1050.3373000001375,336.8402511000004,337.89930921000007,337.90767460000006,338.9362978099999,EMOCONPILOT008,2020_Dec_12_1046,EmoCon_Pilot_120Hz,2020.2.4,119.97355782837421,
,,,,0,0,0,0,80,0,80,0,,,,,,,,,,,,,,,,,,,,,,,,,,,,,,,,,,,,,,,,,,,,,,80,9.0,f,021_o_f_s_a.jpg,sad,a,3,1,338.9416186999997,339.2363467100005,339.25736060000054,339.2806552100002,339.28143679999994,339.3156183100001,339.3154741999997,339.9215909100004,d,0,0.5911841999995886,591.1841999995886,339.3154741999997,339.9215909100004,339.93310530000053,341.2197472099998,EMOCONPILOT008,2020_Dec_12_1046,EmoCon_Pilot_120Hz,2020.2.4,119.97355782837421,
,,,,0,0,0,0,81,0,81,0,,,,,,,,,,,,,,,,,,,,,,,,,,,,,,,,,,,,,,,,,,,,,,81,5.0,m,027_o_m_s_a.jpg,sad,a,3,1,341.2239330000002,341.5197324100001,341.5429059999997,341.5657188100005,341.5664708000004,341.6041726100003,341.60543320000033,342.6236490100001,a,1,1.0053147999997236,1005.3147999997236,341.60543320000033,342.6236490100001,342.63209370000004,344.5530510099999,EMOCONPILOT008,2020_Dec_12_1046,EmoCon_Pilot_120Hz,2020.2.4,119.97355782837421,
,,,,0,0,0,0,82,0,82,0,,,,,,,,,,,,,,,,,,,,,,,,,,,,,,,,,,,,,,,,,,,,,,82,7.0,f,012_o_f_h_a.jpg,happy,d,3,1,344.55810889999975,344.8530428100004,344.8773172000001,344.90047121000055,344.9020618000004,344.93942841,344.94040310000037,345.4080584100003,d,1,0.4541361000001416,454.1361000001416,344.94040310000037,345.4080584100003,345.4158513000002,347.21985211000003,EMOCONPILOT008,2020_Dec_12_1046,EmoCon_Pilot_120Hz,2020.2.4,119.97355782837421,
,,,,0,0,0,0,83,0,83,0,,,,,,,,,,,,,,,,,,,,,,,,,,,,,,,,,,,,,,,,,,,,,,83,3.0,m,013_y_m_s_a.jpg,sad,a,3,1,347.22393509999984,347.5197801100004,347.53578370000014,347.55738760999986,347.55763110000044,347.5961046100002,347.59799459999977,348.24496271000055,a,1,0.636563500000193,636.563500000193,347.59799459999977,348.24496271000055,348.2533497000004,350.0948659100005,EMOCONPILOT008,2020_Dec_12_1046,EmoCon_Pilot_120Hz,2020.2.4,119.97355782837421,
,,,,0,0,0,0,84,0,84,0,,,,,,,,,,,,,,,,,,,,,,,,,,,,,,,,,,,,,,,,,,,,,,84,5.0,m,027_o_m_s_a.jpg,sad,a,17,1,350.0989515000001,350.3948278099998,350.4180886000004,350.5548486099998,350.55812870000045,350.59667081000055,350.6005774000005,351.3537142100005,s,0,0.7380897000002733,738.0897000002733,350.6005774000005,351.3537142100005,351.36419190000015,352.67824661000043,EMOCONPILOT008,2020_Dec_12_1046,EmoCon_Pilot_120Hz,2020.2.4,119.97355782837421,
,,,,0,0,0,0,85,0,85,0,,,,,,,,,,,,,,,,,,,,,,,,,,,,,,,,,,,,,,,,,,,,,,85,4.0,m,016_y_m_s_a.jpg,sad,a,3,1,352.6824432000003,352.9782217100002,353.00204870000016,353.0249842100003,353.02564150000035,353.0626661100006,353.0626235999998,353.95941030999995,a,1,0.8845109000003504,884.5109000003504,353.0626235999998,353.95941030999995,353.9703115000002,355.77003910999986,EMOCONPILOT008,2020_Dec_12_1046,EmoCon_Pilot_120Hz,2020.2.4,119.97355782837421,
,,,,0,0,0,0,86,0,86,0,,,,,,,,,,,,,,,,,,,,,,,,,,,,,,,,,,,,,,,,,,,,,,86,5.0,m,027_o_m_n_a.jpg,neutral,s,17,1,355.77553890000036,356.06995311000003,356.2970366999998,356.45731850999994,356.4611738000003,356.5022346100005,356.5070106000003,357.1306770100001,s,1,0.6154804999996486,615.4804999996486,356.5070106000003,357.1306770100001,357.1347529000004,358.9200436100001,EMOCONPILOT008,2020_Dec_12_1046,EmoCon_Pilot_120Hz,2020.2.4,119.97355782837421,
,,,,0,0,0,0,87,0,87,0,,,,,,,,,,,,,,,,,,,,,,,,,,,,,,,,,,,,,,,,,,,,,,87,3.0,m,013_y_m_h_a.jpg,happy,d,17,1,358.92568780000056,359.2199162099997,359.4557348999997,359.6163363100005,359.62132029999975,359.66222071000004,359.6662193000002,360.08351720999974,d,1,0.4087758000005124,408.7758000005124,359.6662193000002,360.08351720999974,360.0950848000002,361.87008351,EMOCONPILOT008,2020_Dec_12_1046,EmoCon_Pilot_120Hz,2020.2.4,119.97355782837421,
,,,,0,0,0,0,88,0,88,0,,,,,,,,,,,,,,,,,,,,,,,,,,,,,,,,,,,,,,,,,,,,,,88,5.0,m,027_o_m_s_a.jpg,sad,a,17,1,361.8707715999999,362.17014950999976,362.19208270000036,362.3301730100003,362.3336721000005,362.3714873099999,362.37483619999966,362.9162963099999,s,0,0.5316588999994565,531.6588999994565,362.37483619999966,362.9162963099999,362.9213589000001,364.44512761,EMOCONPILOT008,2020_Dec_12_1046,EmoCon_Pilot_120Hz,2020.2.4,119.97355782837421,
,,,,0,0,0,0,89,0,89,0,,,,,,,,,,,,,,,,,,,,,,,,,,,,,,,,,,,,,,,,,,,,,,89,5.0,m,027_o_m_s_a.jpg,sad,a,3,1,364.4493057999998,364.7451174099998,364.76605070000005,364.78917551000006,364.78984820000005,364.82604511000056,364.8272643,365.9209660099997,s,0,1.0796336000003066,1079.6336000003066,364.8272643,365.9209660099997,365.9306410999998,367.2536506100006,EMOCONPILOT008,2020_Dec_12_1046,EmoCon_Pilot_120Hz,2020.2.4,119.97355782837421,
,,,,0,0,0,0,90,0,90,0,,,,,,,,,,,,,,,,,,,,,,,,,,,,,,,,,,,,,,,,,,,,,,90,12.0,f,040_y_f_s_a.jpg,sad,a,17,1,367.2576699000001,367.5536322099998,367.57692920000045,367.71346151000046,367.71632750000026,367.7548065100001,367.7577215000001,368.35942661,a,1,0.5889263999997638,588.9263999997638,367.7577215000001,368.35942661,368.36495149999973,369.57034381000005,EMOCONPILOT008,2020_Dec_12_1046,EmoCon_Pilot_120Hz,2020.2.4,119.97355782837421,
,,,,0,0,0,0,91,0,91,0,,,,,,,,,,,,,,,,,,,,,,,,,,,,,,,,,,,,,,,,,,,,,,91,3.0,m,013_y_m_n_a.jpg,neutral,s,3,1,369.5759367999999,369.87025951000044,370.11541600000055,370.14095461000045,370.1411128999998,370.1761948100003,370.17568159999973,370.8008671099998,s,1,0.6111260999996375,611.1260999996375,370.17568159999973,370.8008671099998,370.8124587000002,372.5619639099997,EMOCONPILOT008,2020_Dec_12_1046,EmoCon_Pilot_120Hz,2020.2.4,119.97355782837421,
,,,,0,0,0,0,92,0,92,0,,,,,,,,,,,,,,,,,,,,,,,,,,,,,,,,,,,,,,,,,,,,,,92,12.0,f,040_y_f_s_a.jpg,sad,a,17,1,372.5662164000005,372.8619828100001,372.8872124999998,373.02192880999985,373.02511909999976,373.0632512100002,373.0665922999997,373.95495631000006,a,1,0.880144100000507,880.144100000507,373.0665922999997,373.95495631000006,373.96509849999984,375.5204001100002,EMOCONPILOT008,2020_Dec_12_1046,EmoCon_Pilot_120Hz,2020.2.4,119.97355782837421,
,,,,0,0,0,0,93,0,93,0,,,,,,,,,,,,,,,,,,,,,,,,,,,,,,,,,,,,,,,,,,,,,,93,6.0,m,033_o_m_s_a.jpg,sad,a,3,1,375.52438789999997,375.8204250099999,375.84298390000004,375.86572740999975,375.8664779999999,375.90483890999997,375.90601739999966,376.5751108100004,a,1,0.6569033999994645,656.9033999994645,375.90601739999966,376.5751108100004,376.5839725000005,378.11211001000004,EMOCONPILOT008,2020_Dec_12_1046,EmoCon_Pilot_120Hz,2020.2.4,119.97355782837421,
,,,,0,0,0,0,94,0,94,0,,,,,,,,,,,,,,,,,,,,,,,,,,,,,,,,,,,,,,,,,,,,,,94,2.0,m,008_y_m_s_a.jpg,sad,a,3,1,378.11533599999984,378.41222161000053,378.65722110000024,378.6840391100005,378.68800050000027,378.7295907099998,378.73454409999977,379.2644558100002,a,1,0.5160691000000952,516.0691000000952,378.73454409999977,379.2644558100002,379.27230789999976,381.1039210099999,EMOCONPILOT008,2020_Dec_12_1046,EmoCon_Pilot_120Hz,2020.2.4,119.97355782837421,
,,,,0,0,0,0,95,0,95,0,,,,,,,,,,,,,,,,,,,,,,,,,,,,,,,,,,,,,,,,,,,,,,95,8.0,f,019_m_f_s_a.jpg,sad,a,3,1,381.1081905000001,381.4039406100002,381.64760099999967,381.6742146099997,381.6747802,381.71494451000046,381.72015269999974,382.2497544099998,a,1,0.5146124000002601,514.6124000002601,381.72015269999974,382.2497544099998,382.26130809999995,383.54554421000023,EMOCONPILOT008,2020_Dec_12_1046,EmoCon_Pilot_120Hz,2020.2.4,119.97355782837421,
,,,,0,0,0,0,96,0,96,0,,,,,,,,,,,,,,,,,,,,,,,,,,,,,,,,,,,,,,,,,,,,,,96,9.0,f,021_o_f_n_a.jpg,neutral,s,17,1,383.55093730000044,383.8455532099998,384.05225729999984,384.22116581000057,384.22589979999975,384.2665497099998,384.27094769999985,384.7201775100003,s,1,0.435660199999802,435.660199999802,384.27094769999985,384.7201775100003,384.73176760000024,386.65396321000037,EMOCONPILOT008,2020_Dec_12_1046,EmoCon_Pilot_120Hz,2020.2.4,119.97355782837421,
,,,,0,0,0,0,97,0,97,0,,,,,,,,,,,,,,,,,,,,,,,,,,,,,,,,,,,,,,,,,,,,,,97,11.0,f,030_o_f_h_a.jpg,happy,d,17,1,386.6595434999999,386.95394881000004,387.15130169999975,387.31962381000005,387.3242190000001,387.3646318100001,387.36967970000023,387.79858571000034,d,1,0.4167754000000059,416.7754000000059,387.36967970000023,387.79858571000034,387.80153859999973,389.26243141000043,EMOCONPILOT008,2020_Dec_12_1046,EmoCon_Pilot_120Hz,2020.2.4,119.97355782837421,
,,,,0,0,0,0,98,0,98,0,,,,,,,,,,,,,,,,,,,,,,,,,,,,,,,,,,,,,,,,,,,,,,98,12.0,f,040_y_f_n_a.jpg,neutral,s,3,1,389.26789650000046,389.5623970099997,389.7784566,389.80493880999995,389.80797919999986,389.8462640099998,389.85146369999984,390.41020611000033,s,1,0.5512312999999267,551.2312999999267,389.85146369999984,390.41020611000033,390.4220928000004,392.3290921099998,EMOCONPILOT008,2020_Dec_12_1046,EmoCon_Pilot_120Hz,2020.2.4,119.97355782837421,
,,,,0,0,0,0,99,0,99,0,,,,,,,,,,,,,,,,,,,,,,,,,,,,,,,,,,,,,,,,,,,,,,99,12.0,f,040_y_f_s_a.jpg,sad,a,17,1,392.33364379999966,392.62903861000007,392.65184490000047,392.78899701000057,392.7921226999997,392.8312657099997,392.83522379999977,393.1706415099999,s,0,0.3195567000002484,319.5567000002484,392.83522379999977,393.1706415099999,393.18068180000046,394.34583101000055,EMOCONPILOT008,2020_Dec_12_1046,EmoCon_Pilot_120Hz,2020.2.4,119.97355782837421,
,,,,0,0,0,0,100,0,100,0,,,,,,,,,,,,,,,,,,,,,,,,,,,,,,,,,,,,,,,,,,,,,,100,4.0,m,016_y_m_n_a.jpg,neutral,s,3,1,394.3503872000001,394.6458558100004,394.88889819999986,394.9150193100005,394.91861059999974,394.95636011,394.9617897999997,395.49073031,s,1,0.521131499999683,521.131499999683,394.9617897999997,395.49073031,395.5023326999999,396.52909231000024,EMOCONPILOT008,2020_Dec_12_1046,EmoCon_Pilot_120Hz,2020.2.4,119.97355782837421,
,,,,0,0,0,0,101,0,101,0,,,,,,,,,,,,,,,,,,,,,,,,,,,,,,,,,,,,,,,,,,,,,,101,11.0,f,030_o_f_s_a.jpg,sad,a,3,1,396.53226189999987,396.8292123100001,397.0260404999999,397.0516929100005,397.05253939999966,397.0887214100004,397.0887014,397.7223960100001,a,1,0.617992299999969,617.992299999969,397.0887014,397.7223960100001,397.7316843999997,399.7125601099998,EMOCONPILOT008,2020_Dec_12_1046,EmoCon_Pilot_120Hz,2020.2.4,119.97355782837421,
,,,,0,0,0,0,102,0,102,0,,,,,,,,,,,,,,,,,,,,,,,,,,,,,,,,,,,,,,,,,,,,,,102,3.0,m,013_y_m_h_a.jpg,happy,d,3,1,399.7158810000001,400.01253761000055,400.24521150000055,400.27120971000033,400.2715439000003,400.3074034100001,400.3073224,400.79432370999996,s,0,0.47147619999941526,471.47619999941526,400.3073224,400.79432370999996,400.8034604000004,402.33765251000034,EMOCONPILOT008,2020_Dec_12_1046,EmoCon_Pilot_120Hz,2020.2.4,119.97355782837421,
,,,,0,0,0,0,103,0,103,0,,,,,,,,,,,,,,,,,,,,,,,,,,,,,,,,,,,,,,,,,,,,,,103,2.0,m,008_y_m_s_a.jpg,sad,a,17,1,402.34309029999986,402.63759141,402.8733951000004,403.03160931000014,403.0348433999998,403.07222831000047,403.07630900000004,403.5412432100003,a,1,0.45432069999969826,454.32069999969826,403.07630900000004,403.5412432100003,403.5530256000002,405.1043935099998,EMOCONPILOT008,2020_Dec_12_1046,EmoCon_Pilot_120Hz,2020.2.4,119.97355782837421,
,,,,0,0,0,0,104,0,104,0,,,,,,,,,,,,,,,,,,,,,,,,,,,,,,,,,,,,,,,,,,,,,,104,11.0,f,030_o_f_s_a.jpg,sad,a,17,1,405.1099285999999,405.40434251,405.6073483,405.76888230999987,405.7723009000001,405.8101897099997,405.81403409999984,406.4928073100001,a,1,0.6685867999995025,668.5867999995025,405.81403409999984,406.4928073100001,406.5050061000002,408.4877488100002,EMOCONPILOT008,2020_Dec_12_1046,EmoCon_Pilot_120Hz,2020.2.4,119.97355782837421,
,,,,0,0,0,0,105,0,105,0,,,,,,,,,,,,,,,,,,,,,,,,,,,,,,,,,,,,,,,,,,,,,,105,4.0,m,016_y_m_h_a.jpg,happy,d,17,1,408.49299859999974,408.78772081,408.8135953000001,408.9480005100005,408.9526323,408.9931191100005,408.9983804000003,409.3762964099998,d,1,0.364241199999924,364.241199999924,408.9983804000003,409.3762964099998,409.3870710000001,411.23789261000013,EMOCONPILOT008,2020_Dec_12_1046,EmoCon_Pilot_120Hz,2020.2.4,119.97355782837421,
,,,,0,0,0,0,106,0,106,0,,,,,,,,,,,,,,,,,,,,,,,,,,,,,,,,,,,,,,,,,,,,,,106,7.0,f,012_o_f_n_a.jpg,neutral,s,3,1,411.2432976,411.5378945100002,411.7477636000003,411.77554591,411.77892299999985,411.8173693099999,411.82098360000055,412.6164579100006,a,0,0.7816210999999385,781.6210999999385,411.82098360000055,412.6164579100006,412.6280311999999,414.54630010999983,EMOCONPILOT008,2020_Dec_12_1046,EmoCon_Pilot_120Hz,2020.2.4,119.97355782837421,
,,,,0,0,0,0,107,0,107,0,,,,,,,,,,,,,,,,,,,,,,,,,,,,,,,,,,,,,,,,,,,,,,107,11.0,f,030_o_f_h_a.jpg,happy,d,17,1,414.5517640999997,414.84629400999995,415.04924409999967,415.20924061000017,415.2113558000001,415.2487532100005,415.2517278000005,415.5890197099999,d,1,0.32697749999988446,326.97749999988446,415.2517278000005,415.5890197099999,415.5972404000004,416.80456871000035,EMOCONPILOT008,2020_Dec_12_1046,EmoCon_Pilot_120Hz,2020.2.4,119.97355782837421,
,,,,0,0,0,0,108,0,108,0,,,,,,,,,,,,,,,,,,,,,,,,,,,,,,,,,,,,,,,,,,,,,,108,1.0,m,004_o_m_s_a.jpg,sad,a,3,1,416.80864500000007,417.10456201000045,417.1289647000003,417.15081051000027,417.15173700000014,417.1890207100006,417.1890421999997,418.01842261000013,a,1,0.8215157000004183,821.5157000004183,417.1890421999997,418.01842261000013,418.02612899999986,419.6545062100005,EMOCONPILOT008,2020_Dec_12_1046,EmoCon_Pilot_120Hz,2020.2.4,119.97355782837421,
,,,,0,0,0,0,109,0,109,0,,,,,,,,,,,,,,,,,,,,,,,,,,,,,,,,,,,,,,,,,,,,,,109,3.0,m,013_y_m_n_a.jpg,neutral,s,17,1,419.65753399999994,419.9546095100005,420.2013259000005,420.35459550999997,420.3596647000004,420.3989549099998,420.40253870000015,420.7878365099997,s,1,0.37604279999959545,376.04279999959545,420.40253870000015,420.7878365099997,420.79600260000007,422.42135561000043,EMOCONPILOT008,2020_Dec_12_1046,EmoCon_Pilot_120Hz,2020.2.4,119.97355782837421,
,,,,0,0,0,0,110,0,110,0,,,,,,,,,,,,,,,,,,,,,,,,,,,,,,,,,,,,,,,,,,,,,,110,10.0,f,028_y_f_s_a.jpg,sad,a,17,1,422.42566540000007,422.7213386100003,422.7528557000005,422.8896409099999,422.8914461000004,422.9310008100002,422.9324681999997,423.49707340999987,a,1,0.5502328000002308,550.2328000002308,422.9324681999997,423.49707340999987,423.5063525000005,425.3797873100003,EMOCONPILOT008,2020_Dec_12_1046,EmoCon_Pilot_120Hz,2020.2.4,119.97355782837421,
,,,,0,0,0,0,111,0,111,0,,,,,,,,,,,,,,,,,,,,,,,,,,,,,,,,,,,,,,,,,,,,,,111,11.0,f,030_o_f_h_a.jpg,happy,d,17,1,425.38405539999985,425.6797058100002,425.88439819999985,426.0428384099997,426.0476150000004,426.0886448100001,426.0939779,426.4003388100001,d,1,0.2926136999994924,292.6136999994924,426.0939779,426.4003388100001,426.4118589999998,428.3464866100004,EMOCONPILOT008,2020_Dec_12_1046,EmoCon_Pilot_120Hz,2020.2.4,119.97355782837421,
,,,,0,0,0,0,112,0,112,0,,,,,,,,,,,,,,,,,,,,,,,,,,,,,,,,,,,,,,,,,,,,,,112,7.0,f,012_o_f_n_a.jpg,neutral,s,17,1,428.35179739999967,428.6465089100003,428.8634646999999,429.0288739099998,429.0324477000004,429.0734566100001,429.0783839000005,429.50708640999994,s,1,0.4204579000006561,420.4579000006561,429.0783839000005,429.50708640999994,429.5186217999999,431.2215943100001,EMOCONPILOT008,2020_Dec_12_1046,EmoCon_Pilot_120Hz,2020.2.4,119.97355782837421,
,,,,0,0,0,0,113,0,113,0,,,,,,,,,,,,,,,,,,,,,,,,,,,,,,,,,,,,,,,,,,,,,,113,2.0,m,008_y_m_s_a.jpg,sad,a,3,1,431.2261040000003,431.52152640999986,431.7458808000001,431.7712543099998,431.7715629000004,431.80611170999975,431.8061429999998,432.34244220999983,a,1,0.5244648999996571,524.4648999996571,431.8061429999998,432.34244220999983,432.3519900000001,433.7215491099997,EMOCONPILOT008,2020_Dec_12_1046,EmoCon_Pilot_120Hz,2020.2.4,119.97355782837421,
,,,,0,0,0,0,114,0,114,0,,,,,,,,,,,,,,,,,,,,,,,,,,,,,,,,,,,,,,,,,,,,,,114,11.0,f,030_o_f_h_a.jpg,happy,d,3,1,433.7253443999998,434.02154110999993,434.22026730000016,434.24710311000047,434.2517671000005,434.2928275100004,434.2972170000003,434.7773449100006,d,1,0.46543320000000676,465.43320000000676,434.2972170000003,434.7773449100006,434.78408949999994,435.88828991,EMOCONPILOT008,2020_Dec_12_1046,EmoCon_Pilot_120Hz,2020.2.4,119.97355782837421,
,,,,0,0,0,0,115,0,115,0,,,,,,,,,,,,,,,,,,,,,,,,,,,,,,,,,,,,,,,,,,,,,,115,3.0,m,013_y_m_h_a.jpg,happy,d,17,1,435.89254789999995,436.1882856100002,436.4239354000001,436.5859986100005,436.59097500000007,436.6303581100002,436.6355045999999,437.1544029099997,d,1,0.5110437000003003,511.0437000003003,436.6355045999999,437.1544029099997,437.1618282999998,438.6800264100003,EMOCONPILOT008,2020_Dec_12_1046,EmoCon_Pilot_120Hz,2020.2.4,119.97355782837421,
,,,,0,0,0,0,116,0,116,0,,,,,,,,,,,,,,,,,,,,,,,,,,,,,,,,,,,,,,,,,,,,,,116,2.0,m,008_y_m_s_a.jpg,sad,a,17,1,438.6855249,438.9801419100005,439.2123098000002,439.3704667100002,439.3749872999997,439.41378761000044,439.4188100000001,439.8274700100002,a,1,0.39210000000002765,392.10000000002765,439.4188100000001,439.8274700100002,439.8381424999998,441.0467585100006,EMOCONPILOT008,2020_Dec_12_1046,EmoCon_Pilot_120Hz,2020.2.4,119.97355782837421,
,,,,0,0,0,0,117,0,117,0,,,,,,,,,,,,,,,,,,,,,,,,,,,,,,,,,,,,,,,,,,,,,,117,3.0,m,013_y_m_n_a.jpg,neutral,s,17,1,441.0520277000005,441.3468167100001,441.5805403000004,441.7343152100003,441.73826720000034,441.7791294099999,441.7842618000004,442.1712382100005,s,1,0.3704568000002837,370.4568000002837,441.7842618000004,442.1712382100005,442.1826705000003,443.7384458099997,EMOCONPILOT008,2020_Dec_12_1046,EmoCon_Pilot_120Hz,2020.2.4,119.97355782837421,
,,,,0,0,0,0,118,0,118,0,,,,,,,,,,,,,,,,,,,,,,,,,,,,,,,,,,,,,,,,,,,,,,118,6.0,m,033_o_m_n_a.jpg,neutral,s,17,1,443.74259489999986,444.03856091000046,444.2364558999998,444.3955717099999,444.40012339999976,444.4388785100001,444.4426749000004,445.01134311,s,1,0.5520363000005091,552.0363000005091,444.4426749000004,445.01134311,445.0233967000004,446.23858981000024,EMOCONPILOT008,2020_Dec_12_1046,EmoCon_Pilot_120Hz,2020.2.4,119.97355782837421,
,,,,0,0,0,0,119,0,119,0,,,,,,,,,,,,,,,,,,,,,,,,,,,,,,,,,,,,,,,,,,,,,,119,6.0,m,033_o_m_n_a.jpg,neutral,s,17,1,446.24455540000054,446.53854710999997,446.73312590000023,446.9022066099998,446.90734109999994,446.94813201000045,446.9532687000001,447.20834640999976,s,1,0.2413753999999244,241.3753999999244,446.9532687000001,447.20834640999976,447.2185896000001,449.17195680999987,EMOCONPILOT008,2020_Dec_12_1046,EmoCon_Pilot_120Hz,2020.2.4,119.97355782837421,
,,,,1,0,1,0,0,0,0,0,,,,,,,,,,,,,,,,,,,,,,,,,,,,,,,,,,,,,,,449.2667309999997,451.68253041000037,d,2.3998852000004263,2399.8852000004263,449.2667309999997,451.68253041000037,0,1.0,m,004_o_m_s_a.jpg,sad,a,17,2,451.68988790000003,451.98042331000045,452.0037192,452.14027521000037,452.14538340000036,452.18606861,452.1910730999998,453.04246521000016,a,1,0.8435331999999107,843.5331999999107,452.1910730999998,453.04246521000016,453.05206350000026,454.6888046100004,EMOCONPILOT008,2020_Dec_12_1046,EmoCon_Pilot_120Hz,2020.2.4,119.97355782837421,
,,,,1,0,1,0,1,0,1,0,,,,,,,,,,,,,,,,,,,,,,,,,,,,,,,,,,,,,,,,,,,,,,1,9.0,f,021_o_f_n_a.jpg,neutral,s,17,2,454.69427970000015,454.98870631000057,455.2079980999997,455.36606071000017,455.3691367000001,455.40664651000054,455.40993570000046,455.8898936100005,s,1,0.47261580000031245,472.61580000031245,455.40993570000046,455.8898936100005,455.89446150000003,457.38057330999993,EMOCONPILOT008,2020_Dec_12_1046,EmoCon_Pilot_120Hz,2020.2.4,119.97355782837421,
,,,,1,0,1,0,2,0,2,0,,,,,,,,,,,,,,,,,,,,,,,,,,,,,,,,,,,,,,,,,,,,,,2,11.0,f,030_o_f_s_a.jpg,sad,a,17,2,457.38122060000023,457.6801095100001,457.87451299999975,458.0429228100003,458.04509770000004,458.0861659100002,458.0914407,458.76260121000007,a,1,0.6632846000002246,663.2846000002246,458.0914407,458.76260121000007,458.7711672000005,460.43050350999977,EMOCONPILOT008,2020_Dec_12_1046,EmoCon_Pilot_120Hz,2020.2.4,119.97355782837421,
,,,,1,0,1,0,3,0,3,0,,,,,,,,,,,,,,,,,,,,,,,,,,,,,,,,,,,,,,,,,,,,,,3,10.0,f,028_y_f_s_a.jpg,sad,a,17,2,460.4358781000001,460.73050871000044,460.75539780000054,460.89054561000023,460.8954153000004,460.93644381000024,460.94163219999973,461.55022401000053,a,1,0.5971659000006184,597.1659000006184,460.94163219999973,461.55022401000053,461.56200179999996,462.81391781000013,EMOCONPILOT008,2020_Dec_12_1046,EmoCon_Pilot_120Hz,2020.2.4,119.97355782837421,
,,,,1,0,1,0,4,0,4,0,,,,,,,,,,,,,,,,,,,,,,,,,,,,,,,,,,,,,,,,,,,,,,4,6.0,m,033_o_m_n_a.jpg,neutral,s,2,2,462.8180715999997,463.11383880999995,463.31485040000007,463.3322444100005,463.3330108,463.3689041099998,463.36885789999997,464.61405441,s,1,1.2337602999996307,1233.7602999996307,463.36885789999997,464.61405441,464.6215076999997,466.24737681,EMOCONPILOT008,2020_Dec_12_1046,EmoCon_Pilot_120Hz,2020.2.4,119.97355782837421,
,,,,1,0,1,0,5,0,5,0,,,,,,,,,,,,,,,,,,,,,,,,,,,,,,,,,,,,,,,,,,,,,,5,1.0,m,004_o_m_n_a.jpg,neutral,s,2,2,466.25275109999984,466.5473398100004,466.74304519999987,466.76070511000046,466.7640029000004,466.80262701000004,466.80571860000055,467.86200991,s,1,1.0448852999998053,1044.8852999998053,466.80571860000055,467.86200991,467.8738641,469.2140853100001,EMOCONPILOT008,2020_Dec_12_1046,EmoCon_Pilot_120Hz,2020.2.4,119.97355782837421,
,,,,1,0,1,0,6,0,6,0,,,,,,,,,,,,,,,,,,,,,,,,,,,,,,,,,,,,,,,,,,,,,,6,12.0,f,040_y_f_s_a.jpg,sad,a,17,2,469.21952430000056,469.5141181099999,469.5363838000003,469.67403491000016,469.6790417000002,469.7196674099997,469.72495230000004,470.20463811,a,1,0.4698807000004308,469.8807000004308,469.72495230000004,470.20463811,470.2164474000001,471.90578671000014,EMOCONPILOT008,2020_Dec_12_1046,EmoCon_Pilot_120Hz,2020.2.4,119.97355782837421,
,,,,1,0,1,0,7,0,7,0,,,,,,,,,,,,,,,,,,,,,,,,,,,,,,,,,,,,,,,,,,,,,,7,9.0,f,021_o_f_n_a.jpg,neutral,s,2,2,471.9098971000003,472.2058027100003,472.4201529000002,472.4368604100001,472.4388617000004,472.4773346100002,472.4804866000004,473.70122860999993,s,1,1.2102489999997488,1210.2489999997488,472.4804866000004,473.70122860999993,473.71440189999976,475.28912821000006,EMOCONPILOT008,2020_Dec_12_1046,EmoCon_Pilot_120Hz,2020.2.4,119.97355782837421,
,,,,1,0,1,0,8,0,8,0,,,,,,,,,,,,,,,,,,,,,,,,,,,,,,,,,,,,,,,,,,,,,,8,9.0,f,021_o_f_s_a.jpg,sad,a,17,2,475.2943680999997,475.5891528100002,475.61494500000026,475.7491370099998,475.75258310000027,475.7926769100005,475.7969380000004,476.72393131,a,1,0.9098336999995809,909.8336999995809,475.7969380000004,476.72393131,476.7345244999997,478.5308332100004,EMOCONPILOT008,2020_Dec_12_1046,EmoCon_Pilot_120Hz,2020.2.4,119.97355782837421,
,,,,1,0,1,0,9,0,9,0,,,,,,,,,,,,,,,,,,,,,,,,,,,,,,,,,,,,,,,,,,,,,,9,4.0,m,016_y_m_s_a.jpg,sad,a,17,2,478.53468220000013,478.83083761000046,478.85083010000017,478.98250651000046,478.9860276999998,479.02625361,479.03164149999975,479.4722047100005,a,1,0.4272850000006656,427.2850000006656,479.03164149999975,479.4722047100005,479.48332800000026,481.03090860999976,EMOCONPILOT008,2020_Dec_12_1046,EmoCon_Pilot_120Hz,2020.2.4,119.97355782837421,
,,,,1,0,1,0,10,0,10,0,,,,,,,,,,,,,,,,,,,,,,,,,,,,,,,,,,,,,,,,,,,,,,10,7.0,f,012_o_f_n_a.jpg,neutral,s,17,2,481.0315461,481.33093801000007,481.56178120000004,481.7324449099998,481.73691620000045,481.7777249100001,481.78271120000045,482.1691677099999,s,1,0.37214029999995546,372.14029999995546,481.78271120000045,482.1691677099999,482.1805854000004,483.38101431000007,EMOCONPILOT008,2020_Dec_12_1046,EmoCon_Pilot_120Hz,2020.2.4,119.97355782837421,
,,,,1,0,1,0,11,0,11,0,,,,,,,,,,,,,,,,,,,,,,,,,,,,,,,,,,,,,,,,,,,,,,11,2.0,m,008_y_m_n_a.jpg,neutral,s,17,2,483.3852459,483.6810222100004,483.91342989999976,484.07121951000056,484.0758415,484.11672981000004,484.1217409000001,484.49802551000005,s,1,0.3690065999999206,369.0065999999206,484.1217409000001,484.49802551000005,484.5085191999997,485.89775930999997,EMOCONPILOT008,2020_Dec_12_1046,EmoCon_Pilot_120Hz,2020.2.4,119.97355782837421,
,,,,1,0,1,0,12,0,12,0,,,,,,,,,,,,,,,,,,,,,,,,,,,,,,,,,,,,,,,,,,,,,,12,1.0,m,004_o_m_s_a.jpg,sad,a,2,2,485.9019876000002,486.19765930999995,486.2197981999998,486.23488481000015,486.23525599999994,486.27386691000004,486.2739954999997,487.4934877100005,a,1,1.2085980000001655,1208.5980000001655,486.2739954999997,487.4934877100005,487.5007821999998,489.0810794099999,EMOCONPILOT008,2020_Dec_12_1046,EmoCon_Pilot_120Hz,2020.2.4,119.97355782837421,
,,,,1,0,1,0,13,0,13,0,,,,,,,,,,,,,,,,,,,,,,,,,,,,,,,,,,,,,,,,,,,,,,13,7.0,f,012_o_f_h_a.jpg,happy,d,17,2,489.08662319999985,489.3811972100003,489.4024889000002,489.53262581000047,489.5358253000004,489.5739080100003,489.5771157999998,490.12334940999983,d,1,0.5374917999997706,537.4917999997706,489.5771157999998,490.12334940999983,490.13171260000036,491.3895792100003,EMOCONPILOT008,2020_Dec_12_1046,EmoCon_Pilot_120Hz,2020.2.4,119.97355782837421,
,,,,1,0,1,0,14,0,14,0,,,,,,,,,,,,,,,,,,,,,,,,,,,,,,,,,,,,,,,,,,,,,,14,3.0,m,013_y_m_h_a.jpg,happy,d,17,2,491.39531910000005,491.6895566100003,491.9360407000004,492.0988961100003,492.1029865999999,492.1440396099998,492.14937590000045,492.58835181000006,d,1,0.4213171000001239,421.3171000001239,492.14937590000045,492.58835181000006,492.5995063999999,494.38113031000023,EMOCONPILOT008,2020_Dec_12_1046,EmoCon_Pilot_120Hz,2020.2.4,119.97355782837421,
,,,,1,0,1,0,15,0,15,0,,,,,,,,,,,,,,,,,,,,,,,,,,,,,,,,,,,,,,,,,,,,,,15,11.0,f,030_o_f_n_a.jpg,neutral,s,17,2,494.38490040000033,494.6811437100006,494.88393499999984,495.04865691000043,495.05353060000016,495.09437610999987,495.09942370000044,495.50572341000054,s,1,0.3993536000007225,399.3536000007225,495.09942370000044,495.50572341000054,495.5163634999999,496.55619371000023,EMOCONPILOT008,2020_Dec_12_1046,EmoCon_Pilot_120Hz,2020.2.4,119.97355782837421,
,,,,1,0,1,0,16,0,16,0,,,,,,,,,,,,,,,,,,,,,,,,,,,,,,,,,,,,,,,,,,,,,,16,3.0,m,013_y_m_n_a.jpg,neutral,s,2,2,496.56016230000023,496.85622101,497.1098161,497.12727921,497.12771500000053,497.16563921000045,497.16483359999984,498.1551137100006,s,1,0.9821429999992688,982.1429999992688,497.16483359999984,498.1551137100006,498.1578946999998,499.39797740999995,EMOCONPILOT008,2020_Dec_12_1046,EmoCon_Pilot_120Hz,2020.2.4,119.97355782837421,
,,,,1,0,1,0,17,0,17,0,,,,,,,,,,,,,,,,,,,,,,,,,,,,,,,,,,,,,,,,,,,,,,17,9.0,f,021_o_f_h_a.jpg,happy,d,17,2,499.40350170000056,499.69796491000045,499.90090299999974,500.0633557100001,500.06779300000017,500.1089015099998,500.1141244999999,500.48180871000034,d,1,0.35262299999976676,352.62299999976676,500.1141244999999,500.48180871000034,500.49241919999986,501.68977990999986,EMOCONPILOT008,2020_Dec_12_1046,EmoCon_Pilot_120Hz,2020.2.4,119.97355782837421,
,,,,1,0,1,0,18,0,18,0,,,,,,,,,,,,,,,,,,,,,,,,,,,,,,,,,,,,,,,,,,,,,,18,3.0,m,013_y_m_s_a.jpg,sad,a,17,2,501.6953487999999,501.9896817099999,502.0162505999997,502.1496922100006,502.15397480000047,502.1948583100003,502.1999536000003,502.6770709100002,a,1,0.4667167999996309,466.7167999996309,502.1999536000003,502.6770709100002,502.6886688000004,503.95645501000047,EMOCONPILOT008,2020_Dec_12_1046,EmoCon_Pilot_120Hz,2020.2.4,119.97355782837421,
,,,,1,0,1,0,19,0,19,0,,,,,,,,,,,,,,,,,,,,,,,,,,,,,,,,,,,,,,,,,,,,,,19,10.0,f,028_y_f_h_a.jpg,happy,d,2,2,503.96283349999976,504.25639480999973,504.2805472,504.2958531100004,504.2977258000001,504.3341296099999,504.33583799999997,505.0347365099998,d,1,0.6909513999999035,690.9513999999035,504.33583799999997,505.0347365099998,505.0432977999999,506.5064435100004,EMOCONPILOT008,2020_Dec_12_1046,EmoCon_Pilot_120Hz,2020.2.4,119.97355782837421,
,,,,1,0,1,0,20,0,20,0,,,,,,,,,,,,,,,,,,,,,,,,,,,,,,,,,,,,,,,,,,,,,,20,4.0,m,016_y_m_h_a.jpg,happy,d,17,2,506.51188400000046,506.8064464099999,506.8275715999998,506.95808340999986,506.9609655000004,507.00040920999993,507.00437450000027,507.30756551000025,d,1,0.2862758000001122,286.2758000001122,507.00437450000027,507.30756551000025,507.3174574000004,508.3647471100004,EMOCONPILOT008,2020_Dec_12_1046,EmoCon_Pilot_120Hz,2020.2.4,119.97355782837421,
,,,,1,0,1,0,21,0,21,0,,,,,,,,,,,,,,,,,,,,,,,,,,,,,,,,,,,,,,,,,,,,,,21,6.0,m,033_o_m_h_a.jpg,happy,d,17,2,508.3682226000001,508.66481731000033,508.68634550000024,508.82487691000017,508.8286128999998,508.86611551,508.8693837999999,509.2251690100003,d,1,0.3412783000003401,341.2783000003401,508.8693837999999,509.2251690100003,509.23496780000005,510.2732708100003,EMOCONPILOT008,2020_Dec_12_1046,EmoCon_Pilot_120Hz,2020.2.4,119.97355782837421,
,,,,1,0,1,0,22,0,22,0,,,,,,,,,,,,,,,,,,,,,,,,,,,,,,,,,,,,,,,,,,,,,,22,5.0,m,027_o_m_s_a.jpg,sad,a,17,2,510.2787401000005,510.57319031000054,510.59813209999993,510.73323680999977,510.7362798000004,510.77442860999975,510.7778973000004,511.5862507100002,a,1,0.7927106999995885,792.7106999995885,510.7778973000004,511.5862507100002,511.5973888999997,512.9232341099997,EMOCONPILOT008,2020_Dec_12_1046,EmoCon_Pilot_120Hz,2020.2.4,119.97355782837421,
,,,,1,0,1,0,23,0,23,0,,,,,,,,,,,,,,,,,,,,,,,,,,,,,,,,,,,,,,,,,,,,,,23,10.0,f,028_y_f_n_a.jpg,neutral,s,2,2,512.9271328000004,513.2233390100001,513.4259914000004,513.44376441,513.4448782999998,513.48273721,513.4828089000002,514.1344923099997,s,1,0.6398622999995496,639.8622999995496,513.4828089000002,514.1344923099997,514.1448019,516.0316128100004,EMOCONPILOT008,2020_Dec_12_1046,EmoCon_Pilot_120Hz,2020.2.4,119.97355782837421,
,,,,1,0,1,0,24,0,24,0,,,,,,,,,,,,,,,,,,,,,,,,,,,,,,,,,,,,,,,,,,,,,,24,9.0,f,021_o_f_n_a.jpg,neutral,s,17,2,516.0358931000001,516.3316589100006,516.5447162,516.7059853100001,516.7108808000003,516.7525031100005,516.7570056000004,517.0980278099997,s,1,0.3257080000003043,325.7080000003043,516.7570056000004,517.0980278099997,517.1065206000003,518.4650213100005,EMOCONPILOT008,2020_Dec_12_1046,EmoCon_Pilot_120Hz,2020.2.4,119.97355782837421,
,,,,1,0,1,0,25,0,25,0,,,,,,,,,,,,,,,,,,,,,,,,,,,,,,,,,,,,,,,,,,,,,,25,8.0,f,019_m_f_h_a.jpg,happy,d,17,2,518.4690560999998,518.7651019100005,518.7888328999998,518.92503641,518.9283378999999,518.9662413100006,518.9696718000005,519.4065774100001,d,1,0.42513120000057825,425.13120000057825,518.9696718000005,519.4065774100001,519.4172840000001,521.2567213100002,EMOCONPILOT008,2020_Dec_12_1046,EmoCon_Pilot_120Hz,2020.2.4,119.97355782837421,
,,,,1,0,1,0,26,0,26,0,,,,,,,,,,,,,,,,,,,,,,,,,,,,,,,,,,,,,,,,,,,,,,26,4.0,m,016_y_m_n_a.jpg,neutral,s,2,2,521.2607327000005,521.5567428100004,521.7990835,521.8166286100005,521.8200613999998,521.85792701,521.8616307000002,522.8194576100005,a,0,0.9417646000001696,941.7646000001696,521.8616307000002,522.8194576100005,522.8309638999999,524.3901125100002,EMOCONPILOT008,2020_Dec_12_1046,EmoCon_Pilot_120Hz,2020.2.4,119.97355782837421,
,,,,1,0,1,0,27,0,27,0,,,,,,,,,,,,,,,,,,,,,,,,,,,,,,,,,,,,,,,,,,,,,,27,1.0,m,004_o_m_h_a.jpg,happy,d,2,2,524.3961046000004,524.6901350099998,524.8905098000005,524.9079175099997,524.9083320999998,524.9426920100005,524.9423585000004,525.4784751099997,d,1,0.5241987999997946,524.1987999997946,524.9423585000004,525.4784751099997,525.4880724000004,526.9069345099998,EMOCONPILOT008,2020_Dec_12_1046,EmoCon_Pilot_120Hz,2020.2.4,119.97355782837421,
,,,,1,0,1,0,28,0,28,0,,,,,,,,,,,,,,,,,,,,,,,,,,,,,,,,,,,,,,,,,,,,,,28,10.0,f,028_y_f_s_a.jpg,sad,a,17,2,526.9112486000004,527.2069194100005,527.2307025999999,527.36678881,527.3698202000005,527.4081861100004,527.4110605000005,527.92187381,a,1,0.49560270000074524,495.60270000074524,527.4110605000005,527.92187381,527.9309702999999,529.1902459100003,EMOCONPILOT008,2020_Dec_12_1046,EmoCon_Pilot_120Hz,2020.2.4,119.97355782837421,
,,,,1,0,1,0,29,0,29,0,,,,,,,,,,,,,,,,,,,,,,,,,,,,,,,,,,,,,,,,,,,,,,29,5.0,m,027_o_m_h_a.jpg,happy,d,17,2,529.1956901000003,529.4902531099998,529.7025865000005,529.8649571100005,529.8684900999997,529.9058117100004,529.9089086000004,530.31451011,d,1,0.38995429999977205,389.95429999977205,529.9089086000004,530.31451011,530.3265434000004,531.3819265100002,EMOCONPILOT008,2020_Dec_12_1046,EmoCon_Pilot_120Hz,2020.2.4,119.97355782837421,
,,,,1,0,1,0,30,0,30,0,,,,,,,,,,,,,,,,,,,,,,,,,,,,,,,,,,,,,,,,,,,,,,30,10.0,f,028_y_f_h_a.jpg,happy,d,17,2,531.3860106000002,531.6819313100006,531.7021384999998,531.8336083100004,531.8367075000006,531.8758432100004,531.8798249000001,532.2243809100001,d,1,0.33086400000047433,330.86400000047433,531.8798249000001,532.2243809100001,532.2343361000003,534.0903584099998,EMOCONPILOT008,2020_Dec_12_1046,EmoCon_Pilot_120Hz,2020.2.4,119.97355782837421,
,,,,1,0,1,0,31,0,31,0,,,,,,,,,,,,,,,,,,,,,,,,,,,,,,,,,,,,,,,,,,,,,,31,5.0,m,027_o_m_h_a.jpg,happy,d,2,2,534.0953199000005,534.3903647099997,534.5937860000004,534.6109105100005,534.6114951999998,534.6475933100002,534.6491840999997,535.18514401,d,1,0.5214480999993611,521.4480999993611,534.6491840999997,535.18514401,535.1942967000005,537.0736845100001,EMOCONPILOT008,2020_Dec_12_1046,EmoCon_Pilot_120Hz,2020.2.4,119.97355782837421,
,,,,1,0,1,0,32,0,32,0,,,,,,,,,,,,,,,,,,,,,,,,,,,,,,,,,,,,,,,,,,,,,,32,9.0,f,021_o_f_n_a.jpg,neutral,s,2,2,537.0775893,537.37378361,537.5829736000005,537.6002397100002,537.6010719000005,537.6362769099998,537.6372411000002,538.4481668099999,s,1,0.7973711000004187,797.3711000004187,537.6372411000002,538.4481668099999,538.4574161999999,539.5822250100001,EMOCONPILOT008,2020_Dec_12_1046,EmoCon_Pilot_120Hz,2020.2.4,119.97355782837421,
,,,,1,0,1,0,33,0,33,0,,,,,,,,,,,,,,,,,,,,,,,,,,,,,,,,,,,,,,,,,,,,,,33,3.0,m,013_y_m_s_a.jpg,sad,a,2,2,539.5879039000001,539.8822543100006,539.9067573000002,539.9229843100003,539.9268824999999,539.9630702100004,539.9632065000005,540.5551069100003,a,1,0.5836496000001716,583.6496000001716,539.9632065000005,540.5551069100003,540.5665957000001,541.5655291100003,EMOCONPILOT008,2020_Dec_12_1046,EmoCon_Pilot_120Hz,2020.2.4,119.97355782837421,
,,,,1,0,1,0,34,0,34,0,,,,,,,,,,,,,,,,,,,,,,,,,,,,,,,,,,,,,,,,,,,,,,34,1.0,m,004_o_m_n_a.jpg,neutral,s,17,2,541.5708577000005,541.8655199100004,542.0643282999999,542.2313096099998,542.2362351000002,542.2777705099999,542.2831022,542.7199659099998,s,1,0.42350139999962266,423.50139999962266,542.2831022,542.7199659099998,542.7294057999998,544.5405622099998,EMOCONPILOT008,2020_Dec_12_1046,EmoCon_Pilot_120Hz,2020.2.4,119.97355782837421,
,,,,1,0,1,0,35,0,35,0,,,,,,,,,,,,,,,,,,,,,,,,,,,,,,,,,,,,,,,,,,,,,,35,12.0,f,040_y_f_h_a.jpg,happy,d,17,2,544.5459877000003,544.8406899100002,544.8620766000004,545.0009603099999,545.0045515000002,545.0457820100002,545.0478914000005,545.3919509099998,d,1,0.33076900000014575,330.76900000014575,545.0478914000005,545.3919509099998,545.4011725,547.0239460100003,EMOCONPILOT008,2020_Dec_12_1046,EmoCon_Pilot_120Hz,2020.2.4,119.97355782837421,
,,,,1,0,1,0,36,0,36,0,,,,,,,,,,,,,,,,,,,,,,,,,,,,,,,,,,,,,,,,,,,,,,36,10.0,f,028_y_f_n_a.jpg,neutral,s,17,2,547.0284539000004,547.3238839100005,547.5302854000001,547.68785881,547.6927689000004,547.7333442099999,547.7382318999998,548.1253212100002,s,1,0.3766745000002629,376.6745000002629,547.7382318999998,548.1253212100002,548.1369291999999,549.4490210100004,EMOCONPILOT008,2020_Dec_12_1046,EmoCon_Pilot_120Hz,2020.2.4,119.97355782837421,
,,,,1,0,1,0,37,0,37,0,,,,,,,,,,,,,,,,,,,,,,,,,,,,,,,,,,,,,,,,,,,,,,37,11.0,f,030_o_f_n_a.jpg,neutral,s,17,2,549.4531880000004,549.7489823100005,549.9527196999998,550.1132393099998,550.1180027,550.1589606099998,550.1639800000003,550.4807006100001,s,1,0.30270759999984875,302.70759999984875,550.1639800000003,550.4807006100001,550.4919720999997,551.8407706099998,EMOCONPILOT008,2020_Dec_12_1046,EmoCon_Pilot_120Hz,2020.2.4,119.97355782837421,
,,,,1,0,1,0,38,0,38,0,,,,,,,,,,,,,,,,,,,,,,,,,,,,,,,,,,,,,,,,,,,,,,38,1.0,m,004_o_m_h_a.jpg,happy,d,17,2,551.8449412,552.1407942100005,552.3416452000001,552.5079422099999,552.5128251000006,552.55380351,552.5582286999997,552.9574830100001,d,1,0.3884345000005851,388.4345000005851,552.5582286999997,552.9574830100001,552.9690402000006,553.9657253100005,EMOCONPILOT008,2020_Dec_12_1046,EmoCon_Pilot_120Hz,2020.2.4,119.97355782837421,
,,,,1,0,1,0,39,0,39,0,,,,,,,,,,,,,,,,,,,,,,,,,,,,,,,,,,,,,,,,,,,,,,39,6.0,m,033_o_m_h_a.jpg,happy,d,2,2,553.9698469000004,554.2658025100001,554.2875593999997,554.3030854099999,554.3040701999998,554.3419669100005,554.3431840000003,555.0509315099999,d,1,0.6917265000001862,691.7265000001862,554.3431840000003,555.0509315099999,555.0610499000004,556.5408739100004,EMOCONPILOT008,2020_Dec_12_1046,EmoCon_Pilot_120Hz,2020.2.4,119.97355782837421,
,,,,1,0,1,0,40,0,40,0,,,,,,,,,,,,,,,,,,,,,,,,,,,,,,,,,,,,,,,,,,,,,,40,7.0,f,012_o_f_h_a.jpg,happy,d,2,2,556.5450559999999,556.8408084100002,556.8647762,556.88063841,556.8813929999997,556.9188433099999,556.9187552000003,557.4986587100003,d,1,0.5639048000002731,563.9048000002731,556.9187552000003,557.4986587100003,557.5099140000002,558.5825908099997,EMOCONPILOT008,2020_Dec_12_1046,EmoCon_Pilot_120Hz,2020.2.4,119.97355782837421,
,,,,1,0,1,0,41,0,41,0,,,,,,,,,,,,,,,,,,,,,,,,,,,,,,,,,,,,,,,,,,,,,,41,6.0,m,033_o_m_n_a.jpg,neutral,s,2,2,558.5867306,558.8824145099999,559.0872728000004,559.1047918100004,559.1080160000001,559.1487227099998,559.1536029999997,559.8677879099997,s,1,0.6973371000003681,697.3371000003681,559.1536029999997,559.8677879099997,559.8793390000001,561.8493734100003,EMOCONPILOT008,2020_Dec_12_1046,EmoCon_Pilot_120Hz,2020.2.4,119.97355782837421,
,,,,1,0,1,0,42,0,42,0,,,,,,,,,,,,,,,,,,,,,,,,,,,,,,,,,,,,,,,,,,,,,,42,7.0,f,012_o_f_h_a.jpg,happy,d,2,2,561.8536844,562.1492831100005,562.1719701000002,562.1876744100001,562.1883803999999,562.2253573099998,562.2267671999998,562.7208268100004,d,1,0.47983620000013616,479.83620000013616,562.2267671999998,562.7208268100004,562.7292857000002,564.51596471,EMOCONPILOT008,2020_Dec_12_1046,EmoCon_Pilot_120Hz,2020.2.4,119.97355782837421,
,,,,1,0,1,0,43,0,43,0,,,,,,,,,,,,,,,,,,,,,,,,,,,,,,,,,,,,,,,,,,,,,,43,5.0,m,027_o_m_h_a.jpg,happy,d,17,2,564.5200344000004,564.8159539099998,565.0154312000004,565.17684441,565.1813960999998,565.2221659099997,565.2272430000003,565.52316661,d,1,0.27968220000002475,279.68220000002475,565.2272430000003,565.52316661,565.5343588000005,567.4243453099999,EMOCONPILOT008,2020_Dec_12_1046,EmoCon_Pilot_120Hz,2020.2.4,119.97355782837421,
,,,,1,0,1,0,44,0,44,0,,,,,,,,,,,,,,,,,,,,,,,,,,,,,,,,,,,,,,,,,,,,,,44,10.0,f,028_y_f_s_a.jpg,sad,a,2,2,567.4284813000004,567.7243473099999,567.7462965000004,567.7618939100004,567.7620459,567.8005356100003,567.8006262999997,568.5043512100002,a,1,0.6900021000001288,690.0021000001288,567.8006262999997,568.5043512100002,568.5127223999998,569.9911137099999,EMOCONPILOT008,2020_Dec_12_1046,EmoCon_Pilot_120Hz,2020.2.4,119.97355782837421,
,,,,1,0,1,0,45,0,45,0,,,,,,,,,,,,,,,,,,,,,,,,,,,,,,,,,,,,,,,,,,,,,,45,7.0,f,012_o_f_n_a.jpg,neutral,s,2,2,569.9950883000001,570.2910839100006,570.5026700999997,570.5205564099998,570.5235420999998,570.5618367099997,570.5671939000003,571.2096170100004,s,1,0.6274874000000636,627.4874000000636,570.5671939000003,571.2096170100004,571.2211685000002,573.1579261099997,EMOCONPILOT008,2020_Dec_12_1046,EmoCon_Pilot_120Hz,2020.2.4,119.97355782837421,
,,,,1,0,1,0,46,0,46,0,,,,,,,,,,,,,,,,,,,,,,,,,,,,,,,,,,,,,,,,,,,,,,46,1.0,m,004_o_m_n_a.jpg,neutral,s,17,2,573.1634313000004,573.4579406100003,573.6616437000002,573.8231393100006,573.8277940999997,573.8684196100004,573.8734701000003,574.5248965100001,s,1,0.641403800000262,641.403800000262,573.8734701000003,574.5248965100001,574.5364859000001,575.9078637100002,EMOCONPILOT008,2020_Dec_12_1046,EmoCon_Pilot_120Hz,2020.2.4,119.97355782837421,
,,,,1,0,1,0,47,0,47,0,,,,,,,,,,,,,,,,,,,,,,,,,,,,,,,,,,,,,,,,,,,,,,47,9.0,f,021_o_f_h_a.jpg,happy,d,2,2,575.9095775000005,576.2078294100003,576.4182781999998,576.4357294100001,576.4389935999998,576.4768470099999,576.4809679999998,576.9697953100004,d,1,0.4818405000005441,481.8405000005441,576.4809679999998,576.9697953100004,576.9765017999998,578.7996109100005,EMOCONPILOT008,2020_Dec_12_1046,EmoCon_Pilot_120Hz,2020.2.4,119.97355782837421,
,,,,1,0,1,0,48,0,48,0,,,,,,,,,,,,,,,,,,,,,,,,,,,,,,,,,,,,,,,,,,,,,,48,10.0,f,028_y_f_n_a.jpg,neutral,s,17,2,578.8036443999999,579.0996016099999,579.295032,579.4559506100005,579.4605768000001,579.5015370100001,579.5055542,579.8322948100005,s,1,0.31334030000016355,313.34030000016355,579.5055542,579.8322948100005,579.8425190999997,581.6496714100005,EMOCONPILOT008,2020_Dec_12_1046,EmoCon_Pilot_120Hz,2020.2.4,119.97355782837421,
,,,,1,0,1,0,49,0,49,0,,,,,,,,,,,,,,,,,,,,,,,,,,,,,,,,,,,,,,,,,,,,,,49,7.0,f,012_o_f_h_a.jpg,happy,d,17,2,581.6552116000003,581.9496842099999,581.9715277000005,582.1097122100001,582.1131881000001,582.15154731,582.1547808000005,582.5710074099999,d,1,0.40795710000020335,407.95710000020335,582.1547808000005,582.5710074099999,582.5817533999998,583.8830493100005,EMOCONPILOT008,2020_Dec_12_1046,EmoCon_Pilot_120Hz,2020.2.4,119.97355782837421,
,,,,1,0,1,0,50,0,50,0,,,,,,,,,,,,,,,,,,,,,,,,,,,,,,,,,,,,,,,,,,,,,,50,5.0,m,027_o_m_h_a.jpg,happy,d,2,2,583.8886193999997,584.1831373100005,584.3935469999997,584.4108430100006,584.4118599000003,584.44824351,584.4485552000006,584.9918792099999,d,1,0.530257000000347,530.257000000347,584.4485552000006,584.9918792099999,584.9988584000002,586.1747229100002,EMOCONPILOT008,2020_Dec_12_1046,EmoCon_Pilot_120Hz,2020.2.4,119.97355782837421,
,,,,1,0,1,0,51,0,51,0,,,,,,,,,,,,,,,,,,,,,,,,,,,,,,,,,,,,,,,,,,,,,,51,12.0,f,040_y_f_n_a.jpg,neutral,s,17,2,586.1787544999997,586.4747503099999,586.6809430000003,586.8399553099999,586.8431277999998,586.8841608100003,586.8892158999997,587.3372255100004,s,1,0.43362680000063847,433.62680000063847,586.8892158999997,587.3372255100004,587.3492757000004,589.3414636099998,EMOCONPILOT008,2020_Dec_12_1046,EmoCon_Pilot_120Hz,2020.2.4,119.97355782837421,
,,,,1,0,1,0,52,0,52,0,,,,,,,,,,,,,,,,,,,,,,,,,,,,,,,,,,,,,,,,,,,,,,52,2.0,m,008_y_m_h_a.jpg,happy,d,17,2,589.3456103999997,589.6414723099998,589.6633538000006,589.8015741099999,589.8065517000005,589.8472030100003,589.8524569000001,590.3632873099997,d,1,0.4943866000003254,494.3866000003254,589.8524569000001,590.3632873099997,590.3738245000004,592.3582284100004,EMOCONPILOT008,2020_Dec_12_1046,EmoCon_Pilot_120Hz,2020.2.4,119.97355782837421,
,,,,1,0,1,0,53,0,53,0,,,,,,,,,,,,,,,,,,,,,,,,,,,,,,,,,,,,,,,,,,,,,,53,6.0,m,033_o_m_h_a.jpg,happy,d,17,2,592.3643793000001,592.6583226100003,592.6826585999997,592.8183364099997,592.8219055999998,592.8593925100005,592.8631860000005,593.18460281,d,1,0.30747129999963363,307.47129999963363,592.8631860000005,593.18460281,593.194684,594.7582798100003,EMOCONPILOT008,2020_Dec_12_1046,EmoCon_Pilot_120Hz,2020.2.4,119.97355782837421,
,,,,1,0,1,0,54,0,54,0,,,,,,,,,,,,,,,,,,,,,,,,,,,,,,,,,,,,,,,,,,,,,,54,2.0,m,008_y_m_h_a.jpg,happy,d,2,2,594.7635173999997,595.05839751,595.0825562,595.0985740100006,595.0994723000003,595.1363943100006,595.1372066000004,595.86898261,d,1,0.7214147000004232,721.4147000004232,595.1372066000004,595.86898261,595.8757298,597.3750152100002,EMOCONPILOT008,2020_Dec_12_1046,EmoCon_Pilot_120Hz,2020.2.4,119.97355782837421,
,,,,1,0,1,0,55,0,55,0,,,,,,,,,,,,,,,,,,,,,,,,,,,,,,,,,,,,,,,,,,,,,,55,12.0,f,040_y_f_h_a.jpg,happy,d,2,2,597.3809243000005,597.6750527100004,597.6995411999997,597.7146716099998,597.7166446000001,597.7539690100003,597.7540574000004,598.3128882100001,d,1,0.5446732000000338,544.6732000000338,597.7540574000004,598.3128882100001,598.3207250000005,599.5833924099999,EMOCONPILOT008,2020_Dec_12_1046,EmoCon_Pilot_120Hz,2020.2.4,119.97355782837421,
,,,,1,0,1,0,56,0,56,0,,,,,,,,,,,,,,,,,,,,,,,,,,,,,,,,,,,,,,,,,,,,,,56,10.0,f,028_y_f_n_a.jpg,neutral,s,17,2,599.5839989000006,599.8834492100005,600.1011392999999,600.2566202099998,600.2606101000001,600.3013681100002,600.3064542000002,600.6112147100004,s,1,0.2962608999996519,296.2608999996519,600.3064542000002,600.6112147100004,600.6230447999997,602.3251947099999,EMOCONPILOT008,2020_Dec_12_1046,EmoCon_Pilot_120Hz,2020.2.4,119.97355782837421,
,,,,1,0,1,0,57,0,57,0,,,,,,,,,,,,,,,,,,,,,,,,,,,,,,,,,,,,,,,,,,,,,,57,12.0,f,040_y_f_s_a.jpg,sad,a,2,2,602.3305919000004,602.6251109100004,602.6510065000002,602.66695421,602.6674543999998,602.7026751100003,602.7023715000005,603.8265669100002,a,1,1.1084490000002916,1108.4490000002916,602.7023715000005,603.8265669100002,603.8347229000001,605.8084793099998,EMOCONPILOT008,2020_Dec_12_1046,EmoCon_Pilot_120Hz,2020.2.4,119.97355782837421,
,,,,1,0,1,0,58,0,58,0,,,,,,,,,,,,,,,,,,,,,,,,,,,,,,,,,,,,,,,,,,,,,,58,5.0,m,027_o_m_n_a.jpg,neutral,s,17,2,605.8123750000004,606.1084796100005,606.325632,606.4853293100006,606.4898654999997,606.5305969100001,606.5357088999999,607.0038782100002,s,1,0.45110490000024583,451.10490000024583,606.5357088999999,607.0038782100002,607.0166417,608.4503103099997,EMOCONPILOT008,2020_Dec_12_1046,EmoCon_Pilot_120Hz,2020.2.4,119.97355782837421,
,,,,1,0,1,0,59,0,59,0,,,,,,,,,,,,,,,,,,,,,,,,,,,,,,,,,,,,,,,,,,,,,,59,4.0,m,016_y_m_s_a.jpg,sad,a,2,2,608.4560355000003,608.7502256099998,608.7721683,608.7873334100005,608.7876799000005,608.8263096100001,608.8264765000004,609.8717331099998,s,0,1.0323270999997476,1032.3270999997476,608.8264765000004,609.8717331099998,609.8798690000003,611.1919480099997,EMOCONPILOT008,2020_Dec_12_1046,EmoCon_Pilot_120Hz,2020.2.4,119.97355782837421,
,,,,1,0,1,0,60,0,60,0,,,,,,,,,,,,,,,,,,,,,,,,,,,,,,,,,,,,,,,,,,,,,,60,5.0,m,027_o_m_n_a.jpg,neutral,s,17,2,611.1961627000001,611.49194181,611.7032193000005,611.8725658100003,611.877485,611.91842491,611.9236124999998,612.36223901,s,1,0.43118930000036926,431.18930000036926,611.9236124999998,612.36223901,612.3739887000002,613.4086534099998,EMOCONPILOT008,2020_Dec_12_1046,EmoCon_Pilot_120Hz,2020.2.4,119.97355782837421,
,,,,1,0,1,0,61,0,61,0,,,,,,,,,,,,,,,,,,,,,,,,,,,,,,,,,,,,,,,,,,,,,,61,10.0,f,028_y_f_s_a.jpg,sad,a,17,2,613.4128787999998,613.7086353100004,613.7300381000005,613.8603554100001,613.8638639999999,613.90488681,613.9091288,614.3447186100003,a,1,0.42160920000060287,421.60920000060287,613.9091288,614.3447186100003,614.3529466,615.9253652099998,EMOCONPILOT008,2020_Dec_12_1046,EmoCon_Pilot_120Hz,2020.2.4,119.97355782837421,
,,,,1,0,1,0,62,0,62,0,,,,,,,,,,,,,,,,,,,,,,,,,,,,,,,,,,,,,,,,,,,,,,62,3.0,m,013_y_m_n_a.jpg,neutral,s,17,2,615.9293494000003,616.2253800099999,616.4641583000002,616.61905021,616.6240347000003,616.6648092100005,616.6699644,617.1072344100004,s,1,0.4287944999996398,428.7944999996398,616.6699644,617.1072344100004,617.1146711000001,618.5004506100005,EMOCONPILOT008,2020_Dec_12_1046,EmoCon_Pilot_120Hz,2020.2.4,119.97355782837421,
,,,,1,0,1,0,63,0,63,0,,,,,,,,,,,,,,,,,,,,,,,,,,,,,,,,,,,,,,,,,,,,,,63,4.0,m,016_y_m_s_a.jpg,sad,a,17,2,618.5047412000004,618.8004296099999,618.8245277000005,618.9604022100003,618.9634685999999,619.00173861,619.0055406000001,619.52245521,a,1,0.5091486999999688,509.1486999999688,619.0055406000001,619.52245521,619.5334806999999,620.6671912100002,EMOCONPILOT008,2020_Dec_12_1046,EmoCon_Pilot_120Hz,2020.2.4,119.97355782837421,
,,,,1,0,1,0,64,0,64,0,,,,,,,,,,,,,,,,,,,,,,,,,,,,,,,,,,,,,,,,,,,,,,64,12.0,f,040_y_f_h_a.jpg,happy,d,17,2,620.6714093999999,620.9671196099999,620.9881310000001,621.1211238100005,621.1246214000003,621.1658050100006,621.1698839999999,621.5738790100005,d,1,0.3927450000001045,392.7450000001045,621.1698839999999,621.5738790100005,621.5846067000002,623.2922839100003,EMOCONPILOT008,2020_Dec_12_1046,EmoCon_Pilot_120Hz,2020.2.4,119.97355782837421,
,,,,1,0,1,0,65,0,65,0,,,,,,,,,,,,,,,,,,,,,,,,,,,,,,,,,,,,,,,,,,,,,,65,5.0,m,027_o_m_n_a.jpg,neutral,s,2,2,623.2976891999997,623.5923563100006,623.8002028999999,623.8170583100001,623.8179575000004,623.8528818100004,623.8531406000002,624.71821861,s,1,0.8535365999996429,853.5365999996429,623.8531406000002,624.71821861,624.7275044999997,626.2589795100004,EMOCONPILOT008,2020_Dec_12_1046,EmoCon_Pilot_120Hz,2020.2.4,119.97355782837421,
,,,,1,0,1,0,66,0,66,0,,,,,,,,,,,,,,,,,,,,,,,,,,,,,,,,,,,,,,,,,,,,,,66,6.0,m,033_o_m_s_a.jpg,sad,a,2,2,626.2633661999998,626.5587365100001,626.5700638999997,626.58650581,626.5876839000002,626.6236103100001,626.6232885999998,627.4182433100005,a,1,0.779391800000667,779.391800000667,626.6232885999998,627.4182433100005,627.4281179999998,628.7589912100003,EMOCONPILOT008,2020_Dec_12_1046,EmoCon_Pilot_120Hz,2020.2.4,119.97355782837421,
,,,,1,0,1,0,67,0,67,0,,,,,,,,,,,,,,,,,,,,,,,,,,,,,,,,,,,,,,,,,,,,,,67,6.0,m,033_o_m_h_a.jpg,happy,d,2,2,628.7646599999998,629.0590550099997,629.0790173000005,629.0947374099998,629.0953623000005,629.1302885100005,629.1304300000002,629.6857122100001,d,1,0.5441794000007576,544.1794000007576,629.1304300000002,629.6857122100001,629.6931067000005,631.1174306100003,EMOCONPILOT008,2020_Dec_12_1046,EmoCon_Pilot_120Hz,2020.2.4,119.97355782837421,
,,,,1,0,1,0,68,0,68,0,,,,,,,,,,,,,,,,,,,,,,,,,,,,,,,,,,,,,,,,,,,,,,68,2.0,m,008_y_m_s_a.jpg,sad,a,17,2,631.1233989000002,631.4174519099998,631.6654472,631.8237201100002,631.8283603999998,631.8695074099998,631.8744489999999,632.3914282100005,a,1,0.5046113999997033,504.6113999997033,631.8744489999999,632.3914282100005,632.4026978000002,634.3257428099997,EMOCONPILOT008,2020_Dec_12_1046,EmoCon_Pilot_120Hz,2020.2.4,119.97355782837421,
,,,,1,0,1,0,69,0,69,0,,,,,,,,,,,,,,,,,,,,,,,,,,,,,,,,,,,,,,,,,,,,,,69,1.0,m,004_o_m_n_a.jpg,neutral,s,2,2,634.3305302999997,634.6257082100002,634.8306023000005,634.8481202100003,634.8487357000004,634.8852203100006,634.8849971,635.4512489099999,d,0,0.5498672999992777,549.8672999992777,634.8849971,635.4512489099999,635.4595721000005,636.9924834100003,EMOCONPILOT008,2020_Dec_12_1046,EmoCon_Pilot_120Hz,2020.2.4,119.97355782837421,
,,,,1,0,1,0,70,0,70,0,,,,,,,,,,,,,,,,,,,,,,,,,,,,,,,,,,,,,,,,,,,,,,70,2.0,m,008_y_m_s_a.jpg,sad,a,2,2,636.9965755000003,637.2925024100006,637.5319405,637.54808031,637.5486175000005,637.5871971099997,637.5924163999998,638.2538331100005,a,1,0.6504399000004923,650.4399000004923,637.5924163999998,638.2538331100005,638.2655562,639.93417711,EMOCONPILOT008,2020_Dec_12_1046,EmoCon_Pilot_120Hz,2020.2.4,119.97355782837421,
,,,,1,0,1,0,71,0,71,0,,,,,,,,,,,,,,,,,,,,,,,,,,,,,,,,,,,,,,,,,,,,,,71,11.0,f,030_o_f_n_a.jpg,neutral,s,17,2,639.9383791,640.2342578099998,640.4332337000005,640.6041834099998,640.6076830000002,640.6486171099997,640.6538108000004,641.01017831,s,1,0.3490955999996004,349.0955999996004,640.6538108000004,641.01017831,641.0217027999997,642.2759088100003,EMOCONPILOT008,2020_Dec_12_1046,EmoCon_Pilot_120Hz,2020.2.4,119.97355782837421,
,,,,1,0,1,0,72,0,72,0,,,,,,,,,,,,,,,,,,,,,,,,,,,,,,,,,,,,,,,,,,,,,,72,11.0,f,030_o_f_n_a.jpg,neutral,s,2,2,642.2814654000003,642.5760422100003,642.7779884000001,642.7954247099998,642.7990435000002,642.83694811,642.8410990000002,643.4622518100006,s,1,0.6097672999994757,609.7672999994757,642.8410990000002,643.4622518100006,643.4699134000002,645.3176953100002,EMOCONPILOT008,2020_Dec_12_1046,EmoCon_Pilot_120Hz,2020.2.4,119.97355782837421,
,,,,1,0,1,0,73,0,73,0,,,,,,,,,,,,,,,,,,,,,,,,,,,,,,,,,,,,,,,,,,,,,,73,2.0,m,008_y_m_s_a.jpg,sad,a,17,2,645.3216652000001,645.6177154099997,645.8528656999997,646.0114894099999,646.0159583000004,646.0546682100004,646.0589339999997,646.42246541,a,1,0.35187240000050224,351.87240000050224,646.0589339999997,646.42246541,646.4340324000004,647.6927481100003,EMOCONPILOT008,2020_Dec_12_1046,EmoCon_Pilot_120Hz,2020.2.4,119.97355782837421,
,,,,1,0,1,0,74,0,74,0,,,,,,,,,,,,,,,,,,,,,,,,,,,,,,,,,,,,,,,,,,,,,,74,11.0,f,030_o_f_n_a.jpg,neutral,s,2,2,647.6970184000002,647.9926842100004,648.1818513999997,648.1990690100002,648.2021390999998,648.2420403100006,648.2470178000003,649.0613834100005,s,1,0.8038780999995652,803.8780999995652,648.2470178000003,649.0613834100005,649.0727889,650.4344705100003,EMOCONPILOT008,2020_Dec_12_1046,EmoCon_Pilot_120Hz,2020.2.4,119.97355782837421,
,,,,1,0,1,0,75,0,75,0,,,,,,,,,,,,,,,,,,,,,,,,,,,,,,,,,,,,,,,,,,,,,,75,1.0,m,004_o_m_s_a.jpg,sad,a,2,2,650.4384699000002,650.7345150100001,650.7585534,650.7737786099998,650.7746721000003,650.8106407100005,650.8105929000003,651.8295905100005,a,1,1.0081365000005462,1008.1365000005462,650.8105929000003,651.8295905100005,651.8379618999998,653.3345625100002,EMOCONPILOT008,2020_Dec_12_1046,EmoCon_Pilot_120Hz,2020.2.4,119.97355782837421,
,,,,1,0,1,0,76,0,76,0,,,,,,,,,,,,,,,,,,,,,,,,,,,,,,,,,,,,,,,,,,,,,,76,3.0,m,013_y_m_n_a.jpg,neutral,s,2,2,653.3391137999997,653.6344757099997,653.8701962000005,653.8876835100001,653.8885762,653.9229260100002,653.9227220000002,654.6119609099998,s,1,0.6800145999995948,680.0145999995948,653.9227220000002,654.6119609099998,654.6235695000005,656.1178385100003,EMOCONPILOT008,2020_Dec_12_1046,EmoCon_Pilot_120Hz,2020.2.4,119.97355782837421,
,,,,1,0,1,0,77,0,77,0,,,,,,,,,,,,,,,,,,,,,,,,,,,,,,,,,,,,,,,,,,,,,,77,7.0,f,012_o_f_s_a.jpg,sad,a,2,2,656.1219486,656.4178566100001,656.4379810999999,656.4536194100002,656.4545827000002,656.4888180099998,656.4886962999999,657.3035484100002,d,0,0.8019367999995666,801.9367999995666,656.4886962999999,657.3035484100002,657.3113174,658.8595745100002,EMOCONPILOT008,2020_Dec_12_1046,EmoCon_Pilot_120Hz,2020.2.4,119.97355782837421,
,,,,1,0,1,0,78,0,78,0,,,,,,,,,,,,,,,,,,,,,,,,,,,,,,,,,,,,,,,,,,,,,,78,12.0,f,040_y_f_n_a.jpg,neutral,s,17,2,658.8645028000001,659.1597003099997,659.3748518000002,659.53919151,659.5438265000003,659.5847276100004,659.5897056000003,660.0457427100001,s,1,0.4451678000004904,445.1678000004904,659.5897056000003,660.0457427100001,660.0532952000003,661.20968611,EMOCONPILOT008,2020_Dec_12_1046,EmoCon_Pilot_120Hz,2020.2.4,119.97355782837421,
,,,,1,0,1,0,79,0,79,0,,,,,,,,,,,,,,,,,,,,,,,,,,,,,,,,,,,,,,,,,,,,,,79,6.0,m,033_o_m_h_a.jpg,happy,d,2,2,661.2129458999998,661.5096687100005,661.5339678,661.54904301,661.5498275999998,661.5867227099999,661.5868596,662.2188373099999,d,1,0.6157548999999563,615.7548999999563,661.5868596,662.2188373099999,662.2270650999999,664.1514204100005,EMOCONPILOT008,2020_Dec_12_1046,EmoCon_Pilot_120Hz,2020.2.4,119.97355782837421,
,,,,1,0,1,0,80,0,80,0,,,,,,,,,,,,,,,,,,,,,,,,,,,,,,,,,,,,,,,,,,,,,,80,2.0,m,008_y_m_n_a.jpg,neutral,s,2,2,664.1559097999998,664.45147061,664.6795767000003,664.69665911,664.6999100000003,664.7368085099998,664.7399750000004,665.4276376099998,s,1,0.6786406999999599,678.6406999999599,664.7399750000004,665.4276376099998,665.4350364000002,666.5264013100006,EMOCONPILOT008,2020_Dec_12_1046,EmoCon_Pilot_120Hz,2020.2.4,119.97355782837421,
,,,,1,0,1,0,81,0,81,0,,,,,,,,,,,,,,,,,,,,,,,,,,,,,,,,,,,,,,,,,,,,,,81,12.0,f,040_y_f_h_a.jpg,happy,d,17,2,666.5306574000006,666.8264216099998,666.8518151999997,666.9865385100003,666.9889675000004,667.02774581,667.0293377999997,667.4750271100003,d,1,0.42935599999964325,429.35599999964325,667.0293377999997,667.4750271100003,667.4832875000002,669.1764528100003,EMOCONPILOT008,2020_Dec_12_1046,EmoCon_Pilot_120Hz,2020.2.4,119.97355782837421,
,,,,1,0,1,0,82,0,82,0,,,,,,,,,,,,,,,,,,,,,,,,,,,,,,,,,,,,,,,,,,,,,,82,9.0,f,021_o_f_h_a.jpg,happy,d,17,2,669.1806815,669.4764799100004,669.6835646999998,669.8429516100006,669.8458624000004,669.8832787100001,669.8851901999997,670.3233098100001,d,1,0.42949079999925743,429.49079999925743,669.8851901999997,670.3233098100001,670.3318535999997,671.87662121,EMOCONPILOT008,2020_Dec_12_1046,EmoCon_Pilot_120Hz,2020.2.4,119.97355782837421,
,,,,1,0,1,0,83,0,83,0,,,,,,,,,,,,,,,,,,,,,,,,,,,,,,,,,,,,,,,,,,,,,,83,6.0,m,033_o_m_h_a.jpg,happy,d,2,2,671.8823368000003,672.1764038100001,672.1868986,672.2027115100001,672.203074,672.2391408100003,672.2390624999998,672.9497174099998,d,1,0.6998720999999932,699.8720999999932,672.2390624999998,672.9497174099998,672.9613660000005,673.9765597100005,EMOCONPILOT008,2020_Dec_12_1046,EmoCon_Pilot_120Hz,2020.2.4,119.97355782837421,
,,,,1,0,1,0,84,0,84,0,,,,,,,,,,,,,,,,,,,,,,,,,,,,,,,,,,,,,,,,,,,,,,84,2.0,m,008_y_m_n_a.jpg,neutral,s,2,2,673.9805302000004,674.27657981,674.5041646,674.5209109099998,674.5216570000002,674.5581042100004,674.5580836999998,675.1557701100002,s,1,0.5888380999995206,588.8380999995206,674.5580836999998,675.1557701100002,675.1673418999999,677.1349708099998,EMOCONPILOT008,2020_Dec_12_1046,EmoCon_Pilot_120Hz,2020.2.4,119.97355782837421,
,,,,1,0,1,0,85,0,85,0,,,,,,,,,,,,,,,,,,,,,,,,,,,,,,,,,,,,,,,,,,,,,,85,10.0,f,028_y_f_n_a.jpg,neutral,s,2,2,677.1389731999998,677.4346686099999,677.6394333999997,677.6574206100005,677.6575826999997,677.6944646100002,677.6946347000003,678.4795965100003,s,1,0.7726402999996935,772.6402999996935,677.6946347000003,678.4795965100003,678.4914379000002,680.3767192100005,EMOCONPILOT008,2020_Dec_12_1046,EmoCon_Pilot_120Hz,2020.2.4,119.97355782837421,
,,,,1,0,1,0,86,0,86,0,,,,,,,,,,,,,,,,,,,,,,,,,,,,,,,,,,,,,,,,,,,,,,86,6.0,m,033_o_m_h_a.jpg,happy,d,2,2,680.3822986000005,680.6767348100003,680.6987064000004,680.7139823099998,680.7148692000001,680.75287391,680.7529009999998,681.4206415099999,d,1,0.6577027000003,657.7027000003,680.7529009999998,681.4206415099999,681.4274789000001,682.7434399100003,EMOCONPILOT008,2020_Dec_12_1046,EmoCon_Pilot_120Hz,2020.2.4,119.97355782837421,
,,,,1,0,1,0,87,0,87,0,,,,,,,,,,,,,,,,,,,,,,,,,,,,,,,,,,,,,,,,,,,,,,87,5.0,m,027_o_m_s_a.jpg,sad,a,2,2,682.7490917000005,683.0434520099999,683.0644886999999,683.0800912100004,683.0806343000004,683.1169937100004,683.1185547000005,683.9182927100002,s,0,0.7882556000004115,788.2556000004115,683.1185547000005,683.9182927100002,683.9299780000001,685.59356391,EMOCONPILOT008,2020_Dec_12_1046,EmoCon_Pilot_120Hz,2020.2.4,119.97355782837421,
,,,,1,0,1,0,88,0,88,0,,,,,,,,,,,,,,,,,,,,,,,,,,,,,,,,,,,,,,,,,,,,,,88,7.0,f,012_o_f_s_a.jpg,sad,a,2,2,685.6006864000001,685.8935147100002,685.9203975999999,685.93609321,685.9367167999999,685.9728601099997,685.9733649999998,686.8769991099999,s,0,0.8933044000004884,893.3044000004884,685.9733649999998,686.8769991099999,686.8804043,688.8018897100002,EMOCONPILOT008,2020_Dec_12_1046,EmoCon_Pilot_120Hz,2020.2.4,119.97355782837421,
,,,,1,0,1,0,89,0,89,0,,,,,,,,,,,,,,,,,,,,,,,,,,,,,,,,,,,,,,,,,,,,,,89,2.0,m,008_y_m_h_a.jpg,happy,d,2,2,688.8059456999999,689.1018827099998,689.1229430000003,689.13885571,689.1393416000001,689.1736972099999,689.1734121,690.0612940100001,d,1,0.8773747000004732,877.3747000004732,689.1734121,690.0612940100001,690.0697651,691.4435946100003,EMOCONPILOT008,2020_Dec_12_1046,EmoCon_Pilot_120Hz,2020.2.4,119.97355782837421,
,,,,1,0,1,0,90,0,90,0,,,,,,,,,,,,,,,,,,,,,,,,,,,,,,,,,,,,,,,,,,,,,,90,7.0,f,012_o_f_h_a.jpg,happy,d,17,2,691.4474300000002,691.7436629100004,691.7671599000005,691.9037221099999,691.9072876,691.9484618099997,691.9534429000005,692.3400366100005,d,1,0.37727300000005926,377.27300000005926,691.9534429000005,692.3400366100005,692.3517444999998,694.03539491,EMOCONPILOT008,2020_Dec_12_1046,EmoCon_Pilot_120Hz,2020.2.4,119.97355782837421,
,,,,1,0,1,0,91,0,91,0,,,,,,,,,,,,,,,,,,,,,,,,,,,,,,,,,,,,,,,,,,,,,,91,10.0,f,028_y_f_s_a.jpg,sad,a,17,2,694.0402924,694.3353114100001,694.3586211000002,694.4953580100001,694.4995073,694.5405042100002,694.5458510999997,695.1035872100002,a,1,0.5446095999996032,544.6095999996032,694.5458510999997,695.1035872100002,695.1058175999997,696.5019449100001,EMOCONPILOT008,2020_Dec_12_1046,EmoCon_Pilot_120Hz,2020.2.4,119.97355782837421,
,,,,1,0,1,0,92,0,92,0,,,,,,,,,,,,,,,,,,,,,,,,,,,,,,,,,,,,,,,,,,,,,,92,12.0,f,040_y_f_s_a.jpg,sad,a,17,2,696.5049411999998,696.8019582099997,696.8234438999998,696.9538744100001,696.9573878000001,696.9965234100001,696.9997475999999,697.4348793099999,a,1,0.42724900000030175,427.24900000030175,696.9997475999999,697.4348793099999,697.4454851,699.02711981,EMOCONPILOT008,2020_Dec_12_1046,EmoCon_Pilot_120Hz,2020.2.4,119.97355782837421,
,,,,1,0,1,0,93,0,93,0,,,,,,,,,,,,,,,,,,,,,,,,,,,,,,,,,,,,,,,,,,,,,,93,2.0,m,008_y_m_n_a.jpg,neutral,s,17,2,699.0332705999999,699.3271300100006,699.5704740000001,699.7290148100002,699.7337157000002,699.7733391100002,699.7775907000005,700.1134926100004,s,1,0.3212487000000692,321.2487000000692,699.7775907000005,700.1134926100004,700.1246391000004,701.2272632100004,EMOCONPILOT008,2020_Dec_12_1046,EmoCon_Pilot_120Hz,2020.2.4,119.97355782837421,
,,,,1,0,1,0,94,0,94,0,,,,,,,,,,,,,,,,,,,,,,,,,,,,,,,,,,,,,,,,,,,,,,94,11.0,f,030_o_f_s_a.jpg,sad,a,17,2,701.2326546000004,701.52704981,701.7301531000003,701.9008562099999,701.9053206999997,701.9457479100003,701.9508745000003,703.6171032100002,None,0,,,701.9508745000003,703.6171032100002,703.6210096000004,705.5939554099997,EMOCONPILOT008,2020_Dec_12_1046,EmoCon_Pilot_120Hz,2020.2.4,119.97355782837421,
,,,,1,0,1,0,95,0,95,0,,,,,,,,,,,,,,,,,,,,,,,,,,,,,,,,,,,,,,,,,,,,,,95,9.0,f,021_o_f_n_a.jpg,neutral,s,2,2,705.5992128999997,705.8940000100002,706.0940751999997,706.1109856100003,706.1113372999998,706.14648451,706.1469460999997,707.4653114100003,s,1,1.303757200000291,1303.757200000291,706.1469460999997,707.4653114100003,707.4751279000002,708.85219591,EMOCONPILOT008,2020_Dec_12_1046,EmoCon_Pilot_120Hz,2020.2.4,119.97355782837421,
