trials_example.thisRepN,trials_example.thisTrialN,trials_example.thisN,trials_example.thisIndex,block.thisRepN,block.thisTrialN,block.thisN,block.thisIndex,trials_study.thisRepN,trials_study.thisTrialN,trials_study.thisN,trials_study.thisIndex,text_welcome.started,text_welcome.stopped,text_intro.started,text_intro.stopped,key_resp_intro.keys,key_resp_intro.started,key_resp_intro.stopped,text_intro2.started,text_intro2.stopped,key_resp_intro2.keys,key_resp_intro2.rt,key_resp_intro2.started,key_resp_intro2.stopped,example trial,personPrimeExample,genderPrimeExample,primeExample,emotionPrimeExample,corrAnsPrimeExample,example mask time,fix300_example.started,fix300_example.stopped,image_primer_example.started,image_primer_example.stopped,scrambled.started,scrambled.stopped,text_response_example.started,text_response_example.stopped,key_resp_example.keys,key_resp_example.corr,key_resp_example.rt,key_resp_example.rt in ms,key_resp_example.started,key_resp_example.stopped,Jitter_example.started,Jitter_example.stopped,text_start.started,text_start.stopped,text_pause.started,text_pause.stopped,key_resp_pause.keys,key_resp_pause.rt,key_resp_pause.rt in ms,key_resp_pause.started,key_resp_pause.stopped,study trial,personPrimeStudy,genderPrimeStudy,primeStudy,emotionPrimeStudy,corrAnsPrimeStudy,study mask time,Block,fix300_study.started,fix300_study.stopped,image_primer_study.started,image_primer_study.stopped,scrambled_study.started,scrambled_study.stopped,text_response_study.started,text_response_study.stopped,key_resp_study.keys,key_resp_study.corr,key_resp_study.rt,key_resp_study.rt in ms,key_resp_study.started,key_resp_study.stopped,Jitter_study.started,Jitter_study.stopped,participant,date,expName,psychopyVersion,frameRate,
,,,,,,,,,,,,253.16723209999964,256.15679768999945,256.16145119999965,262.2050830899996,None,256.16145119999965,262.2050830899996,,,,,,,,,,,,,,,,,,,,,,,,,,,,,,,,,,,,,,,,,,,,,,,,,,,,,,,,,,,,,,,EMOCONPILOT001,2020_Dec_12_1126,EmoCon_Pilot_120Hz,2020.2.4,120.07641663111632,
,,,,,,,,,,,,,,,,,,,262.20879650000006,265.7159394899998,a,3.4992622999998275,262.20879650000006,265.7159394899998,,,,,,,,,,,,,,,,,,,,,,,,,,,,,,,,,,,,,,,,,,,,,,,,,,,,,,,,,EMOCONPILOT001,2020_Dec_12_1126,EmoCon_Pilot_120Hz,2020.2.4,120.07641663111632,
0,0,0,0,,,,,,,,,,,,,,,,,,,,,,0,3.0,f,1113_y_f_s_a.jpg,sad,a,3,265.7234996999996,266.0152557899999,266.24209379999957,266.26802968999965,266.2725743000001,266.30780898999984,266.3081755000003,267.7195457899996,a,1,1.399509300000318,1399.509300000318,266.3081755000003,267.7195457899996,267.7236482999997,269.54852938999994,,,,,,,,,,,,,,,,,,,,,,,,,,,,,,,,,,EMOCONPILOT001,2020_Dec_12_1126,EmoCon_Pilot_120Hz,2020.2.4,120.07641663111632,
1,0,1,0,,,,,,,,,,,,,,,,,,,,,,1,1.0,m,1111_m_m_s_a.jpg,sad,a,3,269.55055470000025,269.8485375899998,270.0499096000003,270.0770746899996,270.07791819999966,270.11427498999984,270.1140399999995,270.9647988899995,s,0,0.8418277000000671,841.8277000000671,270.1140399999995,270.9647988899995,270.9696543,272.0152568900001,,,,,,,,,,,,,,,,,,,,,,,,,,,,,,,,,,EMOCONPILOT001,2020_Dec_12_1126,EmoCon_Pilot_120Hz,2020.2.4,120.07641663111632,
2,0,2,0,,,,,,,,,,,,,,,,,,,,,,2,3.0,f,1113_y_f_n_a.jpg,neutral,s,17,272.01671220000026,272.3153477899994,272.5095369999999,272.6684161900001,272.6712368999997,272.71247638999995,272.7154187999995,273.2594755899998,s,1,0.5283228999996936,528.3228999996936,272.7154187999995,273.2594755899998,273.26200659999995,274.7320679900002,,,,,,,,,,,,,,,,,,,,,,,,,,,,,,,,,,EMOCONPILOT001,2020_Dec_12_1126,EmoCon_Pilot_120Hz,2020.2.4,120.07641663111632,
3,0,3,0,,,,,,,,,,,,,,,,,,,,,,3,2.0,f,1112_m_f_h_a.jpg,happy,d,3,274.7334222999998,275.03197508999966,275.2338168999995,275.2600740899996,275.2603988999999,275.2952233899994,275.29564690000007,276.02768258999987,d,1,0.7161463000002186,716.1463000002186,275.29564690000007,276.02768258999987,276.0288568999995,277.36541028999983,,,,,,,,,,,,,,,,,,,,,,,,,,,,,,,,,,EMOCONPILOT001,2020_Dec_12_1126,EmoCon_Pilot_120Hz,2020.2.4,120.07641663111632,
4,0,4,0,,,,,,,,,,,,,,,,,,,,,,4,2.0,f,1112_m_f_n_a.jpg,neutral,s,17,277.3672749999996,277.66518308999986,277.86799189999965,278.0214158899997,278.0217455000002,278.05796898999944,278.05789559999994,278.6238655899995,s,1,0.5536655999994764,553.6655999994764,278.05789559999994,278.6238655899995,278.6247480000002,279.73224739000017,,,,,,,,,,,,,,,,,,,,,,,,,,,,,,,,,,EMOCONPILOT001,2020_Dec_12_1126,EmoCon_Pilot_120Hz,2020.2.4,120.07641663111632,
,,,,0,0,0,0,0,0,0,0,,,,,,,,,,,,,,,,,,,,,,,,,,,,,,,,,,,,,279.7783340999995,282.7656387899995,282.7693395999995,293.8627410899997,a,11.082427600000301,11082.427600000301,282.7693395999995,293.8627410899997,0,8.0,f,019_m_f_s_a.jpg,sad,a,17,1,293.86977019999995,294.1575087899999,294.4226222999996,294.5923347899996,294.59711030000017,294.63714968999994,294.6451113000003,295.31289458999964,a,1,0.6548148000001675,654.8148000001675,294.6451113000003,295.31289458999964,295.3220355000003,296.3491506899998,EMOCONPILOT001,2020_Dec_12_1126,EmoCon_Pilot_120Hz,2020.2.4,120.07641663111632,
,,,,0,0,0,0,1,0,1,0,,,,,,,,,,,,,,,,,,,,,,,,,,,,,,,,,,,,,,,,,,,,,,1,6.0,m,033_o_m_n_a.jpg,neutral,s,17,1,296.3545928000003,296.6492158899999,296.84804189999977,297.0164889899996,297.02140859999963,297.0624957899998,297.0676020000001,297.74631738999943,s,1,0.6641083000004073,664.1083000004073,297.0676020000001,297.74631738999943,297.75083619999987,298.93254228999996,EMOCONPILOT001,2020_Dec_12_1126,EmoCon_Pilot_120Hz,2020.2.4,120.07641663111632,
,,,,0,0,0,0,2,0,2,0,,,,,,,,,,,,,,,,,,,,,,,,,,,,,,,,,,,,,,,,,,,,,,2,2.0,m,008_y_m_s_a.jpg,sad,a,3,1,298.9369264999996,299.23248788999973,299.4597170999996,299.4867010899996,299.4904733000003,299.5272824900001,299.53081959999963,300.52435579000013,a,1,0.985138599999118,985.138599999118,299.53081959999963,300.52435579000013,300.5349927999996,302.0825314900001,EMOCONPILOT001,2020_Dec_12_1126,EmoCon_Pilot_120Hz,2020.2.4,120.07641663111632,
,,,,0,0,0,0,3,0,3,0,,,,,,,,,,,,,,,,,,,,,,,,,,,,,,,,,,,,,,,,,,,,,,3,11.0,f,030_o_f_h_a.jpg,happy,d,17,1,302.0855578999999,302.3825950899998,302.5892140999995,302.7496684899996,302.7532658,302.7915046899996,302.7956045000001,303.2135620899997,d,1,0.40834670000003825,408.34670000003825,302.7956045000001,303.2135620899997,303.22490169999946,305.08259529000026,EMOCONPILOT001,2020_Dec_12_1126,EmoCon_Pilot_120Hz,2020.2.4,120.07641663111632,
,,,,0,0,0,0,4,0,4,0,,,,,,,,,,,,,,,,,,,,,,,,,,,,,,,,,,,,,,,,,,,,,,4,11.0,f,030_o_f_s_a.jpg,sad,a,17,1,305.0867526000002,305.3826628899995,305.5867287000001,305.75592468999986,305.76063049999993,305.8019673899997,305.80710530000033,306.4754253899999,s,0,0.6605969000002005,660.5969000002005,305.80710530000033,306.4754253899999,306.47959339999943,308.4243453899997,EMOCONPILOT001,2020_Dec_12_1126,EmoCon_Pilot_120Hz,2020.2.4,120.07641663111632,
,,,,0,0,0,0,5,0,5,0,,,,,,,,,,,,,,,,,,,,,,,,,,,,,,,,,,,,,,,,,,,,,,5,11.0,f,030_o_f_s_a.jpg,sad,a,17,1,308.42949339999996,308.72444118999994,308.9275478999998,309.0886413899996,309.0933121999997,309.1339428899999,309.1390191999999,309.66842959000024,s,0,0.5130411000000095,513.0411000000095,309.1390191999999,309.66842959000024,309.67975789999946,310.8744023899997,EMOCONPILOT001,2020_Dec_12_1126,EmoCon_Pilot_120Hz,2020.2.4,120.07641663111632,
,,,,0,0,0,0,6,0,6,0,,,,,,,,,,,,,,,,,,,,,,,,,,,,,,,,,,,,,,,,,,,,,,6,5.0,m,027_o_m_n_a.jpg,neutral,s,17,1,310.87840460000007,311.17451198999953,311.4004557999997,311.55979028999974,311.56429339999977,311.60516698999965,311.61033940000016,311.96673578999963,s,1,0.34564829999999347,345.64829999999347,311.61033940000016,311.96673578999963,311.97821829999975,313.90796048999965,EMOCONPILOT001,2020_Dec_12_1126,EmoCon_Pilot_120Hz,2020.2.4,120.07641663111632,
,,,,0,0,0,0,7,0,7,0,,,,,,,,,,,,,,,,,,,,,,,,,,,,,,,,,,,,,,,,,,,,,,7,8.0,f,019_m_f_n_a.jpg,neutral,s,3,1,313.9132400999997,314.20793898999983,314.4558287,314.48164849000005,314.4826240000002,314.5171674900001,314.518685,315.8185937899996,a,0,1.2851282000001447,1285.1282000001447,314.518685,315.8185937899996,315.8297554999999,316.86625088999955,EMOCONPILOT001,2020_Dec_12_1126,EmoCon_Pilot_120Hz,2020.2.4,120.07641663111632,
,,,,0,0,0,0,8,0,8,0,,,,,,,,,,,,,,,,,,,,,,,,,,,,,,,,,,,,,,,,,,,,,,8,5.0,m,027_o_m_h_a.jpg,happy,d,17,1,316.87047489999986,317.16625069,317.3766681999996,317.5460513899996,317.5495837999997,317.5904401899996,317.5953810000001,318.1059780899994,d,1,0.49643229999946925,496.43229999946925,317.5953810000001,318.1059780899994,318.11841189999996,319.2079594899995,EMOCONPILOT001,2020_Dec_12_1126,EmoCon_Pilot_120Hz,2020.2.4,120.07641663111632,
,,,,0,0,0,0,9,0,9,0,,,,,,,,,,,,,,,,,,,,,,,,,,,,,,,,,,,,,,,,,,,,,,9,8.0,f,019_m_f_n_a.jpg,neutral,s,17,1,319.2119187999997,319.5079026900001,319.7500130999997,319.9163070900002,319.92111449999993,319.9623312900001,319.9667073999999,320.49164828999966,s,1,0.5169827999998233,516.9827999998233,319.9667073999999,320.49164828999966,320.5016654000001,322.1163245899996,EMOCONPILOT001,2020_Dec_12_1126,EmoCon_Pilot_120Hz,2020.2.4,120.07641663111632,
,,,,0,0,0,0,10,0,10,0,,,,,,,,,,,,,,,,,,,,,,,,,,,,,,,,,,,,,,,,,,,,,,10,11.0,f,030_o_f_h_a.jpg,happy,d,17,1,322.1220121999995,322.41646288999965,322.6218342000002,322.7786900899999,322.78365119999944,322.82438428999995,322.8292879999999,323.30742038999944,d,1,0.4625700999995388,462.5700999995388,322.8292879999999,323.30742038999944,323.3201368,325.20810238999985,EMOCONPILOT001,2020_Dec_12_1126,EmoCon_Pilot_120Hz,2020.2.4,120.07641663111632,
,,,,0,0,0,0,11,0,11,0,,,,,,,,,,,,,,,,,,,,,,,,,,,,,,,,,,,,,,,,,,,,,,11,3.0,m,013_y_m_s_a.jpg,sad,a,17,1,325.21350559999973,325.5081789899994,325.60429099999965,325.7346769899994,325.73988610000015,325.7800710899999,325.78533569999945,326.24490528999996,a,1,0.442454899999575,442.454899999575,325.78533569999945,326.24490528999996,326.25504309999997,328.21645229000006,EMOCONPILOT001,2020_Dec_12_1126,EmoCon_Pilot_120Hz,2020.2.4,120.07641663111632,
,,,,0,0,0,0,12,0,12,0,,,,,,,,,,,,,,,,,,,,,,,,,,,,,,,,,,,,,,,,,,,,,,12,12.0,f,040_y_f_n_a.jpg,neutral,s,17,1,328.2219616000002,328.51646779000004,328.7464047000003,328.9025512899996,328.90699849999964,328.9482434899999,328.9532389999995,329.36059869,s,1,0.3950229000001855,395.0229000001855,328.9532389999995,329.36059869,329.3717759000001,330.80805089000006,EMOCONPILOT001,2020_Dec_12_1126,EmoCon_Pilot_120Hz,2020.2.4,120.07641663111632,
,,,,0,0,0,0,13,0,13,0,,,,,,,,,,,,,,,,,,,,,,,,,,,,,,,,,,,,,,,,,,,,,,13,12.0,f,040_y_f_h_a.jpg,happy,d,3,1,330.8123773999996,331.1081532899996,331.1250382999997,331.14776409000007,331.1485710999996,331.18432118999937,331.18574850000005,332.4540045900001,d,1,1.25798020000002,1257.98020000002,331.18574850000005,332.4540045900001,332.4616175000001,333.5914396899996,EMOCONPILOT001,2020_Dec_12_1126,EmoCon_Pilot_120Hz,2020.2.4,120.07641663111632,
,,,,0,0,0,0,14,0,14,0,,,,,,,,,,,,,,,,,,,,,,,,,,,,,,,,,,,,,,,,,,,,,,14,7.0,f,012_o_f_h_a.jpg,happy,d,17,1,333.5944368999999,333.89149868999976,333.9059336999999,334.0432008899996,334.0467096000002,334.0879211899999,334.0932654999997,334.7232908899994,d,1,0.6224874999998065,622.4874999998065,334.0932654999997,334.7232908899994,334.7351093999996,336.2249416900002,EMOCONPILOT001,2020_Dec_12_1126,EmoCon_Pilot_120Hz,2020.2.4,120.07641663111632,
,,,,0,0,0,0,15,0,15,0,,,,,,,,,,,,,,,,,,,,,,,,,,,,,,,,,,,,,,,,,,,,,,15,9.0,f,021_o_f_n_a.jpg,neutral,s,3,1,336.2290972999999,336.52503358999985,336.7549441000001,336.7808225899997,336.78169830000024,336.81774129000024,336.8179371999995,337.46474569000003,s,1,0.6338385999997627,633.8385999997627,336.8179371999995,337.46474569000003,337.46799099999953,339.41632998999995,EMOCONPILOT001,2020_Dec_12_1126,EmoCon_Pilot_120Hz,2020.2.4,120.07641663111632,
,,,,0,0,0,0,16,0,16,0,,,,,,,,,,,,,,,,,,,,,,,,,,,,,,,,,,,,,,,,,,,,,,16,10.0,f,028_y_f_s_a.jpg,sad,a,3,1,339.4169794999998,339.7166872899996,339.7391791,339.7612060899999,339.7629369999995,339.8011759899999,339.80231899999944,340.93071819000016,s,0,1.1133470999993733,1113.3470999993733,339.80231899999944,340.93071819000016,340.9370087999996,341.95840048999963,EMOCONPILOT001,2020_Dec_12_1126,EmoCon_Pilot_120Hz,2020.2.4,120.07641663111632,
,,,,0,0,0,0,17,0,17,0,,,,,,,,,,,,,,,,,,,,,,,,,,,,,,,,,,,,,,,,,,,,,,17,10.0,f,028_y_f_h_a.jpg,happy,d,17,1,341.9613800999996,342.25839359,342.28238520000014,342.41844118999944,342.42210220000015,342.46039898999953,342.46420820000003,342.8575255899994,d,1,0.3794694999996864,379.4694999996864,342.46420820000003,342.8575255899994,342.86425710000003,344.57520239000024,EMOCONPILOT001,2020_Dec_12_1126,EmoCon_Pilot_120Hz,2020.2.4,120.07641663111632,
,,,,0,0,0,0,18,0,18,0,,,,,,,,,,,,,,,,,,,,,,,,,,,,,,,,,,,,,,,,,,,,,,18,9.0,f,021_o_f_h_a.jpg,happy,d,3,1,344.5804502000001,344.87518549,345.0992188,345.1247742899994,345.12559020000026,345.16095918999946,345.16063849999955,345.8198692899994,d,1,0.6431823999992048,643.1823999992048,345.16063849999955,345.8198692899994,345.8290946999996,346.89172928999943,EMOCONPILOT001,2020_Dec_12_1126,EmoCon_Pilot_120Hz,2020.2.4,120.07641663111632,
,,,,0,0,0,0,19,0,19,0,,,,,,,,,,,,,,,,,,,,,,,,,,,,,,,,,,,,,,,,,,,,,,19,6.0,m,033_o_m_h_a.jpg,happy,d,17,1,346.89477590000024,347.19182058999996,347.21676299999945,347.3517547899999,347.3519661,347.3930319899999,347.3945649999996,347.7610039899999,d,1,0.35309610000058456,353.09610000058456,347.3945649999996,347.7610039899999,347.76640339999994,349.56687569000024,EMOCONPILOT001,2020_Dec_12_1126,EmoCon_Pilot_120Hz,2020.2.4,120.07641663111632,
,,,,0,0,0,0,20,0,20,0,,,,,,,,,,,,,,,,,,,,,,,,,,,,,,,,,,,,,,,,,,,,,,20,1.0,m,004_o_m_h_a.jpg,happy,d,3,1,349.5715203,349.86685518999985,350.08028250000007,350.1055141899995,350.1086686999997,350.1492258899996,350.15347029999975,350.68268188999974,d,1,0.5143257999998241,514.3257999998241,350.15347029999975,350.68268188999974,350.6892492999996,352.20027998999996,EMOCONPILOT001,2020_Dec_12_1126,EmoCon_Pilot_120Hz,2020.2.4,120.07641663111632,
,,,,0,0,0,0,21,0,21,0,,,,,,,,,,,,,,,,,,,,,,,,,,,,,,,,,,,,,,,,,,,,,,21,2.0,m,008_y_m_s_a.jpg,sad,a,17,1,352.2061911999999,352.50030598999984,352.73939659999996,352.89578988999966,352.8995157999998,352.94067729,352.9455611000003,353.5346184899998,a,1,0.5784319000003961,578.4319000003961,352.9455611000003,353.5346184899998,353.54639829999996,355.2336218899998,EMOCONPILOT001,2020_Dec_12_1126,EmoCon_Pilot_120Hz,2020.2.4,120.07641663111632,
,,,,0,0,0,0,22,0,22,0,,,,,,,,,,,,,,,,,,,,,,,,,,,,,,,,,,,,,,,,,,,,,,22,4.0,m,016_y_m_s_a.jpg,sad,a,3,1,355.23773359999996,355.5336919899999,355.55891259999953,355.58161438999997,355.5822817999997,355.61811348999964,355.61841039999945,356.20768148999997,s,0,0.5773380999999063,577.3380999999063,355.61841039999945,356.20768148999997,356.21608560000004,358.0838011899994,EMOCONPILOT001,2020_Dec_12_1126,EmoCon_Pilot_120Hz,2020.2.4,120.07641663111632,
,,,,0,0,0,0,23,0,23,0,,,,,,,,,,,,,,,,,,,,,,,,,,,,,,,,,,,,,,,,,,,,,,23,8.0,f,019_m_f_h_a.jpg,happy,d,3,1,358.0882806999998,358.38372089000023,358.4059674,358.42764268999946,358.42844330000025,358.4682502899994,358.4699066000003,358.9782442899994,d,1,0.4940405000006649,494.0405000006649,358.4699066000003,358.9782442899994,358.98641339999995,360.01722329000023,EMOCONPILOT001,2020_Dec_12_1126,EmoCon_Pilot_120Hz,2020.2.4,120.07641663111632,
,,,,0,0,0,0,24,0,24,0,,,,,,,,,,,,,,,,,,,,,,,,,,,,,,,,,,,,,,,,,,,,,,24,8.0,f,019_m_f_h_a.jpg,happy,d,3,1,360.0227986,360.31716428999954,360.34304299999985,360.36613948999985,360.36687639999946,360.4031803899996,360.4045473999995,360.88103519,d,1,0.4634137000002738,463.4137000002738,360.4045473999995,360.88103519,360.8870826000002,362.45884669000026,EMOCONPILOT001,2020_Dec_12_1126,EmoCon_Pilot_120Hz,2020.2.4,120.07641663111632,
,,,,0,0,0,0,25,0,25,0,,,,,,,,,,,,,,,,,,,,,,,,,,,,,,,,,,,,,,,,,,,,,,25,4.0,m,016_y_m_n_a.jpg,neutral,s,3,1,362.46425550000004,362.75889868999985,363.01181559999986,363.0385302900002,363.0414174999996,363.0787144899994,363.0818171000001,363.7149083900002,s,1,0.6179981000004773,617.9981000004773,363.0818171000001,363.7149083900002,363.72314449999976,365.1672947899995,EMOCONPILOT001,2020_Dec_12_1126,EmoCon_Pilot_120Hz,2020.2.4,120.07641663111632,
,,,,0,0,0,0,26,0,26,0,,,,,,,,,,,,,,,,,,,,,,,,,,,,,,,,,,,,,,,,,,,,,,26,4.0,m,016_y_m_h_a.jpg,happy,d,3,1,365.17180839999946,365.4673059899995,365.4917739000002,365.51378869,365.51490300000023,365.5515582899996,365.5531504999999,366.0828059899994,d,1,0.5146915999994235,514.6915999994235,365.5531504999999,366.0828059899994,366.0932665,367.39228088999954,EMOCONPILOT001,2020_Dec_12_1126,EmoCon_Pilot_120Hz,2020.2.4,120.07641663111632,
,,,,0,0,0,0,27,0,27,0,,,,,,,,,,,,,,,,,,,,,,,,,,,,,,,,,,,,,,,,,,,,,,27,8.0,f,019_m_f_h_a.jpg,happy,d,17,1,367.39645159999964,367.6923243899999,367.7145875999995,367.8522575899995,367.8557688000001,367.8935475899996,367.8975283999998,368.29336848999975,d,1,0.3863261999995302,386.3261999995302,367.8975283999998,368.29336848999975,368.3004197999999,369.87563149,EMOCONPILOT001,2020_Dec_12_1126,EmoCon_Pilot_120Hz,2020.2.4,120.07641663111632,
,,,,0,0,0,0,28,0,28,0,,,,,,,,,,,,,,,,,,,,,,,,,,,,,,,,,,,,,,,,,,,,,,28,8.0,f,019_m_f_s_a.jpg,sad,a,3,1,369.8788311999997,370.1755907899995,370.42234540000027,370.4484925899995,370.44937299999947,370.48530268999986,370.48666239999966,371.5449524899994,a,1,1.045064299999467,1045.064299999467,370.48666239999966,371.5449524899994,371.5534378000002,373.5340392899996,EMOCONPILOT001,2020_Dec_12_1126,EmoCon_Pilot_120Hz,2020.2.4,120.07641663111632,
,,,,0,0,0,0,29,0,29,0,,,,,,,,,,,,,,,,,,,,,,,,,,,,,,,,,,,,,,,,,,,,,,29,10.0,f,028_y_f_n_a.jpg,neutral,s,3,1,373.5382701999997,373.8340611900001,374.03813660000014,374.0647961900002,374.06856789999983,374.1085468899999,374.1136601999997,374.65261618999995,s,1,0.5223551999997653,522.3551999997653,374.1136601999997,374.65261618999995,374.6639763000003,376.35909359,EMOCONPILOT001,2020_Dec_12_1126,EmoCon_Pilot_120Hz,2020.2.4,120.07641663111632,
,,,,0,0,0,0,30,0,30,0,,,,,,,,,,,,,,,,,,,,,,,,,,,,,,,,,,,,,,,,,,,,,,30,12.0,f,040_y_f_n_a.jpg,neutral,s,3,1,376.36461640000016,376.6590489899998,376.8755535999999,376.90109919000025,376.9011666999995,376.9363279899997,376.93678199999977,377.4773053899997,s,1,0.531059699999787,531.059699999787,376.93678199999977,377.4773053899997,377.4874060000002,379.23415708999966,EMOCONPILOT001,2020_Dec_12_1126,EmoCon_Pilot_120Hz,2020.2.4,120.07641663111632,
,,,,0,0,0,0,31,0,31,0,,,,,,,,,,,,,,,,,,,,,,,,,,,,,,,,,,,,,,,,,,,,,,31,5.0,m,027_o_m_n_a.jpg,neutral,s,17,1,379.2374080999998,379.5341706899997,379.7365973999995,379.90619079000027,379.9112164999997,379.95211908999937,379.9563441999999,380.42393798999984,s,1,0.4556371999997282,455.6371999997282,379.9563441999999,380.42393798999984,380.4356869000003,381.95931288999947,EMOCONPILOT001,2020_Dec_12_1126,EmoCon_Pilot_120Hz,2020.2.4,120.07641663111632,
,,,,0,0,0,0,32,0,32,0,,,,,,,,,,,,,,,,,,,,,,,,,,,,,,,,,,,,,,,,,,,,,,32,8.0,f,019_m_f_n_a.jpg,neutral,s,3,1,381.96560339999996,382.25926538999994,382.50865819999945,382.53387078999987,382.53479719999996,382.57057758999946,382.5713317,383.0951895899996,s,1,0.5124041999997644,512.4041999997644,382.5713317,383.0951895899996,383.10151359999963,384.5426006899996,EMOCONPILOT001,2020_Dec_12_1126,EmoCon_Pilot_120Hz,2020.2.4,120.07641663111632,
,,,,0,0,0,0,33,0,33,0,,,,,,,,,,,,,,,,,,,,,,,,,,,,,,,,,,,,,,,,,,,,,,33,4.0,m,016_y_m_n_a.jpg,neutral,s,17,1,384.54685809999955,384.8425915899996,385.07485499999984,385.2313115899995,385.2365189000002,385.27740109000007,385.2826263999996,385.84317638999966,s,1,0.553480400000808,553.480400000808,385.2826263999996,385.84317638999966,385.85481009999967,387.36764249000026,EMOCONPILOT001,2020_Dec_12_1126,EmoCon_Pilot_120Hz,2020.2.4,120.07641663111632,
,,,,0,0,0,0,34,0,34,0,,,,,,,,,,,,,,,,,,,,,,,,,,,,,,,,,,,,,,,,,,,,,,34,11.0,f,030_o_f_n_a.jpg,neutral,s,3,1,387.3718841,387.6676477899999,387.8744650999997,387.9006235899995,387.90109909999956,387.9370245899998,387.93670459999976,388.62434228999956,s,1,0.6753759000002901,675.3759000002901,387.93670459999976,388.62434228999956,388.6343041,389.7094271899994,EMOCONPILOT001,2020_Dec_12_1126,EmoCon_Pilot_120Hz,2020.2.4,120.07641663111632,
,,,,0,0,0,0,35,0,35,0,,,,,,,,,,,,,,,,,,,,,,,,,,,,,,,,,,,,,,,,,,,,,,35,9.0,f,021_o_f_h_a.jpg,happy,d,3,1,389.71432000000004,390.0093742899997,390.2101622,390.23760488999943,390.2413825000003,390.2825900899996,390.28742880000027,391.06932029,d,1,0.7725543999995352,772.5543999995352,390.28742880000027,391.06932029,391.08080599999994,392.65933298999954,EMOCONPILOT001,2020_Dec_12_1126,EmoCon_Pilot_120Hz,2020.2.4,120.07641663111632,
,,,,0,0,0,0,36,0,36,0,,,,,,,,,,,,,,,,,,,,,,,,,,,,,,,,,,,,,,,,,,,,,,36,11.0,f,030_o_f_s_a.jpg,sad,a,17,1,392.6622529999995,392.95945398999976,393.16271679999954,393.3232067899997,393.32679759999974,393.3648427899996,393.3690225999999,393.7633123899994,a,1,0.3868259000000762,386.8259000000762,393.3690225999999,393.7633123899994,393.7716596,395.14280648999994,EMOCONPILOT001,2020_Dec_12_1126,EmoCon_Pilot_120Hz,2020.2.4,120.07641663111632,
,,,,0,0,0,0,37,0,37,0,,,,,,,,,,,,,,,,,,,,,,,,,,,,,,,,,,,,,,,,,,,,,,37,12.0,f,040_y_f_n_a.jpg,neutral,s,3,1,395.14711329999955,395.4428780899996,395.66818669999975,395.6933000899997,395.6939182999995,395.7287141899995,395.73028520000025,396.25712299000025,s,1,0.5133918000001358,513.3918000001358,395.73028520000025,396.25712299000025,396.26265409999996,397.65954798999957,EMOCONPILOT001,2020_Dec_12_1126,EmoCon_Pilot_120Hz,2020.2.4,120.07641663111632,
,,,,0,0,0,0,38,0,38,0,,,,,,,,,,,,,,,,,,,,,,,,,,,,,,,,,,,,,,,,,,,,,,38,9.0,f,021_o_f_s_a.jpg,sad,a,3,1,397.66506800000025,397.9596863899995,397.98672949999946,398.0102090899998,398.0106151,398.0460451899997,398.04641249999986,399.56229539,d,0,1.5012340999992375,1501.2340999992375,398.04641249999986,399.56229539,399.5675652,400.8263467899995,EMOCONPILOT001,2020_Dec_12_1126,EmoCon_Pilot_120Hz,2020.2.4,120.07641663111632,
,,,,0,0,0,0,39,0,39,0,,,,,,,,,,,,,,,,,,,,,,,,,,,,,,,,,,,,,,,,,,,,,,39,4.0,m,016_y_m_n_a.jpg,neutral,s,3,1,400.8310451999996,401.12638788999976,401.3778861999999,401.40338519000017,401.4038373000003,401.4379062899996,401.43905369999993,402.00977219,s,1,0.5568954000000303,556.8954000000303,401.43905369999993,402.00977219,402.0188664999996,403.35148739000016,EMOCONPILOT001,2020_Dec_12_1126,EmoCon_Pilot_120Hz,2020.2.4,120.07641663111632,
,,,,0,0,0,0,40,0,40,0,,,,,,,,,,,,,,,,,,,,,,,,,,,,,,,,,,,,,,,,,,,,,,40,9.0,f,021_o_f_s_a.jpg,sad,a,3,1,403.3566573999997,403.6513157899997,403.6740672999995,403.6975355900002,403.6979086000001,403.7358657900002,403.73708350000015,404.42132439000017,s,0,0.6746448000003511,674.6448000003511,403.73708350000015,404.42132439000017,404.42966830000023,406.31819118999994,EMOCONPILOT001,2020_Dec_12_1126,EmoCon_Pilot_120Hz,2020.2.4,120.07641663111632,
,,,,0,0,0,0,41,0,41,0,,,,,,,,,,,,,,,,,,,,,,,,,,,,,,,,,,,,,,,,,,,,,,41,11.0,f,030_o_f_h_a.jpg,happy,d,17,1,406.32351049999943,406.61788848999987,406.8109523000003,406.9725029899999,406.97647419999976,407.0171480899997,407.02246790000027,407.49137709000007,d,1,0.45342929999969783,453.42929999969783,407.02246790000027,407.49137709000007,407.5012936000003,408.62661088999977,EMOCONPILOT001,2020_Dec_12_1126,EmoCon_Pilot_120Hz,2020.2.4,120.07641663111632,
,,,,0,0,0,0,42,0,42,0,,,,,,,,,,,,,,,,,,,,,,,,,,,,,,,,,,,,,,,,,,,,,,42,4.0,m,016_y_m_h_a.jpg,happy,d,17,1,408.6319518999999,408.9264972899999,408.95168360000025,409.08649358999975,409.0913310999995,409.1320591900001,409.13742619999994,409.51461129,d,1,0.3624121999991985,362.4121999991985,409.13742619999994,409.51461129,409.5260658999996,410.83494628999944,EMOCONPILOT001,2020_Dec_12_1126,EmoCon_Pilot_120Hz,2020.2.4,120.07641663111632,
,,,,0,0,0,0,43,0,43,0,,,,,,,,,,,,,,,,,,,,,,,,,,,,,,,,,,,,,,,,,,,,,,43,1.0,m,004_o_m_s_a.jpg,sad,a,17,1,410.8405010999995,411.13496319000006,411.15826449999986,411.2947786900002,411.29806199999985,411.33609399000017,411.3391714999998,411.75093328999975,a,1,0.4005815000000439,400.5815000000439,411.3391714999998,411.75093328999975,411.7594167999996,413.20985249000006,EMOCONPILOT001,2020_Dec_12_1126,EmoCon_Pilot_120Hz,2020.2.4,120.07641663111632,
,,,,0,0,0,0,44,0,44,0,,,,,,,,,,,,,,,,,,,,,,,,,,,,,,,,,,,,,,,,,,,,,,44,4.0,m,016_y_m_h_a.jpg,happy,d,3,1,413.2142101999998,413.5100159900001,413.52345460000015,413.5453345899994,413.54627900000014,413.58605938999955,413.5878180999998,414.55482938999995,d,1,0.9598052999999709,959.8052999999709,413.5878180999998,414.55482938999995,414.56106649999947,416.0100465899994,EMOCONPILOT001,2020_Dec_12_1126,EmoCon_Pilot_120Hz,2020.2.4,120.07641663111632,
,,,,0,0,0,0,45,0,45,0,,,,,,,,,,,,,,,,,,,,,,,,,,,,,,,,,,,,,,,,,,,,,,45,7.0,f,012_o_f_s_a.jpg,sad,a,17,1,416.0157946999998,416.3099597899998,416.3311034999997,416.46153889,416.4646921000003,416.50271029000015,416.5060768000003,416.8161737899998,a,1,0.2977676000000429,297.7676000000429,416.5060768000003,416.8161737899998,416.8247543999996,418.7267625900002,EMOCONPILOT001,2020_Dec_12_1126,EmoCon_Pilot_120Hz,2020.2.4,120.07641663111632,
,,,,0,0,0,0,46,0,46,0,,,,,,,,,,,,,,,,,,,,,,,,,,,,,,,,,,,,,,,,,,,,,,46,8.0,f,019_m_f_n_a.jpg,neutral,s,17,1,418.7321737000002,419.0265833900001,419.2762523000001,419.44288089,419.44771930000024,419.48870099000015,419.4939365,419.8821699899998,s,1,0.37406339999961347,374.06339999961347,419.4939365,419.8821699899998,419.8927899,421.05185988999966,EMOCONPILOT001,2020_Dec_12_1126,EmoCon_Pilot_120Hz,2020.2.4,120.07641663111632,
,,,,0,0,0,0,47,0,47,0,,,,,,,,,,,,,,,,,,,,,,,,,,,,,,,,,,,,,,,,,,,,,,47,2.0,m,008_y_m_h_a.jpg,happy,d,3,1,421.0580528999999,421.35180309000026,421.37413370000013,421.39733099000006,421.39799649999986,421.4362683899997,421.43630440000015,422.7733130899995,a,0,1.3274781999998595,1327.4781999998595,421.43630440000015,422.7733130899995,422.78188580000005,424.55175329000014,EMOCONPILOT001,2020_Dec_12_1126,EmoCon_Pilot_120Hz,2020.2.4,120.07641663111632,
,,,,0,0,0,0,48,0,48,0,,,,,,,,,,,,,,,,,,,,,,,,,,,,,,,,,,,,,,,,,,,,,,48,12.0,f,040_y_f_n_a.jpg,neutral,s,3,1,424.55584519999957,424.85186469,425.0835877999998,425.10891498999973,425.1091127999998,425.1446190899995,425.1448891,425.6350009899996,s,1,0.47485990000041056,474.85990000041056,425.1448891,425.6350009899996,425.6426656000003,427.3686111899995,EMOCONPILOT001,2020_Dec_12_1126,EmoCon_Pilot_120Hz,2020.2.4,120.07641663111632,
,,,,0,0,0,0,49,0,49,0,,,,,,,,,,,,,,,,,,,,,,,,,,,,,,,,,,,,,,,,,,,,,,49,11.0,f,030_o_f_n_a.jpg,neutral,s,3,1,427.37436720000005,427.66852698999975,427.87135579999995,427.89766858999957,427.89788880000015,427.93375688999987,427.9335013,428.58585038999973,s,1,0.6382886000001236,638.2886000001236,427.9335013,428.58585038999973,428.59502109999994,430.3436246899999,EMOCONPILOT001,2020_Dec_12_1126,EmoCon_Pilot_120Hz,2020.2.4,120.07641663111632,
,,,,0,0,0,0,50,0,50,0,,,,,,,,,,,,,,,,,,,,,,,,,,,,,,,,,,,,,,,,,,,,,,50,8.0,f,019_m_f_h_a.jpg,happy,d,3,1,430.34908019999966,430.6436114899996,430.65699140000015,430.6799341899994,430.6807143999995,430.71968619,430.7209858999995,431.32284039000007,d,1,0.5868074999998498,586.8074999998498,430.7209858999995,431.32284039000007,431.3295558,432.50204189000016,EMOCONPILOT001,2020_Dec_12_1126,EmoCon_Pilot_120Hz,2020.2.4,120.07641663111632,
,,,,0,0,0,0,51,0,51,0,,,,,,,,,,,,,,,,,,,,,,,,,,,,,,,,,,,,,,,,,,,,,,51,8.0,f,019_m_f_n_a.jpg,neutral,s,17,1,432.5063395999996,432.8019475899999,433.0507994999998,433.20926368999955,433.2122669999999,433.2494086899995,433.25251969999954,434.0831187900001,s,1,0.8154086000004099,815.4086000004099,433.25251969999954,434.0831187900001,434.0915167000003,435.60204908999987,EMOCONPILOT001,2020_Dec_12_1126,EmoCon_Pilot_120Hz,2020.2.4,120.07641663111632,
,,,,0,0,0,0,52,0,52,0,,,,,,,,,,,,,,,,,,,,,,,,,,,,,,,,,,,,,,,,,,,,,,52,12.0,f,040_y_f_n_a.jpg,neutral,s,17,1,435.6084912999995,435.9020194900002,436.1081911000001,436.2721988900001,436.2760042,436.31706838999963,436.3218374999997,436.6473375899994,s,1,0.3142268999999942,314.2268999999942,436.3218374999997,436.6473375899994,436.66071509999983,438.5605184899994,EMOCONPILOT001,2020_Dec_12_1126,EmoCon_Pilot_120Hz,2020.2.4,120.07641663111632,
,,,,0,0,0,0,53,0,53,0,,,,,,,,,,,,,,,,,,,,,,,,,,,,,,,,,,,,,,,,,,,,,,53,9.0,f,021_o_f_h_a.jpg,happy,d,17,1,438.5659592000002,438.8604403899997,439.07720679999966,439.23730868999957,439.24196289999963,439.28273709000024,439.2880382000003,439.93078418999977,d,1,0.62786959999994,627.86959999994,439.2880382000003,439.93078418999977,439.94182459999956,441.0271678899997,EMOCONPILOT001,2020_Dec_12_1126,EmoCon_Pilot_120Hz,2020.2.4,120.07641663111632,
,,,,0,0,0,0,54,0,54,0,,,,,,,,,,,,,,,,,,,,,,,,,,,,,,,,,,,,,,,,,,,,,,54,2.0,m,008_y_m_n_a.jpg,neutral,s,3,1,441.03203609999946,441.3271114899997,441.56021880000026,441.58585879000003,441.5862003000002,441.6217275899997,441.62128269999994,442.2547125899999,s,1,0.6227226999999402,622.7226999999402,441.62128269999994,442.2547125899999,442.26427069999954,443.8689675899994,EMOCONPILOT001,2020_Dec_12_1126,EmoCon_Pilot_120Hz,2020.2.4,120.07641663111632,
,,,,0,0,0,0,55,0,55,0,,,,,,,,,,,,,,,,,,,,,,,,,,,,,,,,,,,,,,,,,,,,,,55,10.0,f,028_y_f_n_a.jpg,neutral,s,3,1,443.87419150000005,444.16895578999976,444.3736809000002,444.3995758899999,444.40017119999993,444.4366445899994,444.43678649999947,444.9574583900001,s,1,0.5110756000003676,511.07560000036756,444.43678649999947,444.9574583900001,444.9646769000001,446.08548029000013,EMOCONPILOT001,2020_Dec_12_1126,EmoCon_Pilot_120Hz,2020.2.4,120.07641663111632,
,,,,0,0,0,0,56,0,56,0,,,,,,,,,,,,,,,,,,,,,,,,,,,,,,,,,,,,,,,,,,,,,,56,12.0,f,040_y_f_h_a.jpg,happy,d,17,1,446.0891842000001,446.38554189000007,446.4074023000003,446.54558159000027,446.5488697999999,446.5900814899995,446.5945769,446.9707487899994,d,1,0.3612812000001213,361.2812000001213,446.5945769,446.9707487899994,446.98147139999946,448.5774127900002,EMOCONPILOT001,2020_Dec_12_1126,EmoCon_Pilot_120Hz,2020.2.4,120.07641663111632,
,,,,0,0,0,0,57,0,57,0,,,,,,,,,,,,,,,,,,,,,,,,,,,,,,,,,,,,,,,,,,,,,,57,2.0,m,008_y_m_n_a.jpg,neutral,s,17,1,448.5830764000002,448.8773296899997,449.1221518000002,449.2826046899998,449.28777509999964,449.32875158999997,449.3339138000001,449.7537464899995,s,1,0.4063071000000491,406.3071000000491,449.3339138000001,449.7537464899995,449.76463539999986,451.25230128999993,EMOCONPILOT001,2020_Dec_12_1126,EmoCon_Pilot_120Hz,2020.2.4,120.07641663111632,
,,,,0,0,0,0,58,0,58,0,,,,,,,,,,,,,,,,,,,,,,,,,,,,,,,,,,,,,,,,,,,,,,58,9.0,f,021_o_f_n_a.jpg,neutral,s,3,1,451.2564884000003,451.55231549,451.76450269999987,451.7916681899995,451.7948117999995,451.8336813899994,451.8389183999998,452.41089018999975,s,1,0.5571715000005497,557.1715000005497,451.8389183999998,452.41089018999975,452.4212496,453.4273298899996,EMOCONPILOT001,2020_Dec_12_1126,EmoCon_Pilot_120Hz,2020.2.4,120.07641663111632,
,,,,0,0,0,0,59,0,59,0,,,,,,,,,,,,,,,,,,,,,,,,,,,,,,,,,,,,,,,,,,,,,,59,4.0,m,016_y_m_n_a.jpg,neutral,s,3,1,453.4312807999995,453.72746799,453.96053550000033,453.98639539000015,453.98657829999956,454.02097749000023,454.02087570000003,454.47307688999973,s,1,0.43881209999926796,438.81209999926796,454.02087570000003,454.47307688999973,454.4786167000002,456.4107203900001,EMOCONPILOT001,2020_Dec_12_1126,EmoCon_Pilot_120Hz,2020.2.4,120.07641663111632,
,,,,0,0,0,0,60,0,60,0,,,,,,,,,,,,,,,,,,,,,,,,,,,,,,,,,,,,,,,,,,,,,,60,6.0,m,033_o_m_s_a.jpg,sad,a,3,1,456.41478519999964,456.7107553899994,456.7348272999998,456.75753928999967,456.7582827999995,456.79527019000017,456.7966600999998,457.34303808999977,s,0,0.5351226000002498,535.1226000002498,456.7966600999998,457.34303808999977,457.3506656999998,459.1858408899996,EMOCONPILOT001,2020_Dec_12_1126,EmoCon_Pilot_120Hz,2020.2.4,120.07641663111632,
,,,,0,0,0,0,61,0,61,0,,,,,,,,,,,,,,,,,,,,,,,,,,,,,,,,,,,,,,,,,,,,,,61,7.0,f,012_o_f_n_a.jpg,neutral,s,17,1,459.1900579000003,459.48582078999954,459.7136012000001,459.87577308999954,459.8807323000001,459.91933649000003,459.92010740000023,460.40528028999944,s,1,0.4680142999995951,468.0142999995951,459.92010740000023,460.40528028999944,460.4181947999996,462.31088599000014,EMOCONPILOT001,2020_Dec_12_1126,EmoCon_Pilot_120Hz,2020.2.4,120.07641663111632,
,,,,0,0,0,0,62,0,62,0,,,,,,,,,,,,,,,,,,,,,,,,,,,,,,,,,,,,,,,,,,,,,,62,2.0,m,008_y_m_h_a.jpg,happy,d,3,1,462.31492890000027,462.61088528999954,462.63601130000006,462.65875808999937,462.6594280999998,462.6953619899994,462.69670549999955,463.19571659000013,d,1,0.4832782000003135,483.2782000003135,462.69670549999955,463.19571659000013,463.2039218,464.5942553900002,EMOCONPILOT001,2020_Dec_12_1126,EmoCon_Pilot_120Hz,2020.2.4,120.07641663111632,
,,,,0,0,0,0,63,0,63,0,,,,,,,,,,,,,,,,,,,,,,,,,,,,,,,,,,,,,,,,,,,,,,63,10.0,f,028_y_f_h_a.jpg,happy,d,17,1,464.59841460000007,464.89434608999983,464.9201658000002,465.0542756900002,465.0585353999995,465.0995106899998,465.1048447000003,465.5450556899994,d,1,0.42694329999994807,426.94329999994807,465.1048447000003,465.5450556899994,465.55362419999983,466.8942125900001,EMOCONPILOT001,2020_Dec_12_1126,EmoCon_Pilot_120Hz,2020.2.4,120.07641663111632,
,,,,0,0,0,0,64,0,64,0,,,,,,,,,,,,,,,,,,,,,,,,,,,,,,,,,,,,,,,,,,,,,,64,4.0,m,016_y_m_h_a.jpg,happy,d,17,1,466.89727219999986,467.1942338899997,467.2143559999995,467.34605859000004,467.3496432000002,467.38830858999955,467.3922289000002,467.91980029000007,d,1,0.5155955999998696,515.5955999998696,467.3922289000002,467.91980029000007,467.93031619999965,469.51099138999945,EMOCONPILOT001,2020_Dec_12_1126,EmoCon_Pilot_120Hz,2020.2.4,120.07641663111632,
,,,,0,0,0,0,65,0,65,0,,,,,,,,,,,,,,,,,,,,,,,,,,,,,,,,,,,,,,,,,,,,,,65,9.0,f,021_o_f_s_a.jpg,sad,a,3,1,469.51413200000025,469.81107039,469.82634469999994,469.84840268999943,469.84930170000007,469.8872772900002,469.88930059999984,470.47751159,s,0,0.578440799999953,578.440799999953,469.88930059999984,470.47751159,470.4848713000001,472.45276799000004,EMOCONPILOT001,2020_Dec_12_1126,EmoCon_Pilot_120Hz,2020.2.4,120.07641663111632,
,,,,0,0,0,0,66,0,66,0,,,,,,,,,,,,,,,,,,,,,,,,,,,,,,,,,,,,,,,,,,,,,,66,7.0,f,012_o_f_h_a.jpg,happy,d,3,1,472.45715839999957,472.7528185899999,472.7765942999995,472.79954099000025,472.8003209999997,472.83721228999985,472.83885420000024,473.5565028899999,s,0,0.7092505000000529,709.2505000000529,472.83885420000024,473.5565028899999,473.5647524999995,475.2111398899995,EMOCONPILOT001,2020_Dec_12_1126,EmoCon_Pilot_120Hz,2020.2.4,120.07641663111632,
,,,,0,0,0,0,67,0,67,0,,,,,,,,,,,,,,,,,,,,,,,,,,,,,,,,,,,,,,,,,,,,,,67,9.0,f,021_o_f_h_a.jpg,happy,d,3,1,475.2153503999998,475.51118168999966,475.74401339999986,475.7697674899999,475.77028679999967,475.8046797899995,475.80440350000026,476.31616728999944,d,1,0.5034444999992047,503.4444999992047,475.80440350000026,476.31616728999944,476.32366379999985,477.9612456900002,EMOCONPILOT001,2020_Dec_12_1126,EmoCon_Pilot_120Hz,2020.2.4,120.07641663111632,
,,,,0,0,0,0,68,0,68,0,,,,,,,,,,,,,,,,,,,,,,,,,,,,,,,,,,,,,,,,,,,,,,68,8.0,f,019_m_f_h_a.jpg,happy,d,17,1,477.96756259999984,478.2613263900001,478.27519589999974,478.4130795899999,478.4175279000001,478.45826048999953,478.4635115000001,478.7278313899995,d,1,0.25255829999969137,252.55829999969137,478.4635115000001,478.7278313899995,478.7385267999998,480.00291369000007,EMOCONPILOT001,2020_Dec_12_1126,EmoCon_Pilot_120Hz,2020.2.4,120.07641663111632,
,,,,0,0,0,0,69,0,69,0,,,,,,,,,,,,,,,,,,,,,,,,,,,,,,,,,,,,,,,,,,,,,,69,9.0,f,021_o_f_s_a.jpg,sad,a,17,1,480.00705579999976,480.3027309899997,480.3125729000003,480.44616749000016,480.44964189999973,480.4875333899998,480.4909617000003,481.5963595900001,a,1,1.0889159999996991,1088.9159999996991,480.4909617000003,481.5963595900001,481.6043534999999,483.5363508899998,EMOCONPILOT001,2020_Dec_12_1126,EmoCon_Pilot_120Hz,2020.2.4,120.07641663111632,
,,,,0,0,0,0,70,0,70,0,,,,,,,,,,,,,,,,,,,,,,,,,,,,,,,,,,,,,,,,,,,,,,70,2.0,m,008_y_m_h_a.jpg,happy,d,17,1,483.5406119999998,483.8363205899994,483.86129019999953,483.9963610900002,484.00065639999957,484.0411986899997,484.04652369999985,484.5752292899995,d,1,0.5174721000003046,517.4721000003046,484.04652369999985,484.5752292899995,484.5867181000003,486.2614157899996,EMOCONPILOT001,2020_Dec_12_1126,EmoCon_Pilot_120Hz,2020.2.4,120.07641663111632,
,,,,0,0,0,0,71,0,71,0,,,,,,,,,,,,,,,,,,,,,,,,,,,,,,,,,,,,,,,,,,,,,,71,1.0,m,004_o_m_h_a.jpg,happy,d,3,1,486.2675627999997,486.56144058999945,486.76423049999994,486.7905936899995,486.7910141000002,486.82709248999964,486.82667279999987,487.5473900899995,d,1,0.713199099999656,713.199099999656,486.82667279999987,487.5473900899995,487.55689429999984,489.0282379899998,EMOCONPILOT001,2020_Dec_12_1126,EmoCon_Pilot_120Hz,2020.2.4,120.07641663111632,
,,,,0,0,0,0,72,0,72,0,,,,,,,,,,,,,,,,,,,,,,,,,,,,,,,,,,,,,,,,,,,,,,72,11.0,f,030_o_f_h_a.jpg,happy,d,17,1,489.0337225000003,489.3281454899996,489.5280170999995,489.6822529899999,489.68289689999983,489.7206713899994,489.72420650000004,490.6512224899996,d,1,0.9195866000000024,919.5866000000024,489.72420650000004,490.6512224899996,490.66083379999964,491.75306858999994,EMOCONPILOT001,2020_Dec_12_1126,EmoCon_Pilot_120Hz,2020.2.4,120.07641663111632,
,,,,0,0,0,0,73,0,73,0,,,,,,,,,,,,,,,,,,,,,,,,,,,,,,,,,,,,,,,,,,,,,,73,8.0,f,019_m_f_s_a.jpg,sad,a,3,1,491.75609859999986,492.0532490899994,492.29634519999945,492.32213579,492.3230746999998,492.3585064899997,492.35843730000033,493.4905576899999,s,0,1.1253772000000026,1125.3772000000026,492.35843730000033,493.4905576899999,493.49813919999997,495.0867201899999,EMOCONPILOT001,2020_Dec_12_1126,EmoCon_Pilot_120Hz,2020.2.4,120.07641663111632,
,,,,0,0,0,0,74,0,74,0,,,,,,,,,,,,,,,,,,,,,,,,,,,,,,,,,,,,,,,,,,,,,,74,5.0,m,027_o_m_h_a.jpg,happy,d,17,1,495.09210919999987,495.38663719000016,495.61278570000013,495.78228238999947,495.7858387999995,495.8268712899997,495.8318022000003,496.41161249,d,1,0.5642289999996137,564.2289999996137,495.8318022000003,496.41161249,496.4231049,497.4533181899995,EMOCONPILOT001,2020_Dec_12_1126,EmoCon_Pilot_120Hz,2020.2.4,120.07641663111632,
,,,,0,0,0,0,75,0,75,0,,,,,,,,,,,,,,,,,,,,,,,,,,,,,,,,,,,,,,,,,,,,,,75,8.0,f,019_m_f_s_a.jpg,sad,a,17,1,497.4586763999996,497.75332358999987,497.99019320000025,498.1596868899995,498.16453529999944,498.20591978999965,498.2111236999999,498.5978945899995,a,1,0.37694740000006277,376.94740000006277,498.2111236999999,498.5978945899995,498.6095316000001,500.58671749000024,EMOCONPILOT001,2020_Dec_12_1126,EmoCon_Pilot_120Hz,2020.2.4,120.07641663111632,
,,,,0,0,0,0,76,0,76,0,,,,,,,,,,,,,,,,,,,,,,,,,,,,,,,,,,,,,,,,,,,,,,76,7.0,f,012_o_f_n_a.jpg,neutral,s,17,1,500.5920424999995,500.8867164900001,501.1011060999999,501.26625658999984,501.26996299999973,501.31086428999953,501.31601369999953,501.97915448999976,s,1,0.6483059000001958,648.3059000001958,501.31601369999953,501.97915448999976,501.98994589999984,503.7618744899999,EMOCONPILOT001,2020_Dec_12_1126,EmoCon_Pilot_120Hz,2020.2.4,120.07641663111632,
,,,,0,0,0,0,77,0,77,0,,,,,,,,,,,,,,,,,,,,,,,,,,,,,,,,,,,,,,,,,,,,,,77,6.0,m,033_o_m_s_a.jpg,sad,a,3,1,503.76750939999965,504.0617942899997,504.0856281999995,504.10846999000006,504.10938780000015,504.14629418999976,504.14790319999975,505.01251308999946,s,0,0.855840199999875,855.840199999875,504.14790319999975,505.01251308999946,505.0199977000002,506.76171808999953,EMOCONPILOT001,2020_Dec_12_1126,EmoCon_Pilot_120Hz,2020.2.4,120.07641663111632,
,,,,0,0,0,0,78,0,78,0,,,,,,,,,,,,,,,,,,,,,,,,,,,,,,,,,,,,,,,,,,,,,,78,1.0,m,004_o_m_h_a.jpg,happy,d,3,1,506.7646705999996,507.06181799000007,507.2573629999997,507.28434458999965,507.28438540000025,507.3213800900001,507.32274739999957,507.84336868999964,d,1,0.5130584999997154,513.0584999997154,507.32274739999957,507.84336868999964,507.85288729999957,509.83690739000014,EMOCONPILOT001,2020_Dec_12_1126,EmoCon_Pilot_120Hz,2020.2.4,120.07641663111632,
,,,,0,0,0,0,79,0,79,0,,,,,,,,,,,,,,,,,,,,,,,,,,,,,,,,,,,,,,,,,,,,,,79,5.0,m,027_o_m_s_a.jpg,sad,a,3,1,509.84244260000014,510.1370217900001,510.1587295999998,510.18077349000015,510.1814899000001,510.22144319,510.22317269999985,510.98371948999994,s,0,0.748668500000349,748.668500000349,510.22317269999985,510.98371948999994,510.99570179999955,512.9453015899996,EMOCONPILOT001,2020_Dec_12_1126,EmoCon_Pilot_120Hz,2020.2.4,120.07641663111632,
,,,,0,0,0,0,80,0,80,0,,,,,,,,,,,,,,,,,,,,,,,,,,,,,,,,,,,,,,,,,,,,,,80,9.0,f,021_o_f_s_a.jpg,sad,a,3,1,512.9484660999997,513.2454217900001,513.2698467999999,513.2918264899997,513.2924689000001,513.32981619,513.3313490999999,513.9032989899995,d,0,0.5604565000003277,560.4565000003277,513.3313490999999,513.9032989899995,513.9105848999998,515.21205859,EMOCONPILOT001,2020_Dec_12_1126,EmoCon_Pilot_120Hz,2020.2.4,120.07641663111632,
,,,,0,0,0,0,81,0,81,0,,,,,,,,,,,,,,,,,,,,,,,,,,,,,,,,,,,,,,,,,,,,,,81,5.0,m,027_o_m_s_a.jpg,sad,a,3,1,515.2175042999997,515.5120619899997,515.5319797000002,515.5547141899995,515.5552290999995,515.5906027899998,515.5913724000002,516.17926719,s,0,0.5804909999997108,580.4909999997108,515.5913724000002,516.17926719,516.1875196999999,517.5203875899995,EMOCONPILOT001,2020_Dec_12_1126,EmoCon_Pilot_120Hz,2020.2.4,120.07641663111632,
,,,,0,0,0,0,82,0,82,0,,,,,,,,,,,,,,,,,,,,,,,,,,,,,,,,,,,,,,,,,,,,,,82,7.0,f,012_o_f_h_a.jpg,happy,d,3,1,517.5245681999995,517.8204741899997,517.843758,517.8654241900001,517.8662826999998,517.9049060899995,517.9050195,518.6632977899997,s,0,0.7468320999996649,746.8320999996649,517.9050195,518.6632977899997,518.6753528999998,520.3119649899998,EMOCONPILOT001,2020_Dec_12_1126,EmoCon_Pilot_120Hz,2020.2.4,120.07641663111632,
,,,,0,0,0,0,83,0,83,0,,,,,,,,,,,,,,,,,,,,,,,,,,,,,,,,,,,,,,,,,,,,,,83,3.0,m,013_y_m_s_a.jpg,sad,a,17,1,520.3122923000001,520.6121076899997,520.6363255999995,520.7720431899995,520.7751865,520.8133203899995,520.8167287999995,521.2304966899999,s,0,0.40309030000025814,403.09030000025814,520.8167287999995,521.2304966899999,521.2408076000002,522.9788484899998,EMOCONPILOT001,2020_Dec_12_1126,EmoCon_Pilot_120Hz,2020.2.4,120.07641663111632,
,,,,0,0,0,0,84,0,84,0,,,,,,,,,,,,,,,,,,,,,,,,,,,,,,,,,,,,,,,,,,,,,,84,5.0,m,027_o_m_s_a.jpg,sad,a,3,1,522.9845505000003,523.2788464900002,523.2990098999999,523.3217966899999,523.3222428999998,523.35782739,523.3577137000002,523.9451121899999,s,0,0.5743516999991698,574.3516999991698,523.3577137000002,523.9451121899999,523.9531258999996,525.3205394899994,EMOCONPILOT001,2020_Dec_12_1126,EmoCon_Pilot_120Hz,2020.2.4,120.07641663111632,
,,,,0,0,0,0,85,0,85,0,,,,,,,,,,,,,,,,,,,,,,,,,,,,,,,,,,,,,,,,,,,,,,85,4.0,m,016_y_m_s_a.jpg,sad,a,17,1,525.3256689,525.6205982899999,525.6423106000002,525.7805248900002,525.7840246999995,525.82458939,525.8287410000003,526.8201760899999,a,1,0.9829612000003181,982.9612000003181,525.8287410000003,526.8201760899999,526.8274983000001,528.7540339899995,EMOCONPILOT001,2020_Dec_12_1126,EmoCon_Pilot_120Hz,2020.2.4,120.07641663111632,
,,,,0,0,0,0,86,0,86,0,,,,,,,,,,,,,,,,,,,,,,,,,,,,,,,,,,,,,,,,,,,,,,86,5.0,m,027_o_m_n_a.jpg,neutral,s,17,1,528.7583874000002,529.0540510899998,529.2661165,529.4376734899995,529.4423828999998,529.4833549900002,529.4877605000001,530.2088139899995,s,1,0.7078529000000344,707.8529000000344,529.4877605000001,530.2088139899995,530.2122394999997,531.8123889899996,EMOCONPILOT001,2020_Dec_12_1126,EmoCon_Pilot_120Hz,2020.2.4,120.07641663111632,
,,,,0,0,0,0,87,0,87,0,,,,,,,,,,,,,,,,,,,,,,,,,,,,,,,,,,,,,,,,,,,,,,87,3.0,m,013_y_m_h_a.jpg,happy,d,3,1,531.8180370999999,532.1122361899995,532.3464396999998,532.3724192899997,532.3753187000002,532.4149698899998,532.4181792999998,532.9794048900001,d,1,0.553795199999513,553.795199999513,532.4181792999998,532.9794048900001,532.9880863999997,534.6791851899995,EMOCONPILOT001,2020_Dec_12_1126,EmoCon_Pilot_120Hz,2020.2.4,120.07641663111632,
,,,,0,0,0,0,88,0,88,0,,,,,,,,,,,,,,,,,,,,,,,,,,,,,,,,,,,,,,,,,,,,,,88,5.0,m,027_o_m_s_a.jpg,sad,a,17,1,534.6849039999997,534.9791040899997,534.9951333999998,535.1309912899994,535.1345232000003,535.1728906899996,535.1763279999996,535.8385953899995,a,1,0.6515096000002814,651.5096000002814,535.1763279999996,535.8385953899995,535.8498969000002,537.0207776899995,EMOCONPILOT001,2020_Dec_12_1126,EmoCon_Pilot_120Hz,2020.2.4,120.07641663111632,
,,,,0,0,0,0,89,0,89,0,,,,,,,,,,,,,,,,,,,,,,,,,,,,,,,,,,,,,,,,,,,,,,89,5.0,m,027_o_m_s_a.jpg,sad,a,3,1,537.0249058999998,537.3207603899998,537.3420501999999,537.3649344899993,537.3666046999997,537.4020016900001,537.4024917999996,538.2928266899996,a,1,0.873398100000486,873.398100000486,537.4024917999996,538.2928266899996,538.2996452999996,539.7040653900001,EMOCONPILOT001,2020_Dec_12_1126,EmoCon_Pilot_120Hz,2020.2.4,120.07641663111632,
,,,,0,0,0,0,90,0,90,0,,,,,,,,,,,,,,,,,,,,,,,,,,,,,,,,,,,,,,,,,,,,,,90,12.0,f,040_y_f_s_a.jpg,sad,a,3,1,539.7065932999994,540.0041437899997,540.0197553999997,540.0424384899995,540.0432836,540.0803357900002,540.0821751000003,541.3294103899996,s,0,1.2336261999998896,1233.6261999998896,540.0821751000003,541.3294103899996,541.3378302000001,543.2459061899997,EMOCONPILOT001,2020_Dec_12_1126,EmoCon_Pilot_120Hz,2020.2.4,120.07641663111632,
,,,,0,0,0,0,91,0,91,0,,,,,,,,,,,,,,,,,,,,,,,,,,,,,,,,,,,,,,,,,,,,,,91,3.0,m,013_y_m_n_a.jpg,neutral,s,3,1,543.2501677999999,543.5459305900001,543.7957507000001,543.8213101899998,543.8218277999995,543.85752389,543.8573834999997,544.6222646899994,s,1,0.754553499999929,754.553499999929,543.8573834999997,544.6222646899994,544.6315196999994,546.5544346899994,EMOCONPILOT001,2020_Dec_12_1126,EmoCon_Pilot_120Hz,2020.2.4,120.07641663111632,
,,,,0,0,0,0,92,0,92,0,,,,,,,,,,,,,,,,,,,,,,,,,,,,,,,,,,,,,,,,,,,,,,92,12.0,f,040_y_f_s_a.jpg,sad,a,3,1,546.5601096,546.8544622899997,546.8779392999995,546.90090149,546.9015373000002,546.9387343899996,546.9389437999998,548.0429069899999,s,0,1.0888747999997577,1088.8747999997577,546.9389437999998,548.0429069899999,548.0524232999996,549.5293381899999,EMOCONPILOT001,2020_Dec_12_1126,EmoCon_Pilot_120Hz,2020.2.4,120.07641663111632,
,,,,0,0,0,0,93,0,93,0,,,,,,,,,,,,,,,,,,,,,,,,,,,,,,,,,,,,,,,,,,,,,,93,6.0,m,033_o_m_s_a.jpg,sad,a,3,1,549.5324797000003,549.8293407899998,549.8508134000003,549.87332889,549.8752359999999,549.9113796899999,549.9127057999995,550.94306699,s,0,1.0190021999997043,1019.0021999997043,549.9127057999995,550.94306699,550.9465713,552.8460974899997,EMOCONPILOT001,2020_Dec_12_1126,EmoCon_Pilot_120Hz,2020.2.4,120.07641663111632,
,,,,0,0,0,0,94,0,94,0,,,,,,,,,,,,,,,,,,,,,,,,,,,,,,,,,,,,,,,,,,,,,,94,2.0,m,008_y_m_s_a.jpg,sad,a,3,1,552.8505089999999,553.1461756899996,553.3871165,553.4124556899994,553.4128983,553.4499836900002,553.4505871000001,554.9385983899999,s,0,1.473289300000033,1473.289300000033,553.4505871000001,554.9385983899999,554.9463647000002,556.3045593899994,EMOCONPILOT001,2020_Dec_12_1126,EmoCon_Pilot_120Hz,2020.2.4,120.07641663111632,
,,,,0,0,0,0,95,0,95,0,,,,,,,,,,,,,,,,,,,,,,,,,,,,,,,,,,,,,,,,,,,,,,95,8.0,f,019_m_f_s_a.jpg,sad,a,3,1,556.3107486999997,556.6045788899999,556.8353195999998,556.8613995899993,556.8614839000002,556.8973273899999,556.8976491000003,557.9609389899995,s,0,1.0500559000001886,1050.0559000001886,556.8976491000003,557.9609389899995,557.9682281999994,559.6796168899998,EMOCONPILOT001,2020_Dec_12_1126,EmoCon_Pilot_120Hz,2020.2.4,120.07641663111632,
,,,,0,0,0,0,96,0,96,0,,,,,,,,,,,,,,,,,,,,,,,,,,,,,,,,,,,,,,,,,,,,,,96,9.0,f,021_o_f_n_a.jpg,neutral,s,17,1,559.6850409999997,559.9796693899996,560.1789403000002,560.3453509899998,560.3496677000003,560.3904357899999,560.3954526999996,560.9354901899994,s,1,0.528703800000585,528.703800000585,560.3954526999996,560.9354901899994,560.9460876000003,562.5463059900001,EMOCONPILOT001,2020_Dec_12_1126,EmoCon_Pilot_120Hz,2020.2.4,120.07641663111632,
,,,,0,0,0,0,97,0,97,0,,,,,,,,,,,,,,,,,,,,,,,,,,,,,,,,,,,,,,,,,,,,,,97,11.0,f,030_o_f_h_a.jpg,happy,d,3,1,562.5504945000002,562.8463599899994,563.0370674999995,563.0629811899996,563.0632515999996,563.0986858899994,563.0990562999996,563.6135528900002,d,1,0.5048866000006456,504.88660000064556,563.0990562999996,563.6135528900002,563.6217096999999,565.3963603899999,EMOCONPILOT001,2020_Dec_12_1126,EmoCon_Pilot_120Hz,2020.2.4,120.07641663111632,
,,,,0,0,0,0,98,0,98,0,,,,,,,,,,,,,,,,,,,,,,,,,,,,,,,,,,,,,,,,,,,,,,98,12.0,f,040_y_f_n_a.jpg,neutral,s,3,1,565.4005116999997,565.6963596899993,565.9015872999998,565.9264893899997,565.9267504,565.9642982899993,565.9643057000003,566.5568880899998,s,1,0.5834710999997696,583.4710999997696,565.9643057000003,566.5568880899998,566.5645488999999,567.6215754900002,EMOCONPILOT001,2020_Dec_12_1126,EmoCon_Pilot_120Hz,2020.2.4,120.07641663111632,
,,,,0,0,0,0,99,0,99,0,,,,,,,,,,,,,,,,,,,,,,,,,,,,,,,,,,,,,,,,,,,,,,99,12.0,f,040_y_f_s_a.jpg,sad,a,3,1,567.6272343,567.9215392899994,567.9495127,567.9723500899997,567.9729835999997,568.0084567900001,568.0089282999998,568.7488517899999,s,0,0.7229292000001806,722.9292000001806,568.0089282999998,568.7488517899999,568.7565968999997,570.0381170899998,EMOCONPILOT001,2020_Dec_12_1126,EmoCon_Pilot_120Hz,2020.2.4,120.07641663111632,
,,,,0,0,0,0,100,0,100,0,,,,,,,,,,,,,,,,,,,,,,,,,,,,,,,,,,,,,,,,,,,,,,100,4.0,m,016_y_m_n_a.jpg,neutral,s,3,1,570.0424076999998,570.3381537900002,570.5802515999994,570.6054370899999,570.6060642000002,570.6412038899996,570.6408925999995,571.3255313899997,s,1,0.6750141000002259,675.0141000002259,570.6408925999995,571.3255313899997,571.3356652000002,572.5633368899996,EMOCONPILOT001,2020_Dec_12_1126,EmoCon_Pilot_120Hz,2020.2.4,120.07641663111632,
,,,,0,0,0,0,101,0,101,0,,,,,,,,,,,,,,,,,,,,,,,,,,,,,,,,,,,,,,,,,,,,,,101,11.0,f,030_o_f_s_a.jpg,sad,a,3,1,572.5688984999997,572.8632799899995,573.0699733000001,573.0956471899997,573.0991990000002,573.1384096899999,573.1426648999995,573.74330859,s,0,0.5890583999998853,589.0583999998853,573.1426648999995,573.74330859,573.7505862999997,575.3883082899999,EMOCONPILOT001,2020_Dec_12_1126,EmoCon_Pilot_120Hz,2020.2.4,120.07641663111632,
,,,,0,0,0,0,102,0,102,0,,,,,,,,,,,,,,,,,,,,,,,,,,,,,,,,,,,,,,,,,,,,,,102,3.0,m,013_y_m_h_a.jpg,happy,d,3,1,575.3923802999998,575.6883200899999,575.9213602,575.9469921899997,575.9474250000003,575.9819878899996,575.9834356000001,576.5190115899993,d,1,0.5243208000001687,524.3208000001687,575.9834356000001,576.5190115899993,576.5266630999995,578.0134006899996,EMOCONPILOT001,2020_Dec_12_1126,EmoCon_Pilot_120Hz,2020.2.4,120.07641663111632,
,,,,0,0,0,0,103,0,103,0,,,,,,,,,,,,,,,,,,,,,,,,,,,,,,,,,,,,,,,,,,,,,,103,2.0,m,008_y_m_s_a.jpg,sad,a,3,1,578.0193024999999,578.3133305899999,578.5367492999994,578.5626189900001,578.5630383999996,578.5993054899998,578.5991727,579.24627029,a,1,0.6367760000002818,636.7760000002818,578.5991727,579.24627029,579.2565788000002,580.4884744899998,EMOCONPILOT001,2020_Dec_12_1126,EmoCon_Pilot_120Hz,2020.2.4,120.07641663111632,
,,,,0,0,0,0,104,0,104,0,,,,,,,,,,,,,,,,,,,,,,,,,,,,,,,,,,,,,,,,,,,,,,104,11.0,f,030_o_f_s_a.jpg,sad,a,17,1,580.4891975999999,580.7883881899995,581.0012852,581.17254639,581.1770866999996,581.2163179899997,581.2207743999998,581.6271815899997,a,1,0.39132270000027347,391.32270000027347,581.2207743999998,581.6271815899997,581.6379946999996,583.5301271899996,EMOCONPILOT001,2020_Dec_12_1126,EmoCon_Pilot_120Hz,2020.2.4,120.07641663111632,
,,,,0,0,0,0,105,0,105,0,,,,,,,,,,,,,,,,,,,,,,,,,,,,,,,,,,,,,,,,,,,,,,105,4.0,m,016_y_m_h_a.jpg,happy,d,17,1,583.5357297,583.8301905899996,583.8474654000001,583.98188989,583.9854613999996,584.0240438899998,584.0272448999995,584.8173122899996,d,1,0.7766340999996828,776.6340999996828,584.0272448999995,584.8173122899996,584.8284269999995,586.23848109,EMOCONPILOT001,2020_Dec_12_1126,EmoCon_Pilot_120Hz,2020.2.4,120.07641663111632,
,,,,0,0,0,0,106,0,106,0,,,,,,,,,,,,,,,,,,,,,,,,,,,,,,,,,,,,,,,,,,,,,,106,7.0,f,012_o_f_n_a.jpg,neutral,s,17,1,586.2426103999996,586.53847999,586.7532149999997,586.9225298899999,586.9261811999995,586.9655501899995,586.9703559,587.3679212899995,s,1,0.3855092000003424,385.5092000003424,586.9703559,587.3679212899995,587.3795400999998,589.0386696899993,EMOCONPILOT001,2020_Dec_12_1126,EmoCon_Pilot_120Hz,2020.2.4,120.07641663111632,
,,,,0,0,0,0,107,0,107,0,,,,,,,,,,,,,,,,,,,,,,,,,,,,,,,,,,,,,,,,,,,,,,107,11.0,f,030_o_f_h_a.jpg,happy,d,17,1,589.0442207999995,589.3385988899997,589.5274407999996,589.6883726899994,589.6930560000001,589.7339192899997,589.7385224,590.0450510899998,d,1,0.29750460000013845,297.50460000013845,589.7385224,590.0450510899998,590.0555890999995,591.8969222899993,EMOCONPILOT001,2020_Dec_12_1126,EmoCon_Pilot_120Hz,2020.2.4,120.07641663111632,
,,,,0,0,0,0,108,0,108,0,,,,,,,,,,,,,,,,,,,,,,,,,,,,,,,,,,,,,,,,,,,,,,108,1.0,m,004_o_m_s_a.jpg,sad,a,17,1,591.9009816999996,592.19692259,592.2176721999995,592.3487409899997,592.3522831999999,592.3908909899999,592.3948928999998,592.8198247899998,a,1,0.41720489999988786,417.20489999988786,592.3948928999998,592.8198247899998,592.8306873000001,594.4971403899997,EMOCONPILOT001,2020_Dec_12_1126,EmoCon_Pilot_120Hz,2020.2.4,120.07641663111632,
,,,,0,0,0,0,109,0,109,0,,,,,,,,,,,,,,,,,,,,,,,,,,,,,,,,,,,,,,,,,,,,,,109,3.0,m,013_y_m_n_a.jpg,neutral,s,17,1,594.5027838999995,594.7971137900001,595.0208272999998,595.1751428899995,595.1790488999995,595.2197924899999,595.2247878999997,595.6191504899996,s,1,0.38717799999994895,387.17799999994895,595.2247878999997,595.6191504899996,595.6296505,597.4137525899994,EMOCONPILOT001,2020_Dec_12_1126,EmoCon_Pilot_120Hz,2020.2.4,120.07641663111632,
,,,,0,0,0,0,110,0,110,0,,,,,,,,,,,,,,,,,,,,,,,,,,,,,,,,,,,,,,,,,,,,,,110,10.0,f,028_y_f_s_a.jpg,sad,a,17,1,597.4167343999998,597.7136434900001,597.7259898000002,597.8579423899998,597.8616362000002,597.8998694899999,597.9040580999999,598.3191828899996,a,1,0.40376280000054976,403.76280000054976,597.9040580999999,598.3191828899996,598.3259907000001,599.3387769899998,EMOCONPILOT001,2020_Dec_12_1126,EmoCon_Pilot_120Hz,2020.2.4,120.07641663111632,
,,,,0,0,0,0,111,0,111,0,,,,,,,,,,,,,,,,,,,,,,,,,,,,,,,,,,,,,,,,,,,,,,111,11.0,f,030_o_f_h_a.jpg,happy,d,17,1,599.3443909999996,599.6387887899998,599.8324954999998,599.9946027899994,599.9995465000002,600.04041519,600.0454303999995,600.4830215899999,d,1,0.422548900000038,422.548900000038,600.0454303999995,600.4830215899999,600.4957407000002,601.6138158900001,EMOCONPILOT001,2020_Dec_12_1126,EmoCon_Pilot_120Hz,2020.2.4,120.07641663111632,
,,,,0,0,0,0,112,0,112,0,,,,,,,,,,,,,,,,,,,,,,,,,,,,,,,,,,,,,,,,,,,,,,112,7.0,f,012_o_f_n_a.jpg,neutral,s,17,1,601.6194601999996,601.9138367899993,602.11258,602.2839002899998,602.2884131999999,602.3294660899999,602.3347370000001,602.7541671899996,s,1,0.4053085000005012,405.3085000005012,602.3347370000001,602.7541671899996,602.7654405000003,604.0139386899998,EMOCONPILOT001,2020_Dec_12_1126,EmoCon_Pilot_120Hz,2020.2.4,120.07641663111632,
,,,,0,0,0,0,113,0,113,0,,,,,,,,,,,,,,,,,,,,,,,,,,,,,,,,,,,,,,,,,,,,,,113,2.0,m,008_y_m_s_a.jpg,sad,a,17,1,604.0194722999995,604.3139432899995,604.5425662999996,604.7002723899993,604.7041739999995,604.74433079,604.7497634000001,605.1068289900002,a,1,0.34210089999942284,342.10089999942284,604.7497634000001,605.1068289900002,605.1144303000001,606.2473544900001,EMOCONPILOT001,2020_Dec_12_1126,EmoCon_Pilot_120Hz,2020.2.4,120.07641663111632,
,,,,0,0,0,0,114,0,114,0,,,,,,,,,,,,,,,,,,,,,,,,,,,,,,,,,,,,,,,,,,,,,,114,11.0,f,030_o_f_h_a.jpg,happy,d,17,1,606.2528421999996,606.5473479899999,606.7529818000003,606.9203911900001,606.9251191000003,606.9653856900002,606.9703835999999,607.2755429899996,d,1,0.2974445999998352,297.4445999998352,606.9703835999999,607.2755429899996,607.2871126,608.6805897900001,EMOCONPILOT001,2020_Dec_12_1126,EmoCon_Pilot_120Hz,2020.2.4,120.07641663111632,
,,,,0,0,0,0,115,0,115,0,,,,,,,,,,,,,,,,,,,,,,,,,,,,,,,,,,,,,,,,,,,,,,115,3.0,m,013_y_m_h_a.jpg,happy,d,17,1,608.6848633,608.9805937899998,609.2100773000002,609.3666933900001,609.3716671000002,609.4126790899998,609.4177799999998,609.8455008899998,d,1,0.4181048999998893,418.1048999998893,609.4177799999998,609.8455008899998,609.8570524999996,611.3138838900002,EMOCONPILOT001,2020_Dec_12_1126,EmoCon_Pilot_120Hz,2020.2.4,120.07641663111632,
,,,,0,0,0,0,116,0,116,0,,,,,,,,,,,,,,,,,,,,,,,,,,,,,,,,,,,,,,,,,,,,,,116,2.0,m,008_y_m_s_a.jpg,sad,a,17,1,611.3167291,611.6139060899993,611.8463110000002,612.0011616899999,612.0045848999998,612.0449688899996,612.0501377,612.4668084900002,a,1,0.40977899999961664,409.77899999961664,612.0501377,612.4668084900002,612.4784890999999,613.92241119,EMOCONPILOT001,2020_Dec_12_1126,EmoCon_Pilot_120Hz,2020.2.4,120.07641663111632,
,,,,0,0,0,0,117,0,117,0,,,,,,,,,,,,,,,,,,,,,,,,,,,,,,,,,,,,,,,,,,,,,,117,3.0,m,013_y_m_n_a.jpg,neutral,s,17,1,613.9271554999996,614.22235239,614.4531182999999,614.6182431899995,614.6223620999999,614.66308069,614.6682927000002,615.3002010899997,s,1,0.6156905999996525,615.6905999996525,614.6682927000002,615.3002010899997,615.3102945,616.5808007899993,EMOCONPILOT001,2020_Dec_12_1126,EmoCon_Pilot_120Hz,2020.2.4,120.07641663111632,
,,,,0,0,0,0,118,0,118,0,,,,,,,,,,,,,,,,,,,,,,,,,,,,,,,,,,,,,,,,,,,,,,118,6.0,m,033_o_m_n_a.jpg,neutral,s,17,1,616.5862951999998,616.8807558899996,617.0694414999998,617.2384219899993,617.2433335999995,617.2832289899995,617.2873523999997,617.8375028899998,s,1,0.5325920000004771,532.5920000004771,617.2873523999997,617.8375028899998,617.8487796,619.1641168899994,EMOCONPILOT001,2020_Dec_12_1126,EmoCon_Pilot_120Hz,2020.2.4,120.07641663111632,
,,,,0,0,0,0,119,0,119,0,,,,,,,,,,,,,,,,,,,,,,,,,,,,,,,,,,,,,,,,,,,,,,119,6.0,m,033_o_m_n_a.jpg,neutral,s,17,1,619.1671686999998,619.4641206899994,619.6599182,619.8202322899995,619.8249820999999,619.8656577899999,619.8707521999995,620.2591704899994,s,1,0.3733691000006729,373.3691000006729,619.8707521999995,620.2591704899994,620.2705402000001,622.20585559,EMOCONPILOT001,2020_Dec_12_1126,EmoCon_Pilot_120Hz,2020.2.4,120.07641663111632,
,,,,1,0,1,0,0,0,0,0,,,,,,,,,,,,,,,,,,,,,,,,,,,,,,,,,,,,,,,622.2843015999997,640.8900187899997,a,18.591534299999694,18591.534299999694,622.2843015999997,640.8900187899997,0,1.0,m,004_o_m_s_a.jpg,sad,a,2,2,640.8977575999997,641.1896911900001,641.2144830999996,641.2302493899995,641.2311511999997,641.2659306899993,641.2658203000001,642.0287067899997,s,0,0.7462411999995311,746.2411999995311,641.2658203000001,642.0287067899997,642.0394303000003,643.8313379899998,EMOCONPILOT001,2020_Dec_12_1126,EmoCon_Pilot_120Hz,2020.2.4,120.07641663111632,
,,,,1,0,1,0,1,0,1,0,,,,,,,,,,,,,,,,,,,,,,,,,,,,,,,,,,,,,,,,,,,,,,1,9.0,f,021_o_f_n_a.jpg,neutral,s,17,2,643.8351444999998,644.1313737899998,644.3398086999996,644.49987829,644.5044927999998,644.5452394900001,644.5505258000003,645.0878803899993,s,1,0.5253460999992967,525.3460999992967,644.5505258000003,645.0878803899993,645.0985203,647.0814219900001,EMOCONPILOT001,2020_Dec_12_1126,EmoCon_Pilot_120Hz,2020.2.4,120.07641663111632,
,,,,1,0,1,0,2,0,2,0,,,,,,,,,,,,,,,,,,,,,,,,,,,,,,,,,,,,,,,,,,,,,,2,11.0,f,030_o_f_s_a.jpg,sad,a,2,2,647.0869223999998,647.3814873899998,647.5781242000003,647.5951811900002,647.5956429999997,647.6326529899995,647.6340324000003,648.2791317899998,s,0,0.6338841000006141,633.8841000006141,647.6340324000003,648.2791317899998,648.2893727000001,649.6398812899995,EMOCONPILOT001,2020_Dec_12_1126,EmoCon_Pilot_120Hz,2020.2.4,120.07641663111632,
,,,,1,0,1,0,3,0,3,0,,,,,,,,,,,,,,,,,,,,,,,,,,,,,,,,,,,,,,,,,,,,,,3,10.0,f,028_y_f_s_a.jpg,sad,a,17,2,649.6441282999995,649.9398514900001,649.9615695000002,650.0998020899995,650.1039984999998,650.1458551899993,650.1508924,650.60956719,a,1,0.44516360000034183,445.16360000034183,650.1508924,650.60956719,650.6169351999997,652.32317949,EMOCONPILOT001,2020_Dec_12_1126,EmoCon_Pilot_120Hz,2020.2.4,120.07641663111632,
,,,,1,0,1,0,4,0,4,0,,,,,,,,,,,,,,,,,,,,,,,,,,,,,,,,,,,,,,,,,,,,,,4,6.0,m,033_o_m_n_a.jpg,neutral,s,2,2,652.3260211999996,652.6232776899994,652.8228006999998,652.84002579,652.8406539999996,652.8752629899998,652.8757539999997,653.6357657899996,s,1,0.7444500000001426,744.4500000001426,652.8757539999997,653.6357657899996,653.6424506000003,655.4649158899999,EMOCONPILOT001,2020_Dec_12_1126,EmoCon_Pilot_120Hz,2020.2.4,120.07641663111632,
,,,,1,0,1,0,5,0,5,0,,,,,,,,,,,,,,,,,,,,,,,,,,,,,,,,,,,,,,,,,,,,,,5,1.0,m,004_o_m_n_a.jpg,neutral,s,17,2,655.4708075999997,655.7648245899998,655.9625994999997,656.1204172899995,656.1233673999996,656.16052259,656.1634224999998,656.6760024900002,s,1,0.5042764999998326,504.2764999998326,656.1634224999998,656.6760024900002,656.6796986999998,658.03175369,EMOCONPILOT001,2020_Dec_12_1126,EmoCon_Pilot_120Hz,2020.2.4,120.07641663111632,
,,,,1,0,1,0,6,0,6,0,,,,,,,,,,,,,,,,,,,,,,,,,,,,,,,,,,,,,,,,,,,,,,6,12.0,f,040_y_f_s_a.jpg,sad,a,2,2,658.0373485,658.33176359,658.3570014999996,658.37203699,658.3727375999997,658.4083651899998,658.4080332000003,659.02733349,d,0,0.6119503999998415,611.9503999998415,658.4080332000003,659.02733349,659.0376097999997,660.1567968899997,EMOCONPILOT001,2020_Dec_12_1126,EmoCon_Pilot_120Hz,2020.2.4,120.07641663111632,
,,,,1,0,1,0,7,0,7,0,,,,,,,,,,,,,,,,,,,,,,,,,,,,,,,,,,,,,,,,,,,,,,7,9.0,f,021_o_f_n_a.jpg,neutral,s,17,2,660.1626318999997,660.4568109899999,660.6784369999996,660.8417807899993,660.8464041999996,660.8870742899996,660.8921424,661.3192585899994,s,1,0.41592730000047595,415.92730000047595,660.8921424,661.3192585899994,661.3310579999998,662.5983823899994,EMOCONPILOT001,2020_Dec_12_1126,EmoCon_Pilot_120Hz,2020.2.4,120.07641663111632,
,,,,1,0,1,0,8,0,8,0,,,,,,,,,,,,,,,,,,,,,,,,,,,,,,,,,,,,,,,,,,,,,,8,9.0,f,021_o_f_s_a.jpg,sad,a,2,2,662.6025455999998,662.8984434900001,662.9140004000001,662.9294056899996,662.9300391999996,662.9662485899996,662.9664886999999,663.5554821899993,d,0,0.5813605000003008,581.3605000003008,662.9664886999999,663.5554821899993,663.5631641999998,664.6900117900002,EMOCONPILOT001,2020_Dec_12_1126,EmoCon_Pilot_120Hz,2020.2.4,120.07641663111632,
,,,,1,0,1,0,9,0,9,0,,,,,,,,,,,,,,,,,,,,,,,,,,,,,,,,,,,,,,,,,,,,,,9,4.0,m,016_y_m_s_a.jpg,sad,a,2,2,664.6926661999996,664.99009559,665.0133138000001,665.0285052899997,665.0303980999997,665.0668824900001,665.0673901,665.8730871899995,s,0,0.792586399999891,792.586399999891,665.0673901,665.8730871899995,665.8813762,667.0069284899998,EMOCONPILOT001,2020_Dec_12_1126,EmoCon_Pilot_120Hz,2020.2.4,120.07641663111632,
,,,,1,0,1,0,10,0,10,0,,,,,,,,,,,,,,,,,,,,,,,,,,,,,,,,,,,,,,,,,,,,,,10,7.0,f,012_o_f_n_a.jpg,neutral,s,17,2,667.0113701999999,667.3068116900001,667.5253862999998,667.6906491899997,667.6951041000002,667.7360602899996,667.7405435999999,668.5634885899997,s,1,0.8152661000003718,815.2661000003718,667.7405435999999,668.5634885899997,668.5752254999998,670.1902400899996,EMOCONPILOT001,2020_Dec_12_1126,EmoCon_Pilot_120Hz,2020.2.4,120.07641663111632,
,,,,1,0,1,0,11,0,11,0,,,,,,,,,,,,,,,,,,,,,,,,,,,,,,,,,,,,,,,,,,,,,,11,2.0,m,008_y_m_n_a.jpg,neutral,s,17,2,670.1956896000002,670.4903565900001,670.7306890999998,670.8975927899999,670.9025032,670.9436335899998,670.9479323999994,671.2510570900001,s,1,0.28788079999958427,287.88079999958427,670.9479323999994,671.2510570900001,671.2591995000002,672.8486085900001,EMOCONPILOT001,2020_Dec_12_1126,EmoCon_Pilot_120Hz,2020.2.4,120.07641663111632,
,,,,1,0,1,0,12,0,12,0,,,,,,,,,,,,,,,,,,,,,,,,,,,,,,,,,,,,,,,,,,,,,,12,1.0,m,004_o_m_s_a.jpg,sad,a,17,2,672.8528144000002,673.1486051899999,673.1730040000002,673.3086282900001,673.3130656000003,673.3538050899995,673.3589229999998,673.94363099,a,1,0.5728874000005817,572.8874000005817,673.3589229999998,673.94363099,673.9519615999998,675.4903377899998,EMOCONPILOT001,2020_Dec_12_1126,EmoCon_Pilot_120Hz,2020.2.4,120.07641663111632,
,,,,1,0,1,0,13,0,13,0,,,,,,,,,,,,,,,,,,,,,,,,,,,,,,,,,,,,,,,,,,,,,,13,7.0,f,012_o_f_h_a.jpg,happy,d,2,2,675.4945499999994,675.7904448899997,675.8135321,675.8287062899997,675.8296063999996,675.8665934899998,675.8677134,676.6348425899994,d,1,0.7522322000004351,752.2322000004351,675.8677134,676.6348425899994,676.6440443000001,678.4237316899996,EMOCONPILOT001,2020_Dec_12_1126,EmoCon_Pilot_120Hz,2020.2.4,120.07641663111632,
,,,,1,0,1,0,14,0,14,0,,,,,,,,,,,,,,,,,,,,,,,,,,,,,,,,,,,,,,,,,,,,,,14,3.0,m,013_y_m_h_a.jpg,happy,d,17,2,678.4279981999998,678.7238278900002,678.9577190999998,679.1100836899993,679.1140489999998,679.15513369,679.1600479999997,679.6071569899993,d,1,0.4360317999999097,436.0317999999097,679.1600479999997,679.6071569899993,679.6189907999997,681.4071075899999,EMOCONPILOT001,2020_Dec_12_1126,EmoCon_Pilot_120Hz,2020.2.4,120.07641663111632,
,,,,1,0,1,0,15,0,15,0,,,,,,,,,,,,,,,,,,,,,,,,,,,,,,,,,,,,,,,,,,,,,,15,11.0,f,030_o_f_n_a.jpg,neutral,s,17,2,681.4125828999995,681.7072287899998,681.8991043999995,682.0588769899994,682.0625070999995,682.1035467899999,682.1087775999995,682.8750494899994,s,1,0.759120200000325,759.120200000325,682.1087775999995,682.8750494899994,682.8843919000001,684.7071939899995,EMOCONPILOT001,2020_Dec_12_1126,EmoCon_Pilot_120Hz,2020.2.4,120.07641663111632,
,,,,1,0,1,0,16,0,16,0,,,,,,,,,,,,,,,,,,,,,,,,,,,,,,,,,,,,,,,,,,,,,,16,3.0,m,013_y_m_n_a.jpg,neutral,s,2,2,684.7112774999996,685.00732829,685.2449366000001,685.2622543899995,685.2655869999999,685.3024436899993,685.3055990000003,685.8497383900001,s,1,0.5303518999999142,530.3518999999142,685.3055990000003,685.8497383900001,685.8581950999996,687.61557479,EMOCONPILOT001,2020_Dec_12_1126,EmoCon_Pilot_120Hz,2020.2.4,120.07641663111632,
,,,,1,0,1,0,17,0,17,0,,,,,,,,,,,,,,,,,,,,,,,,,,,,,,,,,,,,,,,,,,,,,,17,9.0,f,021_o_f_h_a.jpg,happy,d,2,2,687.6195723000001,687.9156668899993,688.1270213999996,688.14457079,688.1452162999994,688.1811357899994,688.1806823999996,688.8950405899993,d,1,0.7031016000000818,703.1016000000818,688.1806823999996,688.8950405899993,688.9026695000002,690.1322886899995,EMOCONPILOT001,2020_Dec_12_1126,EmoCon_Pilot_120Hz,2020.2.4,120.07641663111632,
,,,,1,0,1,0,18,0,18,0,,,,,,,,,,,,,,,,,,,,,,,,,,,,,,,,,,,,,,,,,,,,,,18,3.0,m,013_y_m_s_a.jpg,sad,a,2,2,690.1373871999995,690.4323505899999,690.4498080000003,690.4655403899994,690.4659569999994,690.50226619,690.5034736999996,691.8072070899996,s,0,1.2923461000000316,1292.3461000000316,690.5034736999996,691.8072070899996,691.8154622000002,693.6906277899996,EMOCONPILOT001,2020_Dec_12_1126,EmoCon_Pilot_120Hz,2020.2.4,120.07641663111632,
,,,,1,0,1,0,19,0,19,0,,,,,,,,,,,,,,,,,,,,,,,,,,,,,,,,,,,,,,,,,,,,,,19,10.0,f,028_y_f_h_a.jpg,happy,d,17,2,693.6935280999996,693.9906976899999,694.0120815,694.1424141899995,694.1461086999998,694.1868260899998,694.1904205000001,694.8017028900001,d,1,0.5975914000000557,597.5914000000557,694.1904205000001,694.8017028900001,694.8129115000002,696.2991676899999,EMOCONPILOT001,2020_Dec_12_1126,EmoCon_Pilot_120Hz,2020.2.4,120.07641663111632,
,,,,1,0,1,0,20,0,20,0,,,,,,,,,,,,,,,,,,,,,,,,,,,,,,,,,,,,,,,,,,,,,,20,4.0,m,016_y_m_h_a.jpg,happy,d,2,2,696.3021259999996,696.5991596900001,696.6147979999996,696.6300547899998,696.6309621,696.6669324900001,696.6682974999994,697.33267219,d,1,0.6477113000000827,647.7113000000827,696.6682974999994,697.33267219,697.3408037999998,699.1993213899993,EMOCONPILOT001,2020_Dec_12_1126,EmoCon_Pilot_120Hz,2020.2.4,120.07641663111632,
,,,,1,0,1,0,21,0,21,0,,,,,,,,,,,,,,,,,,,,,,,,,,,,,,,,,,,,,,,,,,,,,,21,6.0,m,033_o_m_h_a.jpg,happy,d,17,2,699.2048331999995,699.4992060900001,699.5200201999996,699.6508072899994,699.6541483999999,699.6924806899995,699.6959295999995,700.2949509899997,d,1,0.5879330999996455,587.9330999996455,699.6959295999995,700.2949509899997,700.3058897000001,701.7743213900001,EMOCONPILOT001,2020_Dec_12_1126,EmoCon_Pilot_120Hz,2020.2.4,120.07641663111632,
,,,,1,0,1,0,22,0,22,0,,,,,,,,,,,,,,,,,,,,,,,,,,,,,,,,,,,,,,,,,,,,,,22,5.0,m,027_o_m_s_a.jpg,sad,a,17,2,701.7798926999994,702.0742642900002,702.0987640000003,702.2342199900002,702.2384522000002,702.2794000900001,702.2845594999999,702.7330333899997,a,1,0.43130290000044624,431.30290000044624,702.2845594999999,702.7330333899997,702.7407862,704.2159279899995,EMOCONPILOT001,2020_Dec_12_1126,EmoCon_Pilot_120Hz,2020.2.4,120.07641663111632,
,,,,1,0,1,0,23,0,23,0,,,,,,,,,,,,,,,,,,,,,,,,,,,,,,,,,,,,,,,,,,,,,,23,10.0,f,028_y_f_n_a.jpg,neutral,s,17,2,704.2201675999995,704.5159397899995,704.7347051999996,704.8994531899996,704.9044156999998,704.9444646899999,704.9488253,705.3767121899998,s,1,0.4155469000006633,415.5469000006633,704.9488253,705.3767121899998,705.3887625999996,707.2660446899997,EMOCONPILOT001,2020_Dec_12_1126,EmoCon_Pilot_120Hz,2020.2.4,120.07641663111632,
,,,,1,0,1,0,24,0,24,0,,,,,,,,,,,,,,,,,,,,,,,,,,,,,,,,,,,,,,,,,,,,,,24,9.0,f,021_o_f_n_a.jpg,neutral,s,2,2,707.2722057000001,707.56612389,707.7783595000001,707.7958592900002,707.7967178999997,707.8339172899994,707.8351228000001,708.3916129899997,s,1,0.5446550000006027,544.6550000006027,707.8351228000001,708.3916129899997,708.3980124999998,710.1661545899995,EMOCONPILOT001,2020_Dec_12_1126,EmoCon_Pilot_120Hz,2020.2.4,120.07641663111632,
,,,,1,0,1,0,25,0,25,0,,,,,,,,,,,,,,,,,,,,,,,,,,,,,,,,,,,,,,,,,,,,,,25,8.0,f,019_m_f_h_a.jpg,happy,d,2,2,710.1692419000001,710.46605239,710.4941263000001,710.5102170899997,710.5126634999997,710.5505869899996,710.5526490000002,711.0802840899994,d,1,0.5154738000001089,515.4738000001089,710.5526490000002,711.0802840899994,711.0897376000003,712.9328809899996,EMOCONPILOT001,2020_Dec_12_1126,EmoCon_Pilot_120Hz,2020.2.4,120.07641663111632,
,,,,1,0,1,0,26,0,26,0,,,,,,,,,,,,,,,,,,,,,,,,,,,,,,,,,,,,,,,,,,,,,,26,4.0,m,016_y_m_n_a.jpg,neutral,s,2,2,712.9371888999995,713.2328971899994,713.4710634000003,713.4877947900002,713.4879712000002,713.5256846899999,713.5268404999997,714.0674960899994,s,1,0.5330220999994708,533.0220999994708,713.5268404999997,714.0674960899994,714.0783480999999,715.7161144899999,EMOCONPILOT001,2020_Dec_12_1126,EmoCon_Pilot_120Hz,2020.2.4,120.07641663111632,
,,,,1,0,1,0,27,0,27,0,,,,,,,,,,,,,,,,,,,,,,,,,,,,,,,,,,,,,,,,,,,,,,27,1.0,m,004_o_m_h_a.jpg,happy,d,17,2,715.7198864000002,716.0161637899998,716.2100663000001,716.3797015899997,716.3843962000001,716.4254946899998,716.4304285999997,716.8685126899998,d,1,0.42971940000006725,429.71940000006725,716.4304285999997,716.8685126899998,716.8800075999998,718.09133189,EMOCONPILOT001,2020_Dec_12_1126,EmoCon_Pilot_120Hz,2020.2.4,120.07641663111632,
,,,,1,0,1,0,28,0,28,0,,,,,,,,,,,,,,,,,,,,,,,,,,,,,,,,,,,,,,,,,,,,,,28,10.0,f,028_y_f_s_a.jpg,sad,a,2,2,718.0967948999996,718.3913070899996,718.4128731999999,718.42827139,718.4287457,718.4675274899998,718.4673807999998,719.2043265899999,d,0,0.7286146000005829,728.6146000005829,718.4673807999998,719.2043265899999,719.2128668999994,720.9663721899994,EMOCONPILOT001,2020_Dec_12_1126,EmoCon_Pilot_120Hz,2020.2.4,120.07641663111632,
,,,,1,0,1,0,29,0,29,0,,,,,,,,,,,,,,,,,,,,,,,,,,,,,,,,,,,,,,,,,,,,,,29,5.0,m,027_o_m_h_a.jpg,happy,d,17,2,720.9706246999995,721.2662908899999,721.4853107999998,721.6558486900001,721.6605454999999,721.7007816899993,721.7062421,722.0618387900001,d,1,0.34575330000006943,345.75330000006943,721.7062421,722.0618387900001,722.0748119999998,723.14971399,EMOCONPILOT001,2020_Dec_12_1126,EmoCon_Pilot_120Hz,2020.2.4,120.07641663111632,
,,,,1,0,1,0,30,0,30,0,,,,,,,,,,,,,,,,,,,,,,,,,,,,,,,,,,,,,,,,,,,,,,30,10.0,f,028_y_f_h_a.jpg,happy,d,2,2,723.1553868999999,723.44971599,723.4747052000002,723.4898702899998,723.4907361999994,723.5256854899997,723.5256564000001,724.1632212900001,d,1,0.6302329999998619,630.2329999998619,723.5256564000001,724.1632212900001,724.1729832999999,725.4665003899997,EMOCONPILOT001,2020_Dec_12_1126,EmoCon_Pilot_120Hz,2020.2.4,120.07641663111632,
,,,,1,0,1,0,31,0,31,0,,,,,,,,,,,,,,,,,,,,,,,,,,,,,,,,,,,,,,,,,,,,,,31,5.0,m,027_o_m_h_a.jpg,happy,d,2,2,725.4720202999997,725.7664076899998,725.9785378999995,725.9959363899995,725.9990909999997,726.0402355899994,726.0453519000002,726.5383087899997,d,1,0.48647210000035557,486.47210000035557,726.0453519000002,726.5383087899997,726.5447975999996,727.8748314900001,EMOCONPILOT001,2020_Dec_12_1126,EmoCon_Pilot_120Hz,2020.2.4,120.07641663111632,
,,,,1,0,1,0,32,0,32,0,,,,,,,,,,,,,,,,,,,,,,,,,,,,,,,,,,,,,,,,,,,,,,32,9.0,f,021_o_f_n_a.jpg,neutral,s,2,2,727.8776275,728.1747715899999,728.3807574000002,728.3976542899998,728.3982862000003,728.43444239,728.4342889,729.3980064899995,d,0,0.9535858999997799,953.5858999997799,728.4342889,729.3980064899995,729.4053242,731.3582302900002,EMOCONPILOT001,2020_Dec_12_1126,EmoCon_Pilot_120Hz,2020.2.4,120.07641663111632,
,,,,1,0,1,0,33,0,33,0,,,,,,,,,,,,,,,,,,,,,,,,,,,,,,,,,,,,,,,,,,,,,,33,3.0,m,013_y_m_s_a.jpg,sad,a,2,2,731.3642419999996,731.6583004900001,731.6841481000001,731.7000532899999,731.7005942999995,731.7347329900001,731.7344315999999,732.3473121899995,s,0,0.5977707000001828,597.7707000001828,731.7344315999999,732.3473121899995,732.3596736999998,733.8666001899999,EMOCONPILOT001,2020_Dec_12_1126,EmoCon_Pilot_120Hz,2020.2.4,120.07641663111632,
,,,,1,0,1,0,34,0,34,0,,,,,,,,,,,,,,,,,,,,,,,,,,,,,,,,,,,,,,,,,,,,,,34,1.0,m,004_o_m_n_a.jpg,neutral,s,2,2,733.8716513999998,734.1665490899993,734.3730714000003,734.3902626899996,734.3940284999999,734.43355219,734.4378643,734.9568431899995,s,1,0.5020002999999633,502.0002999999633,734.4378643,734.9568431899995,734.9681224999995,736.9166120899997,EMOCONPILOT001,2020_Dec_12_1126,EmoCon_Pilot_120Hz,2020.2.4,120.07641663111632,
,,,,1,0,1,0,35,0,35,0,,,,,,,,,,,,,,,,,,,,,,,,,,,,,,,,,,,,,,,,,,,,,,35,12.0,f,040_y_f_h_a.jpg,happy,d,17,2,736.9206432999999,737.2166118900002,737.2409314999995,737.3764909899999,737.3801470999997,737.4213230899993,737.42562,737.7624102899997,d,1,0.3223573999994187,322.3573999994187,737.42562,737.7624102899997,737.7740795999998,739.7583309899999,EMOCONPILOT001,2020_Dec_12_1126,EmoCon_Pilot_120Hz,2020.2.4,120.07641663111632,
,,,,1,0,1,0,36,0,36,0,,,,,,,,,,,,,,,,,,,,,,,,,,,,,,,,,,,,,,,,,,,,,,36,10.0,f,028_y_f_n_a.jpg,neutral,s,2,2,739.7622068999999,740.0583907899997,740.2666020999995,740.2832840899998,740.2858884999996,740.3235117900001,740.3285588999997,741.0672470899997,s,1,0.7311281000002054,731.1281000002054,740.3285588999997,741.0672470899997,741.0747388,742.2417725900002,EMOCONPILOT001,2020_Dec_12_1126,EmoCon_Pilot_120Hz,2020.2.4,120.07641663111632,
,,,,1,0,1,0,37,0,37,0,,,,,,,,,,,,,,,,,,,,,,,,,,,,,,,,,,,,,,,,,,,,,,37,11.0,f,030_o_f_n_a.jpg,neutral,s,2,2,742.2458704999999,742.54171879,742.7475555000001,742.7645839899994,742.7651478999996,742.8012744899995,742.8013960999997,743.9333966900001,s,1,1.1226925999999366,1122.6925999999366,742.8013960999997,743.9333966900001,743.9448076999997,745.0502459899997,EMOCONPILOT001,2020_Dec_12_1126,EmoCon_Pilot_120Hz,2020.2.4,120.07641663111632,
,,,,1,0,1,0,38,0,38,0,,,,,,,,,,,,,,,,,,,,,,,,,,,,,,,,,,,,,,,,,,,,,,38,1.0,m,004_o_m_h_a.jpg,happy,d,17,2,745.0558965,745.3501224899999,745.5475501999999,745.7054696900002,745.7102773999995,745.7513161899994,745.7564658000001,746.1334753899998,d,1,0.3674903000000995,367.4903000000995,745.7564658000001,746.1334753899998,746.1448689999997,747.4834829899999,EMOCONPILOT001,2020_Dec_12_1126,EmoCon_Pilot_120Hz,2020.2.4,120.07641663111632,
,,,,1,0,1,0,39,0,39,0,,,,,,,,,,,,,,,,,,,,,,,,,,,,,,,,,,,,,,,,,,,,,,39,6.0,m,033_o_m_h_a.jpg,happy,d,2,2,747.4873834,747.7834714899998,747.8054138999996,747.8206617899993,747.8217342999997,747.8596679899999,747.8613120999999,748.4780892899996,d,1,0.6064880000003541,606.4880000003541,747.8613120999999,748.4780892899996,748.4845736999996,750.1169225900001,EMOCONPILOT001,2020_Dec_12_1126,EmoCon_Pilot_120Hz,2020.2.4,120.07641663111632,
,,,,1,0,1,0,40,0,40,0,,,,,,,,,,,,,,,,,,,,,,,,,,,,,,,,,,,,,,,,,,,,,,40,7.0,f,012_o_f_h_a.jpg,happy,d,2,2,750.1231517999995,750.4169096899993,750.440861,750.4559199900002,750.4577786999998,750.4940724899996,750.4946764999995,751.0676361899993,d,1,0.5572462000000087,557.2462000000087,750.4946764999995,751.0676361899993,751.0735967999999,752.2836180900001,EMOCONPILOT001,2020_Dec_12_1126,EmoCon_Pilot_120Hz,2020.2.4,120.07641663111632,
,,,,1,0,1,0,41,0,41,0,,,,,,,,,,,,,,,,,,,,,,,,,,,,,,,,,,,,,,,,,,,,,,41,6.0,m,033_o_m_n_a.jpg,neutral,s,17,2,752.2891349000001,752.58375099,752.7958312000001,752.9642121899994,752.9690066000003,753.0100847900001,753.0151886000003,754.07570199,s,1,1.0526415000003908,1052.6415000003908,753.0151886000003,754.07570199,754.0833347999996,755.6003096900001,EMOCONPILOT001,2020_Dec_12_1126,EmoCon_Pilot_120Hz,2020.2.4,120.07641663111632,
,,,,1,0,1,0,42,0,42,0,,,,,,,,,,,,,,,,,,,,,,,,,,,,,,,,,,,,,,,,,,,,,,42,7.0,f,012_o_f_h_a.jpg,happy,d,17,2,755.6044520999994,755.9003697899996,755.9263051999997,756.06035099,756.064488,756.1055055899994,756.1107568999996,756.49757019,d,1,0.3733684999997422,373.3684999997422,756.1107568999996,756.49757019,756.5049120000003,757.7421782899999,EMOCONPILOT001,2020_Dec_12_1126,EmoCon_Pilot_120Hz,2020.2.4,120.07641663111632,
,,,,1,0,1,0,43,0,43,0,,,,,,,,,,,,,,,,,,,,,,,,,,,,,,,,,,,,,,,,,,,,,,43,5.0,m,027_o_m_h_a.jpg,happy,d,17,2,757.7478818,758.0421700899994,758.2563666999995,758.4185079899996,758.4230565999997,758.4640576899999,758.4691641,759.4760382900001,d,1,0.9989091000006738,998.9091000006738,758.4691641,759.4760382900001,759.4874829,761.4671062899995,EMOCONPILOT001,2020_Dec_12_1126,EmoCon_Pilot_120Hz,2020.2.4,120.07641663111632,
,,,,1,0,1,0,44,0,44,0,,,,,,,,,,,,,,,,,,,,,,,,,,,,,,,,,,,,,,,,,,,,,,44,10.0,f,028_y_f_s_a.jpg,sad,a,17,2,761.4712368999999,761.7671338899997,761.7902913999997,761.9270781900002,761.9308362000002,761.9698915899996,761.9728643999997,762.4419588899998,a,1,0.4549856000003274,454.9856000003274,761.9728643999997,762.4419588899998,762.4521249999998,763.98395099,EMOCONPILOT001,2020_Dec_12_1126,EmoCon_Pilot_120Hz,2020.2.4,120.07641663111632,
,,,,1,0,1,0,45,0,45,0,,,,,,,,,,,,,,,,,,,,,,,,,,,,,,,,,,,,,,,,,,,,,,45,7.0,f,012_o_f_n_a.jpg,neutral,s,2,2,763.9895638999997,764.2839554899999,764.4983663000003,764.5156842899994,764.5194203000001,764.5566828899998,764.5594173,765.2158965899996,s,1,0.6445757999999842,644.5757999999842,764.5594173,765.2158965899996,765.2245083999996,766.9839339899997,EMOCONPILOT001,2020_Dec_12_1126,EmoCon_Pilot_120Hz,2020.2.4,120.07641663111632,
,,,,1,0,1,0,46,0,46,0,,,,,,,,,,,,,,,,,,,,,,,,,,,,,,,,,,,,,,,,,,,,,,46,1.0,m,004_o_m_n_a.jpg,neutral,s,2,2,766.9879682000001,767.2839110900002,767.4717429000002,767.4894684899998,767.489399,767.5267562899996,767.5267108999997,767.9961720899998,s,1,0.46112799999991694,461.12799999991694,767.5267108999997,767.9961720899998,768.0044694999997,769.8255389899994,EMOCONPILOT001,2020_Dec_12_1126,EmoCon_Pilot_120Hz,2020.2.4,120.07641663111632,
,,,,1,0,1,0,47,0,47,0,,,,,,,,,,,,,,,,,,,,,,,,,,,,,,,,,,,,,,,,,,,,,,47,9.0,f,021_o_f_h_a.jpg,happy,d,17,2,769.8284158999995,770.1257138899998,770.3346652,770.5050031899998,770.5086038,770.5454629899994,770.5458798,771.6281381899996,d,1,1.0659995999994862,1065.9995999994862,770.5458798,771.6281381899996,771.6370330999998,773.6174905899995,EMOCONPILOT001,2020_Dec_12_1126,EmoCon_Pilot_120Hz,2020.2.4,120.07641663111632,
,,,,1,0,1,0,48,0,48,0,,,,,,,,,,,,,,,,,,,,,,,,,,,,,,,,,,,,,,,,,,,,,,48,10.0,f,028_y_f_n_a.jpg,neutral,s,2,2,773.6232417000001,773.9174724900001,774.1168852000001,774.1336383899995,774.1343181000002,774.1691888899993,774.1698469000003,775.10780899,s,1,0.9300782999998773,930.0782999998773,774.1698469000003,775.10780899,775.1171586999999,777.07578739,EMOCONPILOT001,2020_Dec_12_1126,EmoCon_Pilot_120Hz,2020.2.4,120.07641663111632,
,,,,1,0,1,0,49,0,49,0,,,,,,,,,,,,,,,,,,,,,,,,,,,,,,,,,,,,,,,,,,,,,,49,7.0,f,012_o_f_h_a.jpg,happy,d,2,2,777.0800677999996,777.37578689,777.3976469999998,777.4127262899999,777.4134592,777.4520247899998,777.4532895000002,777.9083401899995,d,1,0.4466740999996546,446.6740999996546,777.4532895000002,777.9083401899995,777.9193366,779.3008183899999,EMOCONPILOT001,2020_Dec_12_1126,EmoCon_Pilot_120Hz,2020.2.4,120.07641663111632,
,,,,1,0,1,0,50,0,50,0,,,,,,,,,,,,,,,,,,,,,,,,,,,,,,,,,,,,,,,,,,,,,,50,5.0,m,027_o_m_h_a.jpg,happy,d,2,2,779.3056083000001,779.6008053899993,779.8141317,779.8307457899998,779.8314891999999,779.8686490899997,779.8687258999998,780.4789426899995,d,1,0.5991702999999688,599.1702999999688,779.8687258999998,780.4789426899995,780.4874715999995,781.6842300899996,EMOCONPILOT001,2020_Dec_12_1126,EmoCon_Pilot_120Hz,2020.2.4,120.07641663111632,
,,,,1,0,1,0,51,0,51,0,,,,,,,,,,,,,,,,,,,,,,,,,,,,,,,,,,,,,,,,,,,,,,51,12.0,f,040_y_f_n_a.jpg,neutral,s,17,2,781.6884498999998,781.98427539,782.1891034999999,782.3478509899994,782.3531037000002,782.3939617899994,782.3991299999998,782.8158773900002,s,1,0.4047859000002063,404.7859000002063,782.3991299999998,782.8158773900002,782.8274269000003,783.9843489900002,EMOCONPILOT001,2020_Dec_12_1126,EmoCon_Pilot_120Hz,2020.2.4,120.07641663111632,
,,,,1,0,1,0,52,0,52,0,,,,,,,,,,,,,,,,,,,,,,,,,,,,,,,,,,,,,,,,,,,,,,52,2.0,m,008_y_m_h_a.jpg,happy,d,2,2,783.9884984,784.2842608899998,784.3054892,784.3213463899999,784.3220540000002,784.3576599899995,784.3581174000001,785.00451339,d,1,0.6377069999998639,637.7069999998639,784.3581174000001,785.00451339,785.0112651,786.8427121900002,EMOCONPILOT001,2020_Dec_12_1126,EmoCon_Pilot_120Hz,2020.2.4,120.07641663111632,
,,,,1,0,1,0,53,0,53,0,,,,,,,,,,,,,,,,,,,,,,,,,,,,,,,,,,,,,,,,,,,,,,53,6.0,m,033_o_m_h_a.jpg,happy,d,17,2,786.8479495000001,787.1427571900001,787.1664283999999,787.3027247899997,787.307519,787.3482084899995,787.3533453999999,787.8221605899996,d,1,0.4587296999998216,458.7296999998216,787.3533453999999,787.8221605899996,787.8353402000002,789.4094363900001,EMOCONPILOT001,2020_Dec_12_1126,EmoCon_Pilot_120Hz,2020.2.4,120.07641663111632,
,,,,1,0,1,0,54,0,54,0,,,,,,,,,,,,,,,,,,,,,,,,,,,,,,,,,,,,,,,,,,,,,,54,2.0,m,008_y_m_h_a.jpg,happy,d,17,2,789.4134224,789.7094766899997,789.7326748999994,789.86944199,789.8728610999997,789.9106293900002,789.9145251999998,790.5400623899993,d,1,0.6175759999996444,617.5759999996444,789.9145251999998,790.5400623899993,790.5514228000002,792.1927710899997,EMOCONPILOT001,2020_Dec_12_1126,EmoCon_Pilot_120Hz,2020.2.4,120.07641663111632,
,,,,1,0,1,0,55,0,55,0,,,,,,,,,,,,,,,,,,,,,,,,,,,,,,,,,,,,,,,,,,,,,,55,12.0,f,040_y_f_h_a.jpg,happy,d,2,2,792.1970259,792.4927723899998,792.5139650000001,792.5293916899998,792.5302085000003,792.5666004900002,792.5679633,793.2851643900001,d,1,0.7079100000000835,707.9100000000835,792.5679633,793.2851643900001,793.2937707000001,794.34277249,EMOCONPILOT001,2020_Dec_12_1126,EmoCon_Pilot_120Hz,2020.2.4,120.07641663111632,
,,,,1,0,1,0,56,0,56,0,,,,,,,,,,,,,,,,,,,,,,,,,,,,,,,,,,,,,,,,,,,,,,56,10.0,f,028_y_f_n_a.jpg,neutral,s,2,2,794.3445230999996,794.6427028899996,794.8552803000002,794.8720689899999,794.8753577999996,794.9132094899994,794.9186886999996,795.4181013899995,s,1,0.48525080000035814,485.25080000035814,794.9186886999996,795.4181013899995,795.4295163999996,796.6678629899995,EMOCONPILOT001,2020_Dec_12_1126,EmoCon_Pilot_120Hz,2020.2.4,120.07641663111632,
,,,,1,0,1,0,57,0,57,0,,,,,,,,,,,,,,,,,,,,,,,,,,,,,,,,,,,,,,,,,,,,,,57,12.0,f,040_y_f_s_a.jpg,sad,a,17,2,796.6721427000002,796.96786529,796.9842078000001,797.1195299899998,797.1237147000002,797.1648971900001,797.1699911999995,797.73908929,a,1,0.5620132999993075,562.0132999993075,797.1699911999995,797.73908929,797.7506948999999,799.4680504899995,EMOCONPILOT001,2020_Dec_12_1126,EmoCon_Pilot_120Hz,2020.2.4,120.07641663111632,
,,,,1,0,1,0,58,0,58,0,,,,,,,,,,,,,,,,,,,,,,,,,,,,,,,,,,,,,,,,,,,,,,58,5.0,m,027_o_m_n_a.jpg,neutral,s,2,2,799.4737711999996,799.7680295899997,799.9713913999994,799.9886188899998,799.9916734999997,800.0300406899994,800.0335754999996,800.6755796899995,s,1,0.6263161000006221,626.3161000006221,800.0335754999996,800.6755796899995,800.6871390999995,802.5013006899997,EMOCONPILOT001,2020_Dec_12_1126,EmoCon_Pilot_120Hz,2020.2.4,120.07641663111632,
,,,,1,0,1,0,59,0,59,0,,,,,,,,,,,,,,,,,,,,,,,,,,,,,,,,,,,,,,,,,,,,,,59,4.0,m,016_y_m_s_a.jpg,sad,a,17,2,802.5063982000001,802.80131779,802.8225560999999,802.9538580899996,802.9585684000003,802.9996233899999,803.0045807999995,803.4708867899997,a,1,0.4555497999999716,455.5497999999716,803.0045807999995,803.4708867899997,803.4776869999996,804.7264678899999,EMOCONPILOT001,2020_Dec_12_1126,EmoCon_Pilot_120Hz,2020.2.4,120.07641663111632,
,,,,1,0,1,0,60,0,60,0,,,,,,,,,,,,,,,,,,,,,,,,,,,,,,,,,,,,,,,,,,,,,,60,5.0,m,027_o_m_n_a.jpg,neutral,s,17,2,804.7307080999999,805.0263500899998,805.2405808000003,805.4018439899999,805.4068343999998,805.4452287900001,805.4507094999999,805.8810476899996,s,1,0.41723600000023,417.23600000023,805.4507094999999,805.8810476899996,805.8871859999999,807.7847157899994,EMOCONPILOT001,2020_Dec_12_1126,EmoCon_Pilot_120Hz,2020.2.4,120.07641663111632,
,,,,1,0,1,0,61,0,61,0,,,,,,,,,,,,,,,,,,,,,,,,,,,,,,,,,,,,,,,,,,,,,,61,10.0,f,028_y_f_s_a.jpg,sad,a,2,2,807.7876888000001,808.0847066899994,808.1060535999995,808.1221070899999,808.1226543000002,808.1590336899997,808.1604245999997,808.9131707899994,a,1,0.739599100000305,739.599100000305,808.1604245999997,808.9131707899994,808.9203017999998,809.92654259,EMOCONPILOT001,2020_Dec_12_1126,EmoCon_Pilot_120Hz,2020.2.4,120.07641663111632,
,,,,1,0,1,0,62,0,62,0,,,,,,,,,,,,,,,,,,,,,,,,,,,,,,,,,,,,,,,,,,,,,,62,3.0,m,013_y_m_n_a.jpg,neutral,s,2,2,809.9325565999998,810.2265979900001,810.4682204000001,810.4854733899999,810.4856946999998,810.5212969900001,810.5211773000001,811.11136779,s,1,0.5787345999997342,578.7345999997342,810.5211773000001,811.11136779,811.1161950999995,812.8682177899998,EMOCONPILOT001,2020_Dec_12_1126,EmoCon_Pilot_120Hz,2020.2.4,120.07641663111632,
,,,,1,0,1,0,63,0,63,0,,,,,,,,,,,,,,,,,,,,,,,,,,,,,,,,,,,,,,,,,,,,,,63,4.0,m,016_y_m_s_a.jpg,sad,a,17,2,812.8735932,813.1683070899996,813.1935800000001,813.3282207899999,813.3326780999996,813.37254379,813.3771705999998,813.7935565899995,a,1,0.4026874000001044,402.6874000001044,813.3771705999998,813.7935565899995,813.8018869999996,815.1933379899999,EMOCONPILOT001,2020_Dec_12_1126,EmoCon_Pilot_120Hz,2020.2.4,120.07641663111632,
,,,,1,0,1,0,64,0,64,0,,,,,,,,,,,,,,,,,,,,,,,,,,,,,,,,,,,,,,,,,,,,,,64,12.0,f,040_y_f_h_a.jpg,happy,d,2,2,815.1976196999994,815.4933204899996,815.5178575,815.5337584899996,815.5354436999996,815.5719788899994,815.5735752,816.4149338899995,d,1,0.8302939000004699,830.2939000004699,815.5735752,816.4149338899995,816.4235434000002,817.5183240899994,EMOCONPILOT001,2020_Dec_12_1126,EmoCon_Pilot_120Hz,2020.2.4,120.07641663111632,
,,,,1,0,1,0,65,0,65,0,,,,,,,,,,,,,,,,,,,,,,,,,,,,,,,,,,,,,,,,,,,,,,65,5.0,m,027_o_m_n_a.jpg,neutral,s,2,2,817.5248647999997,817.8184224899994,818.0349070000002,818.0526574899993,818.0562540999999,818.0963923899997,818.1016868999995,818.7418258899995,s,1,0.6302546999995684,630.2546999995684,818.1016868999995,818.7418258899995,818.7536090000003,820.6601798899999,EMOCONPILOT001,2020_Dec_12_1126,EmoCon_Pilot_120Hz,2020.2.4,120.07641663111632,
,,,,1,0,1,0,66,0,66,0,,,,,,,,,,,,,,,,,,,,,,,,,,,,,,,,,,,,,,,,,,,,,,66,6.0,m,033_o_m_s_a.jpg,sad,a,17,2,820.6655436000001,820.9600414899994,820.9810747000001,821.11180339,821.1153751000002,821.1539691899995,821.1580366999997,821.5969998899998,a,1,0.42986819999987347,429.86819999987347,821.1580366999997,821.5969998899998,821.6084641999996,823.1600934899996,EMOCONPILOT001,2020_Dec_12_1126,EmoCon_Pilot_120Hz,2020.2.4,120.07641663111632,
,,,,1,0,1,0,67,0,67,0,,,,,,,,,,,,,,,,,,,,,,,,,,,,,,,,,,,,,,,,,,,,,,67,6.0,m,033_o_m_h_a.jpg,happy,d,2,2,823.1642561999997,823.46010809,823.4802736000001,823.49553799,823.4961315,823.5315090900001,823.5318571999996,824.1988776899996,d,1,0.6560474000007162,656.0474000007162,823.5318571999996,824.1988776899996,824.2080746000001,825.9935635899999,EMOCONPILOT001,2020_Dec_12_1126,EmoCon_Pilot_120Hz,2020.2.4,120.07641663111632,
,,,,1,0,1,0,68,0,68,0,,,,,,,,,,,,,,,,,,,,,,,,,,,,,,,,,,,,,,,,,,,,,,68,2.0,m,008_y_m_s_a.jpg,sad,a,2,2,825.9992089999996,826.2936048899999,826.5331778999998,826.54946129,826.5503707999997,826.5865241899999,826.5863416000002,827.2478827900002,s,0,0.6495441000006394,649.5441000006394,826.5863416000002,827.2478827900002,827.2555278999998,828.4768415899996,EMOCONPILOT001,2020_Dec_12_1126,EmoCon_Pilot_120Hz,2020.2.4,120.07641663111632,
,,,,1,0,1,0,69,0,69,0,,,,,,,,,,,,,,,,,,,,,,,,,,,,,,,,,,,,,,,,,,,,,,69,1.0,m,004_o_m_n_a.jpg,neutral,s,17,2,828.4808934000002,828.7768816899995,828.9735355000003,829.13447729,829.1394009999995,829.1792382900001,829.1845932999995,830.39602489,s,1,1.1953518999998778,1195.3518999998778,829.1845932999995,830.39602489,830.4039698999995,831.7186787899998,EMOCONPILOT001,2020_Dec_12_1126,EmoCon_Pilot_120Hz,2020.2.4,120.07641663111632,
,,,,1,0,1,0,70,0,70,0,,,,,,,,,,,,,,,,,,,,,,,,,,,,,,,,,,,,,,,,,,,,,,70,2.0,m,008_y_m_s_a.jpg,sad,a,2,2,831.7227998999997,832.0186914899994,832.2518100999996,832.2681556899995,832.2684069999996,832.3056355899996,832.3089609999997,833.0411650899994,s,0,0.7189699000000473,718.9699000000473,832.3089609999997,833.0411650899994,833.0505199999998,834.6770353899999,EMOCONPILOT001,2020_Dec_12_1126,EmoCon_Pilot_120Hz,2020.2.4,120.07641663111632,
,,,,1,0,1,0,71,0,71,0,,,,,,,,,,,,,,,,,,,,,,,,,,,,,,,,,,,,,,,,,,,,,,71,11.0,f,030_o_f_n_a.jpg,neutral,s,17,2,834.6825941999996,834.9771049899998,835.1680532999999,835.3297337900001,835.3342594999995,835.3743109899995,835.3795669000001,835.7657308899995,s,1,0.3765339000001404,376.5339000001404,835.3795669000001,835.7657308899995,835.7763951999996,836.9103761899994,EMOCONPILOT001,2020_Dec_12_1126,EmoCon_Pilot_120Hz,2020.2.4,120.07641663111632,
,,,,1,0,1,0,72,0,72,0,,,,,,,,,,,,,,,,,,,,,,,,,,,,,,,,,,,,,,,,,,,,,,72,11.0,f,030_o_f_n_a.jpg,neutral,s,17,2,836.9143616000001,837.2104196899998,837.4159155999996,837.5745404899997,837.5793838,837.6201514900001,837.6249699,838.0210567900001,s,1,0.3789838000002419,378.9838000002419,837.6249699,838.0210567900001,838.0333645999999,839.6604130899993,EMOCONPILOT001,2020_Dec_12_1126,EmoCon_Pilot_120Hz,2020.2.4,120.07641663111632,
,,,,1,0,1,0,73,0,73,0,,,,,,,,,,,,,,,,,,,,,,,,,,,,,,,,,,,,,,,,,,,,,,73,2.0,m,008_y_m_s_a.jpg,sad,a,17,2,839.6645073999998,839.9605378899994,840.1958677000002,840.3596351899994,840.3638406999999,840.4032446899998,840.4084440999995,840.7907114899997,a,1,0.3713495000001785,371.3495000001785,840.4084440999995,840.7907114899997,840.7980490999998,842.1105828899997,EMOCONPILOT001,2020_Dec_12_1126,EmoCon_Pilot_120Hz,2020.2.4,120.07641663111632,
,,,,1,0,1,0,74,0,74,0,,,,,,,,,,,,,,,,,,,,,,,,,,,,,,,,,,,,,,,,,,,,,,74,11.0,f,030_o_f_n_a.jpg,neutral,s,2,2,842.1167640000003,842.4106034899994,842.6176796,842.63470949,842.6352354,842.6703853899996,842.6700672999996,843.4622350899997,s,1,0.7817813999999998,781.7813999999998,842.6700672999996,843.4622350899997,843.4696936999999,845.0605047899996,EMOCONPILOT001,2020_Dec_12_1126,EmoCon_Pilot_120Hz,2020.2.4,120.07641663111632,
,,,,1,0,1,0,75,0,75,0,,,,,,,,,,,,,,,,,,,,,,,,,,,,,,,,,,,,,,,,,,,,,,75,1.0,m,004_o_m_s_a.jpg,sad,a,17,2,845.0635317999995,845.3605858899998,845.3825187000002,845.5205456900001,845.5249355999995,845.5655619899997,845.5707393000002,845.9376169899995,a,1,0.35337149999941175,353.37149999941175,845.5707393000002,845.9376169899995,845.9444231999996,847.3190150899998,EMOCONPILOT001,2020_Dec_12_1126,EmoCon_Pilot_120Hz,2020.2.4,120.07641663111632,
,,,,1,0,1,0,76,0,76,0,,,,,,,,,,,,,,,,,,,,,,,,,,,,,,,,,,,,,,,,,,,,,,76,3.0,m,013_y_m_n_a.jpg,neutral,s,2,2,847.3247077999995,847.6189591899999,847.8555881000002,847.8728116899999,847.8742274999995,847.9117824900002,847.9153229000003,848.4354684899997,s,1,0.5126555000006192,512.6555000006192,847.9153229000003,848.4354684899997,848.4459703000002,850.0772978900002,EMOCONPILOT001,2020_Dec_12_1126,EmoCon_Pilot_120Hz,2020.2.4,120.07641663111632,
,,,,1,0,1,0,77,0,77,0,,,,,,,,,,,,,,,,,,,,,,,,,,,,,,,,,,,,,,,,,,,,,,77,7.0,f,012_o_f_s_a.jpg,sad,a,17,2,850.0811101999998,850.3773879899998,850.4005205000003,850.5373421900001,850.5424748999994,850.5833540900001,850.5885061999998,850.9244682899996,a,1,0.32742900000084774,327.42900000084774,850.5885061999998,850.9244682899996,850.9320898999995,852.0107649899999,EMOCONPILOT001,2020_Dec_12_1126,EmoCon_Pilot_120Hz,2020.2.4,120.07641663111632,
,,,,1,0,1,0,78,0,78,0,,,,,,,,,,,,,,,,,,,,,,,,,,,,,,,,,,,,,,,,,,,,,,78,12.0,f,040_y_f_n_a.jpg,neutral,s,17,2,852.0163768000002,852.3107513900002,852.5267096999996,852.6931374899993,852.6980951999994,852.73868079,852.7439981999996,853.3440228899997,s,1,0.5881150000004709,588.1150000004709,852.7439981999996,853.3440228899997,853.3565337999999,854.7940830899995,EMOCONPILOT001,2020_Dec_12_1126,EmoCon_Pilot_120Hz,2020.2.4,120.07641663111632,
,,,,1,0,1,0,79,0,79,0,,,,,,,,,,,,,,,,,,,,,,,,,,,,,,,,,,,,,,,,,,,,,,79,6.0,m,033_o_m_h_a.jpg,happy,d,17,2,854.7981940999998,855.0940482899994,855.1172656999997,855.2543527899995,855.2590029000003,855.2995993900001,855.3048846000002,856.1218533899998,d,1,0.8029974000000948,802.9974000000948,855.3048846000002,856.1218533899998,856.1299465000002,857.2773508899998,EMOCONPILOT001,2020_Dec_12_1126,EmoCon_Pilot_120Hz,2020.2.4,120.07641663111632,
,,,,1,0,1,0,80,0,80,0,,,,,,,,,,,,,,,,,,,,,,,,,,,,,,,,,,,,,,,,,,,,,,80,2.0,m,008_y_m_n_a.jpg,neutral,s,2,2,857.2802839999995,857.5773603899995,857.8187860999997,857.8352596900002,857.8357809999998,857.8708740899999,857.8715212999996,858.4064284899994,s,1,0.5243388999997478,524.3388999997478,857.8715212999996,858.4064284899994,858.4139028999998,860.2858928899993,EMOCONPILOT001,2020_Dec_12_1126,EmoCon_Pilot_120Hz,2020.2.4,120.07641663111632,
,,,,1,0,1,0,81,0,81,0,,,,,,,,,,,,,,,,,,,,,,,,,,,,,,,,,,,,,,,,,,,,,,81,12.0,f,040_y_f_h_a.jpg,happy,d,2,2,860.2902918,860.5858965899995,860.6026966999998,860.6185189899995,860.6193089999997,860.6542460899998,860.6554756999994,861.2623352899998,d,1,0.5963570000003529,596.3570000003529,860.6554756999994,861.2623352899998,861.2697476000003,863.1192843899996,EMOCONPILOT001,2020_Dec_12_1126,EmoCon_Pilot_120Hz,2020.2.4,120.07641663111632,
,,,,1,0,1,0,82,0,82,0,,,,,,,,,,,,,,,,,,,,,,,,,,,,,,,,,,,,,,,,,,,,,,82,9.0,f,021_o_f_h_a.jpg,happy,d,17,2,863.1234735999997,863.41926949,863.6335791000001,863.7932593899993,863.7980845000002,863.8385761899997,863.8438767999996,864.3110497899995,d,1,0.45607399999971676,456.07399999971676,863.8438767999996,864.3110497899995,864.3213102,866.1776040900002,EMOCONPILOT001,2020_Dec_12_1126,EmoCon_Pilot_120Hz,2020.2.4,120.07641663111632,
,,,,1,0,1,0,83,0,83,0,,,,,,,,,,,,,,,,,,,,,,,,,,,,,,,,,,,,,,,,,,,,,,83,6.0,m,033_o_m_h_a.jpg,happy,d,2,2,866.1816994999999,866.4776306900001,866.4988129000003,866.5143754899998,866.5150510000003,866.5508743899998,866.5507494000003,867.4309827899995,d,1,0.8691903999997521,869.1903999997521,866.5507494000003,867.4309827899995,867.4418387999995,869.1111488899994,EMOCONPILOT001,2020_Dec_12_1126,EmoCon_Pilot_120Hz,2020.2.4,120.07641663111632,
,,,,1,0,1,0,84,0,84,0,,,,,,,,,,,,,,,,,,,,,,,,,,,,,,,,,,,,,,,,,,,,,,84,2.0,m,008_y_m_n_a.jpg,neutral,s,17,2,869.1171944999996,869.4108800900001,869.6454365,869.8132609900001,869.8181746,869.8584067899999,869.8636715000002,870.4441292899999,s,1,0.5643557000003057,564.3557000003057,869.8636715000002,870.4441292899999,870.4555678999996,871.7277430900001,EMOCONPILOT001,2020_Dec_12_1126,EmoCon_Pilot_120Hz,2020.2.4,120.07641663111632,
,,,,1,0,1,0,85,0,85,0,,,,,,,,,,,,,,,,,,,,,,,,,,,,,,,,,,,,,,,,,,,,,,85,10.0,f,028_y_f_n_a.jpg,neutral,s,2,2,871.7319680999999,872.0277434899997,872.2281959000002,872.2453197900002,872.2484782000001,872.2858880900001,872.2894146999997,872.9304240899999,s,1,0.6266777999999249,626.6777999999249,872.2894146999997,872.9304240899999,872.938529,874.03626289,EMOCONPILOT001,2020_Dec_12_1126,EmoCon_Pilot_120Hz,2020.2.4,120.07641663111632,
,,,,1,0,1,0,86,0,86,0,,,,,,,,,,,,,,,,,,,,,,,,,,,,,,,,,,,,,,,,,,,,,,86,6.0,m,033_o_m_h_a.jpg,happy,d,17,2,874.0420684999999,874.3362562899999,874.3597807999995,874.4964991899994,874.5009627,874.54152099,874.5469051,874.81134249,d,1,0.2573069000000032,257.3069000000032,874.5469051,874.81134249,874.8229683,875.9778793899993,EMOCONPILOT001,2020_Dec_12_1126,EmoCon_Pilot_120Hz,2020.2.4,120.07641663111632,
,,,,1,0,1,0,87,0,87,0,,,,,,,,,,,,,,,,,,,,,,,,,,,,,,,,,,,,,,,,,,,,,,87,5.0,m,027_o_m_s_a.jpg,sad,a,17,2,875.9820608,876.2779296899996,876.3003440000002,876.4377837899999,876.4416258000001,876.47909349,876.4817141000003,877.1375698899999,a,1,0.6423983999993652,642.3983999993652,876.4817141000003,877.1375698899999,877.1468187999999,878.43631179,EMOCONPILOT001,2020_Dec_12_1126,EmoCon_Pilot_120Hz,2020.2.4,120.07641663111632,
,,,,1,0,1,0,88,0,88,0,,,,,,,,,,,,,,,,,,,,,,,,,,,,,,,,,,,,,,,,,,,,,,88,7.0,f,012_o_f_s_a.jpg,sad,a,2,2,878.4404836000003,878.7363044900001,878.7570392999996,878.7729923899994,878.7735787000001,878.8093834899998,878.8091316999999,879.4689739899993,d,0,0.6429378000002544,642.9378000002544,878.8091316999999,879.4689739899993,879.4789851999994,880.9029488899994,EMOCONPILOT001,2020_Dec_12_1126,EmoCon_Pilot_120Hz,2020.2.4,120.07641663111632,
,,,,1,0,1,0,89,0,89,0,,,,,,,,,,,,,,,,,,,,,,,,,,,,,,,,,,,,,,,,,,,,,,89,2.0,m,008_y_m_h_a.jpg,happy,d,17,2,880.9087645999998,881.2030605899997,881.2241730999995,881.3546184899994,881.3589581999995,881.39993269,881.4051819999995,881.9390643899994,d,1,0.5269572000006519,526.9572000006519,881.4051819999995,881.9390643899994,881.9513013999995,883.2114548899997,EMOCONPILOT001,2020_Dec_12_1126,EmoCon_Pilot_120Hz,2020.2.4,120.07641663111632,
,,,,1,0,1,0,90,0,90,0,,,,,,,,,,,,,,,,,,,,,,,,,,,,,,,,,,,,,,,,,,,,,,90,7.0,f,012_o_f_h_a.jpg,happy,d,2,2,883.2170494000002,883.5114254899997,883.5341337999998,883.5491575899994,883.5511432000003,883.58738599,883.5888814,884.2202425899993,d,1,0.6232420999995156,623.2420999995156,883.5888814,884.2202425899993,884.2286409999997,886.1530268899994,EMOCONPILOT001,2020_Dec_12_1126,EmoCon_Pilot_120Hz,2020.2.4,120.07641663111632,
,,,,1,0,1,0,91,0,91,0,,,,,,,,,,,,,,,,,,,,,,,,,,,,,,,,,,,,,,,,,,,,,,91,10.0,f,028_y_f_s_a.jpg,sad,a,17,2,886.1584628,886.4531067899995,886.4683871999996,886.6051343899996,886.6093361000003,886.6501626899997,886.6555020999995,887.0341330899998,a,1,0.3644640000002255,364.4640000002255,886.6555020999995,887.0341330899998,887.0456567000001,888.7530624899998,EMOCONPILOT001,2020_Dec_12_1126,EmoCon_Pilot_120Hz,2020.2.4,120.07641663111632,
,,,,1,0,1,0,92,0,92,0,,,,,,,,,,,,,,,,,,,,,,,,,,,,,,,,,,,,,,,,,,,,,,92,12.0,f,040_y_f_s_a.jpg,sad,a,2,2,888.7571488000003,889.0530890899997,889.0732472999998,889.0888658900001,889.0892518999999,889.1252483899996,889.1252254999999,889.7074588899993,s,0,0.566597100000763,566.597100000763,889.1252254999999,889.7074588899993,889.7129223000002,891.2948055899994,EMOCONPILOT001,2020_Dec_12_1126,EmoCon_Pilot_120Hz,2020.2.4,120.07641663111632,
,,,,1,0,1,0,93,0,93,0,,,,,,,,,,,,,,,,,,,,,,,,,,,,,,,,,,,,,,,,,,,,,,93,2.0,m,008_y_m_n_a.jpg,neutral,s,2,2,891.2989111999996,891.5948099899995,891.8452335000002,891.8632305899998,891.8663158999998,891.9057552900001,891.9107629999999,892.6336299900001,s,1,0.7091639999998733,709.1639999998733,891.9107629999999,892.6336299900001,892.6450198000002,894.3783556899996,EMOCONPILOT001,2020_Dec_12_1126,EmoCon_Pilot_120Hz,2020.2.4,120.07641663111632,
,,,,1,0,1,0,94,0,94,0,,,,,,,,,,,,,,,,,,,,,,,,,,,,,,,,,,,,,,,,,,,,,,94,11.0,f,030_o_f_s_a.jpg,sad,a,2,2,894.3840594000003,894.6782901899994,894.8741828000002,894.89177739,894.8927723999996,894.9293011899997,894.9293166999996,895.4913167900002,a,1,0.546454299999823,546.454299999823,894.9293166999996,895.4913167900002,895.4972306,897.1783768900002,EMOCONPILOT001,2020_Dec_12_1126,EmoCon_Pilot_120Hz,2020.2.4,120.07641663111632,
,,,,1,0,1,0,95,0,95,0,,,,,,,,,,,,,,,,,,,,,,,,,,,,,,,,,,,,,,,,,,,,,,95,9.0,f,021_o_f_n_a.jpg,neutral,s,2,2,897.1835556999995,897.4783791899997,897.6789935999996,897.6962693899993,897.6966788,897.7315591899994,897.7313621000003,898.3211726899997,s,1,0.5764343999999255,576.4343999999255,897.7313621000003,898.3211726899997,898.3268115000001,899.4116505899999,EMOCONPILOT001,2020_Dec_12_1126,EmoCon_Pilot_120Hz,2020.2.4,120.07641663111632,
,,,,1,0,1,0,96,0,96,0,,,,,,,,,,,,,,,,,,,,,,,,,,,,,,,,,,,,,,,,,,,,,,96,6.0,m,033_o_m_h_a.jpg,happy,d,17,2,899.4157549000001,899.7116595899995,899.7364972999994,899.8716845899996,899.8751856999997,899.9147441900002,899.9202171999996,900.3695853899997,d,1,0.43600290000085806,436.00290000085806,899.9202171999996,900.3695853899997,900.3806519999998,901.5784094899998,EMOCONPILOT001,2020_Dec_12_1126,EmoCon_Pilot_120Hz,2020.2.4,120.07641663111632,
,,,,1,0,1,0,97,0,97,0,,,,,,,,,,,,,,,,,,,,,,,,,,,,,,,,,,,,,,,,,,,,,,97,3.0,m,013_y_m_s_a.jpg,sad,a,2,2,901.5839746000001,901.87845859,901.9000724999996,901.9153110899995,901.9155186999997,901.95456859,901.9562307999995,902.6260808899995,s,0,0.6556354000003921,655.6354000003921,901.9562307999995,902.6260808899995,902.6345351,904.3617588899995,EMOCONPILOT001,2020_Dec_12_1126,EmoCon_Pilot_120Hz,2020.2.4,120.07641663111632,
