trials_example.thisRepN,trials_example.thisTrialN,trials_example.thisN,trials_example.thisIndex,block.thisRepN,block.thisTrialN,block.thisN,block.thisIndex,trials_study.thisRepN,trials_study.thisTrialN,trials_study.thisN,trials_study.thisIndex,text_welcome.started,text_welcome.stopped,text_intro.started,text_intro.stopped,key_resp_intro.keys,key_resp_intro.started,key_resp_intro.stopped,text_intro2.started,text_intro2.stopped,key_resp_intro2.keys,key_resp_intro2.rt,key_resp_intro2.started,key_resp_intro2.stopped,example trial,personPrimeExample,genderPrimeExample,primeExample,emotionPrimeExample,corrAnsPrimeExample,example mask time,fix300_example.started,fix300_example.stopped,image_primer_example.started,image_primer_example.stopped,scrambled.started,scrambled.stopped,text_response_example.started,text_response_example.stopped,key_resp_example.keys,key_resp_example.corr,key_resp_example.started,key_resp_example.stopped,Jitter_example.started,Jitter_example.stopped,key_resp_example.rt,key_resp_example.rt in ms,text_start.started,text_start.stopped,text_pause.started,text_pause.stopped,key_resp_pause.keys,key_resp_pause.rt,key_resp_pause.rt in ms,key_resp_pause.started,key_resp_pause.stopped,study trial,personPrimeStudy,genderPrimeStudy,primeStudy,emotionPrimeStudy,corrAnsPrimeStudy,study mask time,Block,fix300_study.started,fix300_study.stopped,image_primer_study.started,image_primer_study.stopped,scrambled_study.started,scrambled_study.stopped,text_response_study.started,text_response_study.stopped,key_resp_study.keys,key_resp_study.corr,key_resp_study.started,key_resp_study.stopped,Jitter_study.started,Jitter_study.stopped,key_resp_study.rt,key_resp_study.rt in ms,participant,date,expName,psychopyVersion,frameRate,
,,,,,,,,,,,,21.5945307998918,24.58609127998352,24.590028499951586,30.1072463800665,None,24.590028499951586,30.1072463800665,,,,,,,,,,,,,,,,,,,,,,,,,,,,,,,,,,,,,,,,,,,,,,,,,,,,,,,,,,,,,,,EMOCONPILOT010,2021_Jan_04_1704,EmoCon_Pilot_120Hz,2020.2.4,120.24621606703984,
,,,,,,,,,,,,,,,,,,,30.111387399956584,33.566631980007514,space,3.4456292998511344,30.111387399956584,33.566631980007514,,,,,,,,,,,,,,,,,,,,,,,,,,,,,,,,,,,,,,,,,,,,,,,,,,,,,,,,,EMOCONPILOT010,2021_Jan_04_1704,EmoCon_Pilot_120Hz,2020.2.4,120.24621606703984,
0,0,0,0,,,,,,,,,,,,,,,,,,,,,,0,3.0,f,1113_y_f_s_a.jpg,sad,a,17,33.57332680001855,33.86120137991384,34.091165399877355,34.244950579945,34.25161499995738,34.28734587994404,34.2880404999014,35.91901307995431,None,0,34.2880404999014,35.91901307995431,35.92081280006096,37.65298727992922,,,,,,,,,,,,,,,,,,,,,,,,,,,,,,,,,,,,EMOCONPILOT010,2021_Jan_04_1704,EmoCon_Pilot_120Hz,2020.2.4,120.24621606703984,
1,0,1,0,,,,,,,,,,,,,,,,,,,,,,1,1.0,m,1111_m_m_s_a.jpg,sad,a,17,37.654929499840364,37.95289687998593,38.15025769989006,38.30654698004946,38.308913100045174,38.349822379881516,38.35299429995939,39.52486667991616,a,1,38.35299429995939,39.52486667991616,39.527393899858,40.54458277998492,1.155906799947843,1155.906799947843,,,,,,,,,,,,,,,,,,,,,,,,,,,,,,,,,,EMOCONPILOT010,2021_Jan_04_1704,EmoCon_Pilot_120Hz,2020.2.4,120.24621606703984,
2,0,2,0,,,,,,,,,,,,,,,,,,,,,,2,3.0,f,1113_y_f_n_a.jpg,neutral,s,17,40.545516500016674,40.844588779844344,41.04190499987453,41.19647107995115,41.19934990000911,41.239445680053905,41.241994299925864,42.423037679865956,s,1,41.241994299925864,42.423037679865956,42.428155599860474,44.169791280059144,1.1709527000784874,1170.9527000784874,,,,,,,,,,,,,,,,,,,,,,,,,,,,,,,,,,EMOCONPILOT010,2021_Jan_04_1704,EmoCon_Pilot_120Hz,2020.2.4,120.24621606703984,
3,0,3,0,,,,,,,,,,,,,,,,,,,,,,3,2.0,f,1112_m_f_h_a.jpg,happy,d,3,44.171494599897414,44.469843280036,44.66876649996266,44.694826680002734,44.695234399987385,44.73091168003157,44.73061789991334,46.370225979946554,None,0,44.73061789991334,46.370225979946554,46.37093480001204,47.386456379899755,,,,,,,,,,,,,,,,,,,,,,,,,,,,,,,,,,,,EMOCONPILOT010,2021_Jan_04_1704,EmoCon_Pilot_120Hz,2020.2.4,120.24621606703984,
4,0,4,0,,,,,,,,,,,,,,,,,,,,,,4,2.0,f,1112_m_f_n_a.jpg,neutral,s,17,47.38740909984335,47.68652967992239,47.88381839985959,48.04394097998738,48.04652570001781,48.08777257986367,48.09070699987933,49.757948979968205,a,0,48.09070699987933,49.757948979968205,49.76343160006218,51.44489148003049,1.6584364001173526,1658.4364001173526,,,,,,,,,,,,,,,,,,,,,,,,,,,,,,,,,,EMOCONPILOT010,2021_Jan_04_1704,EmoCon_Pilot_120Hz,2020.2.4,120.24621606703984,
,,,,0,0,0,0,0,0,0,0,,,,,,,,,,,,,,,,,,,,,,,,,,,,,,,,,,,,,51.4907791998703,54.4781540799886,54.4788679999765,56.87074428005144,space,2.382270500063896,2382.270500063896,54.4788679999765,56.87074428005144,0,8.0,f,019_m_f_s_a.jpg,sad,a,17,1,56.87969779991545,57.170090480009094,57.431738399900496,57.58616977999918,57.590597399976104,57.62937987991609,57.63703339989297,59.3464781800285,None,0,57.63703339989297,59.3464781800285,59.35244579985738,60.38671938003972,,,EMOCONPILOT010,2021_Jan_04_1704,EmoCon_Pilot_120Hz,2020.2.4,120.24621606703984,
,,,,0,0,0,0,1,0,1,0,,,,,,,,,,,,,,,,,,,,,,,,,,,,,,,,,,,,,,,,,,,,,,1,6.0,m,033_o_m_n_a.jpg,neutral,s,17,1,60.39200269989669,60.6867156799417,60.88459059991874,61.042607279960066,61.04761779983528,61.08763567986898,61.092510699993,62.728477580007166,None,0,61.092510699993,62.728477580007166,62.73513469984755,64.35351018002257,,,EMOCONPILOT010,2021_Jan_04_1704,EmoCon_Pilot_120Hz,2020.2.4,120.24621606703984,
,,,,0,0,0,0,2,0,2,0,,,,,,,,,,,,,,,,,,,,,,,,,,,,,,,,,,,,,,,,,,,,,,2,2.0,m,008_y_m_s_a.jpg,sad,a,3,1,64.35753539996222,64.65346987987868,64.88779999990948,64.91321168001741,64.91358030005358,64.9481386798434,64.94896299997345,66.67016077996232,None,0,64.94896299997345,66.67016077996232,66.67518689995632,67.95358247985132,,,EMOCONPILOT010,2021_Jan_04_1704,EmoCon_Pilot_120Hz,2020.2.4,120.24621606703984,
,,,,0,0,0,0,3,0,3,0,,,,,,,,,,,,,,,,,,,,,,,,,,,,,,,,,,,,,,,,,,,,,,3,11.0,f,030_o_f_h_a.jpg,happy,d,3,1,67.95787479984574,68.25348967988975,68.45236300001852,68.47801108006388,68.48144939984195,68.52090668003075,68.52620269986801,69.83773837983608,d,1,68.52620269986801,69.83773837983608,69.84901769994758,71.11203637998551,1.2949706998188049,1294.9706998188049,EMOCONPILOT010,2021_Jan_04_1704,EmoCon_Pilot_120Hz,2020.2.4,120.24621606703984,
,,,,0,0,0,0,4,0,4,0,,,,,,,,,,,,,,,,,,,,,,,,,,,,,,,,,,,,,,,,,,,,,,4,11.0,f,030_o_f_s_a.jpg,sad,a,17,1,71.1163055000361,71.41203738003969,71.61104639992118,71.76831567985937,71.77122520003468,71.80852057994343,71.81195879983716,73.13488758006133,a,1,71.81195879983716,73.13488758006133,73.14408889994957,74.14531897986308,1.312962100142613,1312.962100142613,EMOCONPILOT010,2021_Jan_04_1704,EmoCon_Pilot_120Hz,2020.2.4,120.24621606703984,
,,,,0,0,0,0,5,0,5,0,,,,,,,,,,,,,,,,,,,,,,,,,,,,,,,,,,,,,,,,,,,,,,5,11.0,f,030_o_f_s_a.jpg,sad,a,3,1,74.1481220999267,74.44531908002682,74.646037499886,74.67338597984053,74.67830889998004,74.71829638001509,74.72330549987964,75.99201248004101,s,0,74.72330549987964,75.99201248004101,76.0041579999961,77.42033437988721,1.2577774999663234,1257.7774999663234,EMOCONPILOT010,2021_Jan_04_1704,EmoCon_Pilot_120Hz,2020.2.4,120.24621606703984,
,,,,0,0,0,0,6,0,6,0,,,,,,,,,,,,,,,,,,,,,,,,,,,,,,,,,,,,,,,,,,,,,,6,5.0,m,027_o_m_n_a.jpg,neutral,s,3,1,77.42316080001183,77.72041587997228,77.92956890002824,77.9561260798946,77.95935829984955,77.99834657995962,78.00273970002308,79.1464278800413,s,1,78.00273970002308,79.1464278800413,79.15484139998443,80.64541677990928,1.13019649987109,1130.19649987109,EMOCONPILOT010,2021_Jan_04_1704,EmoCon_Pilot_120Hz,2020.2.4,120.24621606703984,
,,,,0,0,0,0,7,0,7,0,,,,,,,,,,,,,,,,,,,,,,,,,,,,,,,,,,,,,,,,,,,,,,7,8.0,f,019_m_f_n_a.jpg,neutral,s,3,1,80.64830700005405,80.94550248002633,81.18319149990566,81.20894737984054,81.20911669987254,81.24669467983767,81.24790099984966,82.61864667991176,s,1,81.24790099984966,82.61864667991176,82.63013599999249,84.09563247999176,1.3571313000284135,1357.1313000284135,EMOCONPILOT010,2021_Jan_04_1704,EmoCon_Pilot_120Hz,2020.2.4,120.24621606703984,
,,,,0,0,0,0,8,0,8,0,,,,,,,,,,,,,,,,,,,,,,,,,,,,,,,,,,,,,,,,,,,,,,8,5.0,m,027_o_m_h_a.jpg,happy,d,17,1,84.10007729986683,84.39564618002623,84.60491059999913,84.76504557998851,84.76864299993031,84.80600757990032,84.80966899986379,85.75207448005676,d,1,84.80966899986379,85.75207448005676,85.76075719995424,86.81225497997366,0.9313208998646587,931.3208998646587,EMOCONPILOT010,2021_Jan_04_1704,EmoCon_Pilot_120Hz,2020.2.4,120.24621606703984,
,,,,0,0,0,0,9,0,9,0,,,,,,,,,,,,,,,,,,,,,,,,,,,,,,,,,,,,,,,,,,,,,,9,8.0,f,019_m_f_n_a.jpg,neutral,s,17,1,86.81636709999293,87.11227727984078,87.357737199869,87.52904607984237,87.53367489995435,87.57498747995123,87.57914419984445,88.50739937997423,s,1,87.57914419984445,88.50739937997423,88.51844320003875,90.07066927989945,0.9139282000251114,913.9282000251114,EMOCONPILOT010,2021_Jan_04_1704,EmoCon_Pilot_120Hz,2020.2.4,120.24621606703984,
,,,,0,0,0,0,10,0,10,0,,,,,,,,,,,,,,,,,,,,,,,,,,,,,,,,,,,,,,,,,,,,,,10,11.0,f,030_o_f_h_a.jpg,happy,d,3,1,90.0748926999513,90.37073507998139,90.57131009991281,90.59726947988383,90.60172559996136,90.64040117990226,90.64566769986413,91.45706148003228,d,1,90.64566769986413,91.45706148003228,91.46385549986735,93.4040884799324,0.7993435999378562,799.3435999378562,EMOCONPILOT010,2021_Jan_04_1704,EmoCon_Pilot_120Hz,2020.2.4,120.24621606703984,
,,,,0,0,0,0,11,0,11,0,,,,,,,,,,,,,,,,,,,,,,,,,,,,,,,,,,,,,,,,,,,,,,11,3.0,m,013_y_m_s_a.jpg,sad,a,17,1,93.40834959992208,93.70411098003387,93.79171769996174,93.9223956798669,93.92538919998333,93.96372077986598,93.96743909991346,95.1567727799993,a,1,93.96743909991346,95.1567727799993,95.16715410002507,96.92090887995437,1.1734999001491815,1173.4999001491815,EMOCONPILOT010,2021_Jan_04_1704,EmoCon_Pilot_120Hz,2020.2.4,120.24621606703984,
,,,,0,0,0,0,12,0,12,0,,,,,,,,,,,,,,,,,,,,,,,,,,,,,,,,,,,,,,,,,,,,,,12,12.0,f,040_y_f_n_a.jpg,neutral,s,3,1,96.92558749997988,97.22083358000964,97.44293789984658,97.46851187990978,97.4685865000356,97.50534997996874,97.50530469999649,98.36087187984958,s,1,97.50530469999649,98.36087187984958,98.36815089988522,99.89602387999184,0.8436396999750286,843.6396999750286,EMOCONPILOT010,2021_Jan_04_1704,EmoCon_Pilot_120Hz,2020.2.4,120.24621606703984,
,,,,0,0,0,0,13,0,13,0,,,,,,,,,,,,,,,,,,,,,,,,,,,,,,,,,,,,,,,,,,,,,,13,12.0,f,040_y_f_h_a.jpg,happy,d,17,1,99.90128430002369,100.19592928001657,100.21581609989516,100.34763427986763,100.35216389992274,100.3886176799424,100.38849320006557,100.94621627987362,d,1,100.38849320006557,100.94621627987362,100.94859709986486,101.9542691798415,0.544414000120014,544.414000120014,EMOCONPILOT010,2021_Jan_04_1704,EmoCon_Pilot_120Hz,2020.2.4,120.24621606703984,
,,,,0,0,0,0,14,0,14,0,,,,,,,,,,,,,,,,,,,,,,,,,,,,,,,,,,,,,,,,,,,,,,14,7.0,f,012_o_f_h_a.jpg,happy,d,3,1,101.958498199936,102.25432427995838,102.27331830002367,102.29638927988708,102.29705900000408,102.33184217987582,102.3314970000647,103.0788063800428,d,1,102.3314970000647,103.0788063800428,103.09020429989323,104.0793980800081,0.7296774999704212,729.6774999704212,EMOCONPILOT010,2021_Jan_04_1704,EmoCon_Pilot_120Hz,2020.2.4,120.24621606703984,
,,,,0,0,0,0,15,0,15,0,,,,,,,,,,,,,,,,,,,,,,,,,,,,,,,,,,,,,,,,,,,,,,15,9.0,f,021_o_f_n_a.jpg,neutral,s,3,1,104.08332680002786,104.37935367994942,104.60008649993688,104.62638957984746,104.62705729994923,104.66390218003653,104.66515129990876,106.25067147985101,None,0,104.66515129990876,106.25067147985101,106.2558480000589,107.57947698002681,,,EMOCONPILOT010,2021_Jan_04_1704,EmoCon_Pilot_120Hz,2020.2.4,120.24621606703984,
,,,,0,0,0,0,16,0,16,0,,,,,,,,,,,,,,,,,,,,,,,,,,,,,,,,,,,,,,,,,,,,,,16,10.0,f,028_y_f_s_a.jpg,sad,a,3,1,107.58338139997795,107.87949627987109,107.89861129992642,107.92093957983889,107.92138749989681,107.9561234798748,107.95676980004646,108.69668687996455,s,0,107.95676980004646,108.69668687996455,108.70415679994039,109.78773547988385,0.7280874000862241,728.0874000862241,EMOCONPILOT010,2021_Jan_04_1704,EmoCon_Pilot_120Hz,2020.2.4,120.24621606703984,
,,,,0,0,0,0,17,0,17,0,,,,,,,,,,,,,,,,,,,,,,,,,,,,,,,,,,,,,,,,,,,,,,17,10.0,f,028_y_f_h_a.jpg,happy,d,17,1,109.79074059985578,110.08778447983786,110.10572159988806,110.23942998005077,110.24395400006324,110.2847211798653,110.29024380003102,110.9227040798869,d,1,110.29024380003102,110.9227040798869,110.93007800006308,111.97106488002464,0.619050299981609,619.050299981609,EMOCONPILOT010,2021_Jan_04_1704,EmoCon_Pilot_120Hz,2020.2.4,120.24621606703984,
,,,,0,0,0,0,18,0,18,0,,,,,,,,,,,,,,,,,,,,,,,,,,,,,,,,,,,,,,,,,,,,,,18,9.0,f,021_o_f_h_a.jpg,happy,d,3,1,111.97101660002954,112.27118837996386,112.51511869998649,112.54175597988069,112.5425962000154,112.57840267987922,112.58020319999196,113.26062797987834,d,1,112.58020319999196,113.26062797987834,113.27023279992864,114.95451198006049,0.6727928000036627,672.7928000036627,EMOCONPILOT010,2021_Jan_04_1704,EmoCon_Pilot_120Hz,2020.2.4,120.24621606703984,
,,,,0,0,0,0,19,0,19,0,,,,,,,,,,,,,,,,,,,,,,,,,,,,,,,,,,,,,,,,,,,,,,19,6.0,m,033_o_m_h_a.jpg,happy,d,17,1,114.95756120001897,115.25451368000358,115.27265589986928,115.40626607998274,115.41108909994364,115.45163707993925,115.45664689992554,116.04763737996109,d,1,115.45664689992554,116.04763737996109,116.05400449992158,117.94631427992135,0.5802144999615848,580.2144999615848,EMOCONPILOT010,2021_Jan_04_1704,EmoCon_Pilot_120Hz,2020.2.4,120.24621606703984,
,,,,0,0,0,0,20,0,20,0,,,,,,,,,,,,,,,,,,,,,,,,,,,,,,,,,,,,,,,,,,,,,,20,1.0,m,004_o_m_h_a.jpg,happy,d,17,1,117.95165649987757,118.24631027993746,118.45089420001023,118.60818157996982,118.61191159998998,118.65302567998879,118.65799620002508,118.97423358005472,d,1,118.65799620002508,118.97423358005472,118.98096359986812,120.76309698005207,0.3071296000853181,307.1296000853181,EMOCONPILOT010,2021_Jan_04_1704,EmoCon_Pilot_120Hz,2020.2.4,120.24621606703984,
,,,,0,0,0,0,21,0,21,0,,,,,,,,,,,,,,,,,,,,,,,,,,,,,,,,,,,,,,,,,,,,,,21,2.0,m,008_y_m_s_a.jpg,sad,a,3,1,120.76863039983436,121.06311518000439,121.31333499983884,121.33891257992946,121.34310599998571,121.38362698000856,121.38803169992752,122.4481177800335,a,1,121.38803169992752,122.4481177800335,122.45962139987387,123.92151707992889,1.0490053000394255,1049.0053000394255,EMOCONPILOT010,2021_Jan_04_1704,EmoCon_Pilot_120Hz,2020.2.4,120.24621606703984,
,,,,0,0,0,0,22,0,22,0,,,,,,,,,,,,,,,,,,,,,,,,,,,,,,,,,,,,,,,,,,,,,,22,4.0,m,016_y_m_s_a.jpg,sad,a,17,1,123.92688629985787,124.22148417984135,124.2414487998467,124.37308747996576,124.37574259983376,124.41438347985968,124.41742990002967,125.15654608001933,a,1,124.41742990002967,125.15654608001933,125.16596419992857,126.30476167984307,0.7314861998893321,731.486199889332,EMOCONPILOT010,2021_Jan_04_1704,EmoCon_Pilot_120Hz,2020.2.4,120.24621606703984,
,,,,0,0,0,0,23,0,23,0,,,,,,,,,,,,,,,,,,,,,,,,,,,,,,,,,,,,,,,,,,,,,,23,8.0,f,019_m_f_h_a.jpg,happy,d,3,1,126.30876379995607,126.60477127996273,126.62388179986738,126.64699518005364,126.64763839985244,126.68252447992563,126.68221929995343,127.50419258000329,d,1,126.68221929995343,127.50419258000329,127.51589959999546,128.61320727993734,0.8108086998108774,810.8086998108774,EMOCONPILOT010,2021_Jan_04_1704,EmoCon_Pilot_120Hz,2020.2.4,120.24621606703984,
,,,,0,0,0,0,24,0,24,0,,,,,,,,,,,,,,,,,,,,,,,,,,,,,,,,,,,,,,,,,,,,,,24,8.0,f,019_m_f_h_a.jpg,happy,d,3,1,128.61726469988935,128.91322107985616,128.93414320005104,128.95707318000495,128.9572002000641,128.9932160798926,128.99460259987973,129.86500097997487,d,1,128.99460259987973,129.86500097997487,129.87654879991896,131.70487978006713,0.8584872998762876,858.4872998762876,EMOCONPILOT010,2021_Jan_04_1704,EmoCon_Pilot_120Hz,2020.2.4,120.24621606703984,
,,,,0,0,0,0,25,0,25,0,,,,,,,,,,,,,,,,,,,,,,,,,,,,,,,,,,,,,,,,,,,,,,25,4.0,m,016_y_m_n_a.jpg,neutral,s,3,1,131.70881649991497,132.0049601800274,132.2557428998407,132.28094697999768,132.28142150002532,132.3168800799176,132.31844659987837,133.422491180012,s,1,132.31844659987837,133.422491180012,133.43178440001793,134.77175997989252,1.0945285998750478,1094.5285998750478,EMOCONPILOT010,2021_Jan_04_1704,EmoCon_Pilot_120Hz,2020.2.4,120.24621606703984,
,,,,0,0,0,0,26,0,26,0,,,,,,,,,,,,,,,,,,,,,,,,,,,,,,,,,,,,,,,,,,,,,,26,4.0,m,016_y_m_h_a.jpg,happy,d,3,1,134.77745949989185,135.07175617991015,135.09217369998805,135.11543858004734,135.1159144998528,135.15002407995053,135.14974449994043,135.85857037990354,d,1,135.14974449994043,135.85857037990354,135.869295099983,137.55514387995936,0.6952589999418706,695.2589999418706,EMOCONPILOT010,2021_Jan_04_1704,EmoCon_Pilot_120Hz,2020.2.4,120.24621606703984,
,,,,0,0,0,0,27,0,27,0,,,,,,,,,,,,,,,,,,,,,,,,,,,,,,,,,,,,,,,,,,,,,,27,8.0,f,019_m_f_h_a.jpg,happy,d,17,1,137.55938820005395,137.85511917993426,137.87982019991614,138.01498798001558,138.01807260001078,138.05629127984866,138.05951129994355,138.52441937988624,d,1,138.05951129994355,138.52441937988624,138.5348785999231,140.2885112799704,0.4499909000005573,449.9909000005573,EMOCONPILOT010,2021_Jan_04_1704,EmoCon_Pilot_120Hz,2020.2.4,120.24621606703984,
,,,,0,0,0,0,28,0,28,0,,,,,,,,,,,,,,,,,,,,,,,,,,,,,,,,,,,,,,,,,,,,,,28,8.0,f,019_m_f_s_a.jpg,sad,a,3,1,140.29287240002304,140.58849107986316,140.84121560002677,140.86825247993693,140.86830069986172,140.90452087996528,140.90433779987507,142.5029242800083,None,0,140.90433779987507,142.5029242800083,142.50245829997584,143.76352897984907,,,EMOCONPILOT010,2021_Jan_04_1704,EmoCon_Pilot_120Hz,2020.2.4,120.24621606703984,
,,,,0,0,0,0,29,0,29,0,,,,,,,,,,,,,,,,,,,,,,,,,,,,,,,,,,,,,,,,,,,,,,29,10.0,f,028_y_f_n_a.jpg,neutral,s,3,1,143.76886640000157,144.06354787992314,144.26473039994016,144.28986168000847,144.29032589984126,144.32952388003469,144.33375160000287,145.19653158006258,s,1,144.33375160000287,145.19653158006258,145.20806079986505,146.39692297996953,0.8553307999391109,855.3307999391109,EMOCONPILOT010,2021_Jan_04_1704,EmoCon_Pilot_120Hz,2020.2.4,120.24621606703984,
,,,,0,0,0,0,30,0,30,0,,,,,,,,,,,,,,,,,,,,,,,,,,,,,,,,,,,,,,,,,,,,,,30,12.0,f,040_y_f_n_a.jpg,neutral,s,17,1,146.40190689987503,146.69688228005543,146.91626209998503,147.07844487996772,147.08319919998758,147.12287848000415,147.12795839994214,147.7639156798832,s,1,147.12795839994214,147.7639156798832,147.76966640003957,149.69712588004768,0.6288336999714375,628.8336999714375,EMOCONPILOT010,2021_Jan_04_1704,EmoCon_Pilot_120Hz,2020.2.4,120.24621606703984,
,,,,0,0,0,0,31,0,31,0,,,,,,,,,,,,,,,,,,,,,,,,,,,,,,,,,,,,,,,,,,,,,,31,5.0,m,027_o_m_n_a.jpg,neutral,s,3,1,149.7024206998758,149.99703187984414,150.20878500002436,150.23530827998184,150.23591990000568,150.27309287991375,150.27458800002933,151.0562081800308,s,1,150.27458800002933,151.0562081800308,151.06599699985236,152.172059079865,0.7704207999631763,770.4207999631763,EMOCONPILOT010,2021_Jan_04_1704,EmoCon_Pilot_120Hz,2020.2.4,120.24621606703984,
,,,,0,0,0,0,32,0,32,0,,,,,,,,,,,,,,,,,,,,,,,,,,,,,,,,,,,,,,,,,,,,,,32,8.0,f,019_m_f_n_a.jpg,neutral,s,3,1,152.1773738998454,152.47202137997374,152.7165639998857,152.74384188000113,152.74500430002809,152.781906979857,152.7832764000632,153.5303595799487,s,1,152.7832764000632,153.5303595799487,153.53953900001943,155.40546118002385,0.733958899974823,733.958899974823,EMOCONPILOT010,2021_Jan_04_1704,EmoCon_Pilot_120Hz,2020.2.4,120.24621606703984,
,,,,0,0,0,0,33,0,33,0,,,,,,,,,,,,,,,,,,,,,,,,,,,,,,,,,,,,,,,,,,,,,,33,4.0,m,016_y_m_n_a.jpg,neutral,s,3,1,155.41096229990944,155.7055374798365,155.9356708000414,155.96068047988228,155.96140230004676,155.9982687800657,155.99935439997353,157.66842017997988,None,0,155.99935439997353,157.66842017997988,157.67348590004258,159.27225747983903,,,EMOCONPILOT010,2021_Jan_04_1704,EmoCon_Pilot_120Hz,2020.2.4,120.24621606703984,
,,,,0,0,0,0,34,0,34,0,,,,,,,,,,,,,,,,,,,,,,,,,,,,,,,,,,,,,,,,,,,,,,34,11.0,f,030_o_f_n_a.jpg,neutral,s,3,1,159.27832889999263,159.57228217995726,159.7770163998939,159.80336438002996,159.8038363000378,159.83991937991232,159.83994739991613,160.6064178799279,s,1,159.83994739991613,160.6064178799279,160.61525389994495,162.06387427984737,0.7571717000100762,757.1717000100762,EMOCONPILOT010,2021_Jan_04_1704,EmoCon_Pilot_120Hz,2020.2.4,120.24621606703984,
,,,,0,0,0,0,35,0,35,0,,,,,,,,,,,,,,,,,,,,,,,,,,,,,,,,,,,,,,,,,,,,,,35,9.0,f,021_o_f_h_a.jpg,happy,d,3,1,162.0667280999478,162.36381918005645,162.57785220001824,162.6040856798645,162.60491989995353,162.64041247987188,162.64030279987492,163.23000898002647,d,1,162.64030279987492,163.23000898002647,163.23724689986557,164.56403838004917,0.580680700019002,580.680700019002,EMOCONPILOT010,2021_Jan_04_1704,EmoCon_Pilot_120Hz,2020.2.4,120.24621606703984,
,,,,0,0,0,0,36,0,36,0,,,,,,,,,,,,,,,,,,,,,,,,,,,,,,,,,,,,,,,,,,,,,,36,11.0,f,030_o_f_s_a.jpg,sad,a,17,1,164.56800720002502,164.86401417991146,165.067112499848,165.22729988000356,165.23107380000874,165.2717760798987,165.276993899839,166.39381767995656,a,1,165.276993899839,166.39381767995656,166.40525890002027,167.78074877988547,1.1044937998522073,1104.4937998522073,EMOCONPILOT010,2021_Jan_04_1704,EmoCon_Pilot_120Hz,2020.2.4,120.24621606703984,
,,,,0,0,0,0,37,0,37,0,,,,,,,,,,,,,,,,,,,,,,,,,,,,,,,,,,,,,,,,,,,,,,37,12.0,f,040_y_f_n_a.jpg,neutral,s,17,1,167.78477789997123,168.08065897994675,168.3059260000009,168.46283257985488,168.46752909990028,168.50747047993354,168.5125392000191,168.99934937991202,s,1,168.5125392000191,168.99934937991202,169.01085099997,170.13904238003306,0.47648630011826754,476.48630011826754,EMOCONPILOT010,2021_Jan_04_1704,EmoCon_Pilot_120Hz,2020.2.4,120.24621606703984,
,,,,0,0,0,0,38,0,38,0,,,,,,,,,,,,,,,,,,,,,,,,,,,,,,,,,,,,,,,,,,,,,,38,9.0,f,021_o_f_s_a.jpg,sad,a,17,1,170.14305690000765,170.4390418799594,170.4590024999343,170.59068108000793,170.5938505998347,170.63199537992477,170.63515069987625,171.93880677991547,a,1,170.63515069987625,171.93880677991547,171.94842769997194,173.53084357990883,1.2900884998962283,1290.0884998962283,EMOCONPILOT010,2021_Jan_04_1704,EmoCon_Pilot_120Hz,2020.2.4,120.24621606703984,
,,,,0,0,0,0,39,0,39,0,,,,,,,,,,,,,,,,,,,,,,,,,,,,,,,,,,,,,,,,,,,,,,39,4.0,m,016_y_m_n_a.jpg,neutral,s,3,1,173.5340289999731,173.83080708002672,174.08059559995309,174.10597688006237,174.10621059988625,174.1409397800453,174.1419736999087,174.94616577983834,s,1,174.1419736999087,174.94616577983834,174.9553503000643,176.20595027995296,0.7911303001455963,791.1303001455963,EMOCONPILOT010,2021_Jan_04_1704,EmoCon_Pilot_120Hz,2020.2.4,120.24621606703984,
,,,,0,0,0,0,40,0,40,0,,,,,,,,,,,,,,,,,,,,,,,,,,,,,,,,,,,,,,,,,,,,,,40,9.0,f,021_o_f_s_a.jpg,sad,a,3,1,176.21023339987732,176.50591298006475,176.530874799937,176.55328267998993,176.55501979985274,176.59041947987862,176.59047829988413,178.1809253799729,None,0,176.59047829988413,178.1809253799729,178.18500339984894,179.99766808003187,,,EMOCONPILOT010,2021_Jan_04_1704,EmoCon_Pilot_120Hz,2020.2.4,120.24621606703984,
,,,,0,0,0,0,41,0,41,0,,,,,,,,,,,,,,,,,,,,,,,,,,,,,,,,,,,,,,,,,,,,,,41,11.0,f,030_o_f_h_a.jpg,happy,d,17,1,180.0016415999271,180.29770658002235,180.50923329987563,180.66790307988413,180.6715313999448,180.71057968004607,180.71584740001708,181.89588147983886,d,1,180.71584740001708,181.89588147983886,181.9074418998789,183.18105847993866,1.1691943001933396,1169.1943001933396,EMOCONPILOT010,2021_Jan_04_1704,EmoCon_Pilot_120Hz,2020.2.4,120.24621606703984,
,,,,0,0,0,0,42,0,42,0,,,,,,,,,,,,,,,,,,,,,,,,,,,,,,,,,,,,,,,,,,,,,,42,4.0,m,016_y_m_h_a.jpg,happy,d,3,1,183.18522979994304,183.480993879959,183.50304819992743,183.52513987990096,183.52685569995083,183.56561217992567,183.56666440004483,184.3277794800233,d,1,183.56666440004483,184.3277794800233,184.3394038998522,185.68105858005583,0.7505258999299258,750.5258999299258,EMOCONPILOT010,2021_Jan_04_1704,EmoCon_Pilot_120Hz,2020.2.4,120.24621606703984,
,,,,0,0,0,0,43,0,43,0,,,,,,,,,,,,,,,,,,,,,,,,,,,,,,,,,,,,,,,,,,,,,,43,1.0,m,004_o_m_s_a.jpg,sad,a,3,1,185.68524699984118,185.9810481800232,185.99775910004973,186.02039077994414,186.0208717000205,186.05716748000123,186.05748680001125,187.00912147993222,a,1,186.05748680001125,187.00912147993222,187.0197266000323,188.2310941799078,0.9397696000523865,939.7696000523865,EMOCONPILOT010,2021_Jan_04_1704,EmoCon_Pilot_120Hz,2020.2.4,120.24621606703984,
,,,,0,0,0,0,44,0,44,0,,,,,,,,,,,,,,,,,,,,,,,,,,,,,,,,,,,,,,,,,,,,,,44,4.0,m,016_y_m_h_a.jpg,happy,d,3,1,188.23518899991177,188.53110238001682,188.555040899897,188.57728287996724,188.57778569986112,188.6156579798553,188.6172056000214,189.19986347993836,d,1,188.6172056000214,189.19986347993836,189.20735729997978,190.9394804800395,0.5717557999305427,571.7557999305427,EMOCONPILOT010,2021_Jan_04_1704,EmoCon_Pilot_120Hz,2020.2.4,120.24621606703984,
,,,,0,0,0,0,45,0,45,0,,,,,,,,,,,,,,,,,,,,,,,,,,,,,,,,,,,,,,,,,,,,,,45,7.0,f,012_o_f_s_a.jpg,sad,a,17,1,190.9420890000183,191.2395695799496,191.25857850001194,191.39127058000304,191.39577189995907,191.4336386800278,191.43879060004838,192.06898827990517,a,1,191.43879060004838,192.06898827990517,192.08081139996648,193.6812469798606,0.6144513001199812,614.4513001199812,EMOCONPILOT010,2021_Jan_04_1704,EmoCon_Pilot_120Hz,2020.2.4,120.24621606703984,
,,,,0,0,0,0,46,0,46,0,,,,,,,,,,,,,,,,,,,,,,,,,,,,,,,,,,,,,,,,,,,,,,46,8.0,f,019_m_f_n_a.jpg,neutral,s,17,1,193.6839447999373,193.98130657989532,194.2279926999472,194.38839497999288,194.39291139994748,194.4333320800215,194.43831119989045,195.10084807989188,s,1,194.43831119989045,195.10084807989188,195.10548639995977,196.83128657983616,0.6545116000343114,654.5116000343114,EMOCONPILOT010,2021_Jan_04_1704,EmoCon_Pilot_120Hz,2020.2.4,120.24621606703984,
,,,,0,0,0,0,47,0,47,0,,,,,,,,,,,,,,,,,,,,,,,,,,,,,,,,,,,,,,,,,,,,,,47,2.0,m,008_y_m_h_a.jpg,happy,d,17,1,196.8353877000045,197.13122757989913,197.15134570002556,197.28317927988246,197.2877074999269,197.32849087985232,197.33379830000922,197.85203937999904,d,1,197.33379830000922,197.85203937999904,197.86273669986986,199.7397457798943,0.503285099985078,503.285099985078,EMOCONPILOT010,2021_Jan_04_1704,EmoCon_Pilot_120Hz,2020.2.4,120.24621606703984,
,,,,0,0,0,0,48,0,48,0,,,,,,,,,,,,,,,,,,,,,,,,,,,,,,,,,,,,,,,,,,,,,,48,12.0,f,040_y_f_n_a.jpg,neutral,s,17,1,199.74372569983825,200.03968448005617,200.25685789994895,200.41262817988172,200.41699870000593,200.4578191798646,200.4626460999716,200.9486286798492,s,1,200.4626460999716,200.9486286798492,200.95048490003683,202.42315137991682,0.47830870002508163,478.30870002508163,EMOCONPILOT010,2021_Jan_04_1704,EmoCon_Pilot_120Hz,2020.2.4,120.24621606703984,
,,,,0,0,0,0,49,0,49,0,,,,,,,,,,,,,,,,,,,,,,,,,,,,,,,,,,,,,,,,,,,,,,49,11.0,f,030_o_f_n_a.jpg,neutral,s,17,1,202.42854280001484,202.72312087984756,202.9310449999757,203.0906223799102,203.0953273999039,203.1361848800443,203.14147110003978,204.0353628799785,s,1,203.14147110003978,204.0353628799785,204.04741969984025,205.99815227999352,0.8796055999118835,879.6055999118835,EMOCONPILOT010,2021_Jan_04_1704,EmoCon_Pilot_120Hz,2020.2.4,120.24621606703984,
,,,,0,0,0,0,50,0,50,0,,,,,,,,,,,,,,,,,,,,,,,,,,,,,,,,,,,,,,,,,,,,,,50,8.0,f,019_m_f_h_a.jpg,happy,d,17,1,206.0024037999101,206.29817577986978,206.32007689983584,206.45826427987777,206.46194199984893,206.5011651800014,206.50586649985053,207.12545767985284,d,1,206.50586649985053,207.12545767985284,207.1367891000118,208.6731982799247,0.6034363999497145,603.4363999497145,EMOCONPILOT010,2021_Jan_04_1704,EmoCon_Pilot_120Hz,2020.2.4,120.24621606703984,
,,,,0,0,0,0,51,0,51,0,,,,,,,,,,,,,,,,,,,,,,,,,,,,,,,,,,,,,,,,,,,,,,51,8.0,f,019_m_f_n_a.jpg,neutral,s,3,1,208.6773182998877,208.9732048800215,209.22162409988232,209.2469647799153,209.2470261999406,209.28270267997868,209.28405839996412,209.9259003798943,s,1,209.28405839996412,209.9259003798943,209.93731920002028,211.43997998000123,0.6330650001764297,633.0650001764297,EMOCONPILOT010,2021_Jan_04_1704,EmoCon_Pilot_120Hz,2020.2.4,120.24621606703984,
,,,,0,0,0,0,52,0,52,0,,,,,,,,,,,,,,,,,,,,,,,,,,,,,,,,,,,,,,,,,,,,,,52,12.0,f,040_y_f_n_a.jpg,neutral,s,3,1,211.44516470003873,211.73997347988188,211.96003469987772,211.98548567993566,211.98554659984075,212.02173297991976,212.0215324999299,212.82874498004094,s,1,212.0215324999299,212.82874498004094,212.838498899946,213.87334257992916,0.7994999000802636,799.4999000802636,EMOCONPILOT010,2021_Jan_04_1704,EmoCon_Pilot_120Hz,2020.2.4,120.24621606703984,
,,,,0,0,0,0,53,0,53,0,,,,,,,,,,,,,,,,,,,,,,,,,,,,,,,,,,,,,,,,,,,,,,53,9.0,f,021_o_f_h_a.jpg,happy,d,3,1,213.87628109985963,214.17330268002115,214.39497639983892,214.42086777999066,214.42094450001605,214.458027780056,214.4584456998855,215.08491938002408,d,1,214.4584456998855,215.08491938002408,215.09770240006037,216.27329448005185,0.6186544999945909,618.6544999945909,EMOCONPILOT010,2021_Jan_04_1704,EmoCon_Pilot_120Hz,2020.2.4,120.24621606703984,
,,,,0,0,0,0,54,0,54,0,,,,,,,,,,,,,,,,,,,,,,,,,,,,,,,,,,,,,,,,,,,,,,54,2.0,m,008_y_m_n_a.jpg,neutral,s,3,1,216.27625819994137,216.57328848005272,216.80353370006196,216.82852007984184,216.82866750005633,216.86617617984302,216.86778489989229,218.5923431799747,None,0,216.86778489989229,218.5923431799747,218.59959349990822,219.99852997995913,,,EMOCONPILOT010,2021_Jan_04_1704,EmoCon_Pilot_120Hz,2020.2.4,120.24621606703984,
,,,,0,0,0,0,55,0,55,0,,,,,,,,,,,,,,,,,,,,,,,,,,,,,,,,,,,,,,,,,,,,,,55,10.0,f,028_y_f_n_a.jpg,neutral,s,17,1,220.0029734999407,220.2984792799689,220.50685889995657,220.666742780013,220.67151580005884,220.71207908005454,220.7172912999522,221.3855302799493,s,1,220.7172912999522,221.3855302799493,221.3924240998458,222.38188558002003,0.6559677999466658,655.9677999466658,EMOCONPILOT010,2021_Jan_04_1704,EmoCon_Pilot_120Hz,2020.2.4,120.24621606703984,
,,,,0,0,0,0,56,0,56,0,,,,,,,,,,,,,,,,,,,,,,,,,,,,,,,,,,,,,,,,,,,,,,56,12.0,f,040_y_f_h_a.jpg,happy,d,3,1,222.38716529984958,222.6819185798522,222.6987391000148,222.72158897994086,222.72245560004376,222.75818037986755,222.7598003000021,223.66825327998959,d,1,222.7598003000021,223.66825327998959,223.67963879997842,225.22357688006014,0.893410500138998,893.410500138998,EMOCONPILOT010,2021_Jan_04_1704,EmoCon_Pilot_120Hz,2020.2.4,120.24621606703984,
,,,,0,0,0,0,57,0,57,0,,,,,,,,,,,,,,,,,,,,,,,,,,,,,,,,,,,,,,,,,,,,,,57,2.0,m,008_y_m_n_a.jpg,neutral,s,17,1,225.227656400064,225.52356757991947,225.7695456999354,225.92948767985217,225.93445779988542,225.97457267995924,225.97963989991695,226.821391280042,s,1,225.97963989991695,226.821391280042,226.82982719992287,228.59865007991903,0.8334627000149339,833.462700014934,EMOCONPILOT010,2021_Jan_04_1704,EmoCon_Pilot_120Hz,2020.2.4,120.24621606703984,
,,,,0,0,0,0,58,0,58,0,,,,,,,,,,,,,,,,,,,,,,,,,,,,,,,,,,,,,,,,,,,,,,58,9.0,f,021_o_f_n_a.jpg,neutral,s,3,1,228.6027881000191,228.89874367997982,229.10794739983976,229.13390507991426,229.13392809988,229.16879047988914,229.1687546998728,230.1147286798805,s,1,229.1687546998728,230.1147286798805,230.1213438999839,231.54029987985268,0.9322275999002159,932.2275999002159,EMOCONPILOT010,2021_Jan_04_1704,EmoCon_Pilot_120Hz,2020.2.4,120.24621606703984,
,,,,0,0,0,0,59,0,59,0,,,,,,,,,,,,,,,,,,,,,,,,,,,,,,,,,,,,,,,,,,,,,,59,4.0,m,016_y_m_n_a.jpg,neutral,s,17,1,231.54315659985878,231.84035547985695,232.06835579988547,232.23776357993484,232.24151339987293,232.28252508002333,232.2875355000142,232.77285118005238,s,1,232.2875355000142,232.77285118005238,232.78419629996642,233.7988347799983,0.4695177001412958,469.5177001412958,EMOCONPILOT010,2021_Jan_04_1704,EmoCon_Pilot_120Hz,2020.2.4,120.24621606703984,
,,,,0,0,0,0,60,0,60,0,,,,,,,,,,,,,,,,,,,,,,,,,,,,,,,,,,,,,,,,,,,,,,60,6.0,m,033_o_m_s_a.jpg,sad,a,3,1,233.8040869999677,234.09881277987733,234.1184999998659,234.14137377985753,234.14209809992462,234.1769991798792,234.17715050000697,234.82205417985097,s,0,234.17715050000697,234.82205417985097,234.82933699991554,235.95716247987002,0.6360204999800771,636.0204999800771,EMOCONPILOT010,2021_Jan_04_1704,EmoCon_Pilot_120Hz,2020.2.4,120.24621606703984,
,,,,0,0,0,0,61,0,61,0,,,,,,,,,,,,,,,,,,,,,,,,,,,,,,,,,,,,,,,,,,,,,,61,7.0,f,012_o_f_n_a.jpg,neutral,s,17,1,235.96107239997946,236.25715838000178,236.47067269985564,236.62941358005628,236.63416079990566,236.67514967988245,236.68020890001208,237.2310750798788,s,1,236.68020890001208,237.2310750798788,237.2425148000475,239.0821247799322,0.5410232001449913,541.0232001449913,EMOCONPILOT010,2021_Jan_04_1704,EmoCon_Pilot_120Hz,2020.2.4,120.24621606703984,
,,,,0,0,0,0,62,0,62,0,,,,,,,,,,,,,,,,,,,,,,,,,,,,,,,,,,,,,,,,,,,,,,62,2.0,m,008_y_m_h_a.jpg,happy,d,17,1,239.08499419991858,239.3822330799885,239.39544390002266,239.53388758003712,239.53830909985118,239.5765153800603,239.5800894999411,240.0884369800333,d,1,239.5800894999411,240.0884369800333,240.09990699985065,241.60723197995685,0.49702619994059205,497.02619994059205,EMOCONPILOT010,2021_Jan_04_1704,EmoCon_Pilot_120Hz,2020.2.4,120.24621606703984,
,,,,0,0,0,0,63,0,63,0,,,,,,,,,,,,,,,,,,,,,,,,,,,,,,,,,,,,,,,,,,,,,,63,10.0,f,028_y_f_h_a.jpg,happy,d,17,1,241.61024129996076,241.90725568006746,241.92742670001462,242.05884497985244,242.06226799986325,242.1001445800066,242.103587300051,242.71233678003773,d,1,242.103587300051,242.71233678003773,242.7236424998846,244.54062717990018,0.5973896000068635,597.3896000068635,EMOCONPILOT010,2021_Jan_04_1704,EmoCon_Pilot_120Hz,2020.2.4,120.24621606703984,
,,,,0,0,0,0,64,0,64,0,,,,,,,,,,,,,,,,,,,,,,,,,,,,,,,,,,,,,,,,,,,,,,64,4.0,m,016_y_m_h_a.jpg,happy,d,3,1,244.5447700000368,244.84065887983888,244.86165559990332,244.88409988000058,244.8844566999469,244.91930317995138,244.919258199865,245.505064179888,d,1,244.919258199865,245.505064179888,245.51236299984157,246.93246058002114,0.5738186999224126,573.8186999224126,EMOCONPILOT010,2021_Jan_04_1704,EmoCon_Pilot_120Hz,2020.2.4,120.24621606703984,
,,,,0,0,0,0,65,0,65,0,,,,,,,,,,,,,,,,,,,,,,,,,,,,,,,,,,,,,,,,,,,,,,65,9.0,f,021_o_f_s_a.jpg,sad,a,17,1,246.9366967000533,247.2323679800611,247.2531115000602,247.384081679862,247.3872265999671,247.42555458005518,247.43081429996528,248.39576898002997,a,1,247.43081429996528,248.39576898002997,248.4071000998374,249.59905147994868,0.9502920000813901,950.2920000813901,EMOCONPILOT010,2021_Jan_04_1704,EmoCon_Pilot_120Hz,2020.2.4,120.24621606703984,
,,,,0,0,0,0,66,0,66,0,,,,,,,,,,,,,,,,,,,,,,,,,,,,,,,,,,,,,,,,,,,,,,66,7.0,f,012_o_f_h_a.jpg,happy,d,17,1,249.599377800012,249.89916278002784,249.92300889990292,250.059175780043,250.06280169985257,250.10041787987575,250.10333459987305,250.74892088002525,d,1,250.10333459987305,250.74892088002525,250.75820609997027,252.69085188000463,0.62982889986597,629.82889986597,EMOCONPILOT010,2021_Jan_04_1704,EmoCon_Pilot_120Hz,2020.2.4,120.24621606703984,
,,,,0,0,0,0,67,0,67,0,,,,,,,,,,,,,,,,,,,,,,,,,,,,,,,,,,,,,,,,,,,,,,67,9.0,f,021_o_f_h_a.jpg,happy,d,3,1,252.6941587999463,252.99086287990212,253.21478459984064,253.24111557984725,253.2420254999306,253.27655387995765,253.27705629984848,254.29264608002268,d,1,253.27705629984848,254.29264608002268,254.30005749990232,256.22436748002656,1.0080371999647468,1008.0371999647468,EMOCONPILOT010,2021_Jan_04_1704,EmoCon_Pilot_120Hz,2020.2.4,120.24621606703984,
,,,,0,0,0,0,68,0,68,0,,,,,,,,,,,,,,,,,,,,,,,,,,,,,,,,,,,,,,,,,,,,,,68,8.0,f,019_m_f_h_a.jpg,happy,d,17,1,256.22976000001654,256.52427248004824,256.5460151999723,256.6842269799672,256.68758569983765,256.7254922799766,256.72901019989513,257.0867436800618,d,1,256.72901019989513,257.0867436800618,257.0921853999607,258.5159841799177,0.3479492999613285,347.9492999613285,EMOCONPILOT010,2021_Jan_04_1704,EmoCon_Pilot_120Hz,2020.2.4,120.24621606703984,
,,,,0,0,0,0,69,0,69,0,,,,,,,,,,,,,,,,,,,,,,,,,,,,,,,,,,,,,,,,,,,,,,69,9.0,f,021_o_f_s_a.jpg,sad,a,3,1,258.52127669984475,258.81601477996446,258.8368228999898,258.8599086799659,258.86059729987755,258.8945988798514,258.89498830004595,260.5152944799047,None,0,258.89498830004595,260.5152944799047,260.5203676999081,262.04103267984465,,,EMOCONPILOT010,2021_Jan_04_1704,EmoCon_Pilot_120Hz,2020.2.4,120.24621606703984,
,,,,0,0,0,0,70,0,70,0,,,,,,,,,,,,,,,,,,,,,,,,,,,,,,,,,,,,,,,,,,,,,,70,2.0,m,008_y_m_h_a.jpg,happy,d,17,1,262.0450140000321,262.341082979925,262.3587080000434,262.4927110800054,262.49610959994607,262.53505487996154,262.5386886000633,262.98464228003286,d,1,262.5386886000633,262.98464228003286,262.9971717998851,264.2744135798421,0.43463409994728863,434.63409994728863,EMOCONPILOT010,2021_Jan_04_1704,EmoCon_Pilot_120Hz,2020.2.4,120.24621606703984,
,,,,0,0,0,0,71,0,71,0,,,,,,,,,,,,,,,,,,,,,,,,,,,,,,,,,,,,,,,,,,,,,,71,1.0,m,004_o_m_h_a.jpg,happy,d,3,1,264.278650799999,264.5744196800515,264.78609369997866,264.81145887984894,264.81165479985066,264.846866479842,264.8483696000185,265.55075097992085,d,1,264.8483696000185,265.55075097992085,265.5580249999184,266.699474779889,0.6927163999062032,692.7163999062032,EMOCONPILOT010,2021_Jan_04_1704,EmoCon_Pilot_120Hz,2020.2.4,120.24621606703984,
,,,,0,0,0,0,72,0,72,0,,,,,,,,,,,,,,,,,,,,,,,,,,,,,,,,,,,,,,,,,,,,,,72,11.0,f,030_o_f_h_a.jpg,happy,d,3,1,266.7037277999334,266.99945618002675,267.19696659990586,267.2220025800634,267.22236140002497,267.2588524799794,267.2602947000414,267.85493788006715,d,1,267.2602947000414,267.85493788006715,267.8582965999376,269.39112518006004,0.5850078999064863,585.0078999064863,EMOCONPILOT010,2021_Jan_04_1704,EmoCon_Pilot_120Hz,2020.2.4,120.24621606703984,
,,,,0,0,0,0,73,0,73,0,,,,,,,,,,,,,,,,,,,,,,,,,,,,,,,,,,,,,,,,,,,,,,73,8.0,f,019_m_f_s_a.jpg,sad,a,3,1,269.39401849987917,269.6911073799711,269.92460289993323,269.9505241799634,269.950636100024,269.98621007986367,269.9863350999076,271.04893957986496,a,1,269.9863350999076,271.04893957986496,271.0584062000271,272.2578312798869,1.0507096000947058,1050.7096000947058,EMOCONPILOT010,2021_Jan_04_1704,EmoCon_Pilot_120Hz,2020.2.4,120.24621606703984,
,,,,0,0,0,0,74,0,74,0,,,,,,,,,,,,,,,,,,,,,,,,,,,,,,,,,,,,,,,,,,,,,,74,5.0,m,027_o_m_h_a.jpg,happy,d,3,1,272.26070329989307,272.55800437997095,272.76262309984304,272.7886334799696,272.78885799995624,272.82578098005615,272.82736320002005,273.55007177987136,d,1,272.82736320002005,273.55007177987136,273.5596981998533,274.8162614798639,0.7137408000417054,713.7408000417054,EMOCONPILOT010,2021_Jan_04_1704,EmoCon_Pilot_120Hz,2020.2.4,120.24621606703984,
,,,,0,0,0,0,75,0,75,0,,,,,,,,,,,,,,,,,,,,,,,,,,,,,,,,,,,,,,,,,,,,,,75,8.0,f,019_m_f_s_a.jpg,sad,a,17,1,274.8161110000219,275.11635907995515,275.36499359994195,275.5259293799754,275.5307348999195,275.5682329798583,275.5733775999397,276.53147837985307,a,1,275.5733775999397,276.53147837985307,276.5427443999797,278.11634897999465,0.9438181000296026,943.8181000296026,EMOCONPILOT010,2021_Jan_04_1704,EmoCon_Pilot_120Hz,2020.2.4,120.24621606703984,
,,,,0,0,0,0,76,0,76,0,,,,,,,,,,,,,,,,,,,,,,,,,,,,,,,,,,,,,,,,,,,,,,76,7.0,f,012_o_f_n_a.jpg,neutral,s,17,1,278.1201766000595,278.41634367988445,278.6210498998407,278.78468717983924,278.7891071999911,278.82980487984605,278.8349082998466,279.3539582800586,s,1,278.8349082998466,279.3539582800586,279.3653166999575,280.6998827799689,0.5067382999695837,506.73829996958375,EMOCONPILOT010,2021_Jan_04_1704,EmoCon_Pilot_120Hz,2020.2.4,120.24621606703984,
,,,,0,0,0,0,77,0,77,0,,,,,,,,,,,,,,,,,,,,,,,,,,,,,,,,,,,,,,,,,,,,,,77,6.0,m,033_o_m_s_a.jpg,sad,a,17,1,280.70538559998386,280.9996850800235,281.0204260000028,281.1586472799536,281.1620678999461,281.20301447995007,281.2073160998989,282.0748977798503,a,1,281.2073160998989,282.0748977798503,282.08458189992234,283.349797379924,0.8541691000573337,854.1691000573337,EMOCONPILOT010,2021_Jan_04_1704,EmoCon_Pilot_120Hz,2020.2.4,120.24621606703984,
,,,,0,0,0,0,78,0,78,0,,,,,,,,,,,,,,,,,,,,,,,,,,,,,,,,,,,,,,,,,,,,,,78,1.0,m,004_o_m_h_a.jpg,happy,d,17,1,283.35385369998403,283.64984937990084,283.86120199994184,284.01839537988417,284.0230521999765,284.0636602798477,284.06881559989415,284.56599098001607,d,1,284.06881559989415,284.56599098001607,284.5746124999132,285.85819318005815,0.4884534999728203,488.4534999728203,EMOCONPILOT010,2021_Jan_04_1704,EmoCon_Pilot_120Hz,2020.2.4,120.24621606703984,
,,,,0,0,0,0,79,0,79,0,,,,,,,,,,,,,,,,,,,,,,,,,,,,,,,,,,,,,,,,,,,,,,79,5.0,m,027_o_m_s_a.jpg,sad,a,3,1,285.86243800004013,286.1581907798536,286.18592499988154,286.2090396799613,286.2095900999848,286.2445052799303,286.24571119993925,287.2033391799778,s,0,286.24571119993925,287.2033391799778,287.2109588999301,288.49984088004567,0.9433643000666052,943.3643000666052,EMOCONPILOT010,2021_Jan_04_1704,EmoCon_Pilot_120Hz,2020.2.4,120.24621606703984,
,,,,0,0,0,0,80,0,80,0,,,,,,,,,,,,,,,,,,,,,,,,,,,,,,,,,,,,,,,,,,,,,,80,9.0,f,021_o_f_s_a.jpg,sad,a,3,1,288.5027413999196,288.7999793798663,288.8232670999132,288.8455307800323,288.84734670002945,288.884433579864,288.88553099986166,289.8847647800576,a,1,288.88553099986166,289.8847647800576,289.89346309984103,291.00827047997154,0.983678099932149,983.678099932149,EMOCONPILOT010,2021_Jan_04_1704,EmoCon_Pilot_120Hz,2020.2.4,120.24621606703984,
,,,,0,0,0,0,81,0,81,0,,,,,,,,,,,,,,,,,,,,,,,,,,,,,,,,,,,,,,,,,,,,,,81,5.0,m,027_o_m_s_a.jpg,sad,a,3,1,291.01124310004525,291.30828818003647,291.32960789999925,291.3521907799877,291.35414079995826,291.38912747986615,291.38962919986807,292.14293877989985,s,0,291.38962919986807,292.14293877989985,292.1519905999303,293.366667379858,0.7433682000264525,743.3682000264525,EMOCONPILOT010,2021_Jan_04_1704,EmoCon_Pilot_120Hz,2020.2.4,120.24621606703984,
,,,,0,0,0,0,82,0,82,0,,,,,,,,,,,,,,,,,,,,,,,,,,,,,,,,,,,,,,,,,,,,,,82,7.0,f,012_o_f_h_a.jpg,happy,d,3,1,293.37087909993716,293.66671367990784,293.6907992998604,293.71336687984876,293.7149346000515,293.75176428002305,293.7532432000153,294.28798147989437,d,1,293.7532432000153,294.28798147989437,294.30040439986624,295.9918408798985,0.5239005000330508,523.9005000330508,EMOCONPILOT010,2021_Jan_04_1704,EmoCon_Pilot_120Hz,2020.2.4,120.24621606703984,
,,,,0,0,0,0,83,0,83,0,,,,,,,,,,,,,,,,,,,,,,,,,,,,,,,,,,,,,,,,,,,,,,83,3.0,m,013_y_m_s_a.jpg,sad,a,3,1,295.99622239987366,296.2917535798624,296.3050549000036,296.3270924799144,296.3270680999849,296.367940279888,296.36909190006554,297.9841313799843,None,0,296.36909190006554,297.9841313799843,297.9892625999637,299.0583920800127,,,EMOCONPILOT010,2021_Jan_04_1704,EmoCon_Pilot_120Hz,2020.2.4,120.24621606703984,
,,,,0,0,0,0,84,0,84,0,,,,,,,,,,,,,,,,,,,,,,,,,,,,,,,,,,,,,,,,,,,,,,84,5.0,m,027_o_m_s_a.jpg,sad,a,3,1,299.06133869988844,299.35840247990564,299.37836149986833,299.4015195800457,299.40196559997275,299.43700228002854,299.4376300999429,300.795050380053,s,0,299.4376300999429,300.795050380053,300.80364649998955,302.6168853798881,1.3434321000240743,1343.4321000240743,EMOCONPILOT010,2021_Jan_04_1704,EmoCon_Pilot_120Hz,2020.2.4,120.24621606703984,
,,,,0,0,0,0,85,0,85,0,,,,,,,,,,,,,,,,,,,,,,,,,,,,,,,,,,,,,,,,,,,,,,85,4.0,m,016_y_m_s_a.jpg,sad,a,3,1,302.62090159999207,302.9169027800672,302.9408696999308,302.96275717997923,302.9636087999679,303.00145897991024,303.00162979983725,304.141674780054,a,1,303.00162979983725,304.141674780054,304.1498348999303,305.733743079938,1.1235793998930603,1123.5793998930603,EMOCONPILOT010,2021_Jan_04_1704,EmoCon_Pilot_120Hz,2020.2.4,120.24621606703984,
,,,,0,0,0,0,86,0,86,0,,,,,,,,,,,,,,,,,,,,,,,,,,,,,,,,,,,,,,,,,,,,,,86,5.0,m,027_o_m_n_a.jpg,neutral,s,3,1,305.73909789999016,306.033674180042,306.25874459999613,306.28456497984007,306.2847149998415,306.31889337999746,306.3199827999342,307.1377408800181,s,1,306.3199827999342,307.1377408800181,307.14765829988755,308.75882977992296,0.8055606000125408,805.5606000125408,EMOCONPILOT010,2021_Jan_04_1704,EmoCon_Pilot_120Hz,2020.2.4,120.24621606703984,
,,,,0,0,0,0,87,0,87,0,,,,,,,,,,,,,,,,,,,,,,,,,,,,,,,,,,,,,,,,,,,,,,87,3.0,m,013_y_m_h_a.jpg,happy,d,17,1,308.76438139984384,309.0588011799846,309.287056799978,309.4492056800518,309.4540426998865,309.49420968000777,309.4993412999902,311.32858287985437,None,0,309.4993412999902,311.32858287985437,311.3360160999,313.20876777986996,,,EMOCONPILOT010,2021_Jan_04_1704,EmoCon_Pilot_120Hz,2020.2.4,120.24621606703984,
,,,,0,0,0,0,88,0,88,0,,,,,,,,,,,,,,,,,,,,,,,,,,,,,,,,,,,,,,,,,,,,,,88,5.0,m,027_o_m_s_a.jpg,sad,a,3,1,313.21470050001517,313.50879017985426,313.53116160002537,313.5537295800168,313.55428759986535,313.59326567989774,313.59444709983654,315.1821245800238,s,0,313.59444709983654,315.1821245800238,315.19222499988973,316.59220207994804,1.5787081001326442,1578.7081001326442,EMOCONPILOT010,2021_Jan_04_1704,EmoCon_Pilot_120Hz,2020.2.4,120.24621606703984,
,,,,0,0,0,0,89,0,89,0,,,,,,,,,,,,,,,,,,,,,,,,,,,,,,,,,,,,,,,,,,,,,,89,5.0,m,027_o_m_s_a.jpg,sad,a,17,1,316.5983516999986,316.8923261798918,316.91334049985744,317.0439261798747,317.047655900009,317.08505157986656,317.0886266999878,317.941131379921,a,1,317.0886266999878,317.941131379921,317.9504941999912,319.25067607988603,0.844667499884963,844.667499884963,EMOCONPILOT010,2021_Jan_04_1704,EmoCon_Pilot_120Hz,2020.2.4,120.24621606703984,
,,,,0,0,0,0,90,0,90,0,,,,,,,,,,,,,,,,,,,,,,,,,,,,,,,,,,,,,,,,,,,,,,90,12.0,f,040_y_f_s_a.jpg,sad,a,17,1,319.2563801999204,319.55063918000087,319.56962700001895,319.7022066798527,319.70532009983435,319.7435133799445,319.74653839995153,320.30170677998103,a,1,319.74653839995153,320.30170677998103,320.31117099989206,321.65893967985176,0.5465780000668019,546.5780000668019,EMOCONPILOT010,2021_Jan_04_1704,EmoCon_Pilot_120Hz,2020.2.4,120.24621606703984,
,,,,0,0,0,0,91,0,91,0,,,,,,,,,,,,,,,,,,,,,,,,,,,,,,,,,,,,,,,,,,,,,,91,3.0,m,013_y_m_n_a.jpg,neutral,s,3,1,321.6619599999394,321.95893918001093,322.2087493999861,322.2346902799327,322.2356382999569,322.2703748799395,322.27033229987137,323.2846870799549,s,1,322.27033229987137,323.2846870799549,323.2933254998643,324.4007285798434,1.006711499998346,1006.711499998346,EMOCONPILOT010,2021_Jan_04_1704,EmoCon_Pilot_120Hz,2020.2.4,120.24621606703984,
,,,,0,0,0,0,92,0,92,0,,,,,,,,,,,,,,,,,,,,,,,,,,,,,,,,,,,,,,,,,,,,,,92,12.0,f,040_y_f_s_a.jpg,sad,a,3,1,324.40557639999315,324.7006989798974,324.7279004000593,324.7510916800238,324.7525936998427,324.7875681798905,324.79094609990716,326.0061613798607,s,0,324.79094609990716,326.0061613798607,326.0125954998657,327.7090594798792,1.2060789000242949,1206.0789000242949,EMOCONPILOT010,2021_Jan_04_1704,EmoCon_Pilot_120Hz,2020.2.4,120.24621606703984,
,,,,0,0,0,0,93,0,93,0,,,,,,,,,,,,,,,,,,,,,,,,,,,,,,,,,,,,,,,,,,,,,,93,6.0,m,033_o_m_s_a.jpg,sad,a,17,1,327.7119358999189,328.0090001800563,328.0295994998887,328.16069387993775,328.16383929993026,328.2020609800238,328.2052012998611,328.95196337997913,a,1,328.2052012998611,328.95196337997913,328.9619451998733,330.3007904798724,0.7359954998828471,735.9954998828471,EMOCONPILOT010,2021_Jan_04_1704,EmoCon_Pilot_120Hz,2020.2.4,120.24621606703984,
,,,,0,0,0,0,94,0,94,0,,,,,,,,,,,,,,,,,,,,,,,,,,,,,,,,,,,,,,,,,,,,,,94,2.0,m,008_y_m_s_a.jpg,sad,a,17,1,330.3037564000115,330.600793980062,330.846224399982,331.0035969798919,331.0080041999463,331.0485930799041,331.05372569989413,331.60296867997386,a,1,331.05372569989413,331.60296867997386,331.6141496999189,333.0009848799091,0.5355367001611739,535.5367001611739,EMOCONPILOT010,2021_Jan_04_1704,EmoCon_Pilot_120Hz,2020.2.4,120.24621606703984,
,,,,0,0,0,0,95,0,95,0,,,,,,,,,,,,,,,,,,,,,,,,,,,,,,,,,,,,,,,,,,,,,,95,8.0,f,019_m_f_s_a.jpg,sad,a,3,1,333.0062815998681,333.30096708005294,333.5473491998855,333.5730323798489,333.5766634999309,333.61703067994677,333.62180979992263,334.57971097994596,a,1,333.62180979992263,334.57971097994596,334.5911949998699,336.36766437999904,0.9433703999966383,943.3703999966383,EMOCONPILOT010,2021_Jan_04_1704,EmoCon_Pilot_120Hz,2020.2.4,120.24621606703984,
,,,,0,0,0,0,96,0,96,0,,,,,,,,,,,,,,,,,,,,,,,,,,,,,,,,,,,,,,,,,,,,,,96,9.0,f,021_o_f_n_a.jpg,neutral,s,17,1,336.3722544000484,336.6675939799752,336.87963259988464,337.0409870799631,337.04562929994427,337.0867624799721,337.0918769999407,337.73289297986776,s,1,337.0918769999407,337.73289297986776,337.7446810998954,339.2093489798717,0.633396599907428,633.396599907428,EMOCONPILOT010,2021_Jan_04_1704,EmoCon_Pilot_120Hz,2020.2.4,120.24621606703984,
,,,,0,0,0,0,97,0,97,0,,,,,,,,,,,,,,,,,,,,,,,,,,,,,,,,,,,,,,,,,,,,,,97,11.0,f,030_o_f_h_a.jpg,happy,d,17,1,339.213432099903,339.5093732799869,339.70883939997293,339.86759737995453,339.8722687000409,339.9137513800524,339.9190326000098,340.52600948000327,d,1,339.9190326000098,340.52600948000327,340.53609059983864,341.9261581799947,0.5981225001160055,598.1225001160055,EMOCONPILOT010,2021_Jan_04_1704,EmoCon_Pilot_120Hz,2020.2.4,120.24621606703984,
,,,,0,0,0,0,98,0,98,0,,,,,,,,,,,,,,,,,,,,,,,,,,,,,,,,,,,,,,,,,,,,,,98,12.0,f,040_y_f_n_a.jpg,neutral,s,17,1,341.93209280003794,342.22610687999986,342.4454860999249,342.5982201800216,342.60331270005554,342.64406888000667,342.6492764998693,343.1979743798729,s,1,342.6492764998693,343.1979743798729,343.2095871998463,345.1261521799024,0.5398957999423146,539.8957999423146,EMOCONPILOT010,2021_Jan_04_1704,EmoCon_Pilot_120Hz,2020.2.4,120.24621606703984,
,,,,0,0,0,0,99,0,99,0,,,,,,,,,,,,,,,,,,,,,,,,,,,,,,,,,,,,,,,,,,,,,,99,12.0,f,040_y_f_s_a.jpg,sad,a,3,1,345.13020749995485,345.4261344799306,345.4489796999842,345.47191317984834,345.4727862,345.51073878002353,345.5124059000518,347.13273177994415,None,0,345.5124059000518,347.13273177994415,347.13736819988117,348.71788017987274,,,EMOCONPILOT010,2021_Jan_04_1704,EmoCon_Pilot_120Hz,2020.2.4,120.24621606703984,
,,,,0,0,0,0,100,0,100,0,,,,,,,,,,,,,,,,,,,,,,,,,,,,,,,,,,,,,,,,,,,,,,100,4.0,m,016_y_m_n_a.jpg,neutral,s,3,1,348.7229907999281,349.0179728800431,349.2478123998735,349.2732267798856,349.27374339988455,349.3108341798652,349.3109333999455,350.66969597991556,s,1,349.3109333999455,350.66969597991556,350.67620149999857,351.95140888006426,1.3501516999676824,1350.1516999676824,EMOCONPILOT010,2021_Jan_04_1704,EmoCon_Pilot_120Hz,2020.2.4,120.24621606703984,
,,,,0,0,0,0,101,0,101,0,,,,,,,,,,,,,,,,,,,,,,,,,,,,,,,,,,,,,,,,,,,,,,101,11.0,f,030_o_f_s_a.jpg,sad,a,17,1,351.95694499998353,352.2513814799022,352.45898499991745,352.62094697984867,352.62324539991096,352.6606800800655,352.6629776000045,353.41054147994146,a,1,352.6629776000045,353.41054147994146,353.4195208000019,355.28471518005244,0.734136400045827,734.136400045827,EMOCONPILOT010,2021_Jan_04_1704,EmoCon_Pilot_120Hz,2020.2.4,120.24621606703984,
,,,,0,0,0,0,102,0,102,0,,,,,,,,,,,,,,,,,,,,,,,,,,,,,,,,,,,,,,,,,,,,,,102,3.0,m,013_y_m_h_a.jpg,happy,d,17,1,355.2886489999946,355.58477657986805,355.82528039999306,355.98004677984864,355.9850879998412,356.0258031799458,356.0309623000212,356.4372767799068,d,1,356.0309623000212,356.4372767799068,356.448684199946,358.2264361800626,0.39846729999408126,398.46729999408126,EMOCONPILOT010,2021_Jan_04_1704,EmoCon_Pilot_120Hz,2020.2.4,120.24621606703984,
,,,,0,0,0,0,103,0,103,0,,,,,,,,,,,,,,,,,,,,,,,,,,,,,,,,,,,,,,,,,,,,,,103,2.0,m,008_y_m_s_a.jpg,sad,a,3,1,358.2319340000395,358.52630887995474,358.7466662998777,358.7726497799158,358.7727415000554,358.8073747800663,358.80712040001526,360.13429547986016,a,1,358.80712040001526,360.13429547986016,360.1411710998509,361.2598766798619,1.3103218001779169,1310.3218001779169,EMOCONPILOT010,2021_Jan_04_1704,EmoCon_Pilot_120Hz,2020.2.4,120.24621606703984,
,,,,0,0,0,0,104,0,104,0,,,,,,,,,,,,,,,,,,,,,,,,,,,,,,,,,,,,,,,,,,,,,,104,11.0,f,030_o_f_s_a.jpg,sad,a,3,1,361.2639424998779,361.5598248799797,361.7627346999943,361.789775979938,361.79000909999013,361.8276915799361,361.82874140003696,363.47873157984577,None,0,361.82874140003696,363.47873157984577,363.4835989999119,364.9848367800005,,,EMOCONPILOT010,2021_Jan_04_1704,EmoCon_Pilot_120Hz,2020.2.4,120.24621606703984,
,,,,0,0,0,0,105,0,105,0,,,,,,,,,,,,,,,,,,,,,,,,,,,,,,,,,,,,,,,,,,,,,,105,4.0,m,016_y_m_h_a.jpg,happy,d,17,1,364.9877571000252,365.28495658002794,365.3132890998386,365.4448817798402,365.4482644998934,365.48689398006536,365.4919405998662,365.9722129800357,d,1,365.4919405998662,365.9722129800357,365.984386399854,367.0765898800455,0.4653733999002725,465.3733999002725,EMOCONPILOT010,2021_Jan_04_1704,EmoCon_Pilot_120Hz,2020.2.4,120.24621606703984,
,,,,0,0,0,0,106,0,106,0,,,,,,,,,,,,,,,,,,,,,,,,,,,,,,,,,,,,,,,,,,,,,,106,7.0,f,012_o_f_n_a.jpg,neutral,s,17,1,367.07946609985083,367.37661708006635,367.5882623998914,367.7599569798913,367.76427119993605,367.8053183800075,367.81066809990443,368.9794802798424,s,1,367.81066809990443,368.9794802798424,368.990706600016,370.4850620799698,1.1545451001729816,1154.5451001729816,EMOCONPILOT010,2021_Jan_04_1704,EmoCon_Pilot_120Hz,2020.2.4,120.24621606703984,
,,,,0,0,0,0,107,0,107,0,,,,,,,,,,,,,,,,,,,,,,,,,,,,,,,,,,,,,,,,,,,,,,107,11.0,f,030_o_f_h_a.jpg,happy,d,3,1,370.4882813000586,370.78510137996636,370.98044139984995,371.0073482799344,371.0082749000285,371.04454728006385,371.04545679991134,371.62804988003336,d,1,371.04545679991134,371.62804988003336,371.6346861999482,372.85175528004766,0.567676099948585,567.676099948585,EMOCONPILOT010,2021_Jan_04_1704,EmoCon_Pilot_120Hz,2020.2.4,120.24621606703984,
,,,,0,0,0,0,108,0,108,0,,,,,,,,,,,,,,,,,,,,,,,,,,,,,,,,,,,,,,,,,,,,,,108,1.0,m,004_o_m_s_a.jpg,sad,a,3,1,372.85777199990116,373.1517625800334,373.1767547999043,373.1986854800489,373.1996621999424,373.23634367994964,373.2371555999853,374.04693317995407,a,1,373.2371555999853,374.04693317995407,374.05821039993316,375.2601416800171,0.7921396000310779,792.1396000310779,EMOCONPILOT010,2021_Jan_04_1704,EmoCon_Pilot_120Hz,2020.2.4,120.24621606703984,
,,,,0,0,0,0,109,0,109,0,,,,,,,,,,,,,,,,,,,,,,,,,,,,,,,,,,,,,,,,,,,,,,109,3.0,m,013_y_m_n_a.jpg,neutral,s,17,1,375.2657230999321,375.56025997991674,375.7909005000256,375.9459165800363,375.9506416998338,375.9913019798696,375.9964360999875,376.9411789800506,s,1,375.9964360999875,376.9411789800506,376.95254900003783,378.6603066800162,0.9286988999228925,928.6988999228925,EMOCONPILOT010,2021_Jan_04_1704,EmoCon_Pilot_120Hz,2020.2.4,120.24621606703984,
,,,,0,0,0,0,110,0,110,0,,,,,,,,,,,,,,,,,,,,,,,,,,,,,,,,,,,,,,,,,,,,,,110,10.0,f,028_y_f_s_a.jpg,sad,a,17,1,378.66603329987265,378.9603127799928,378.9816769999452,379.11192657984793,379.1155550999101,379.15313958004117,379.1568610998802,380.2062060800381,a,1,379.1568610998802,380.2062060800381,380.2178404999431,382.01870697992854,1.0323719999287277,1032.3719999287277,EMOCONPILOT010,2021_Jan_04_1704,EmoCon_Pilot_120Hz,2020.2.4,120.24621606703984,
,,,,0,0,0,0,111,0,111,0,,,,,,,,,,,,,,,,,,,,,,,,,,,,,,,,,,,,,,,,,,,,,,111,11.0,f,030_o_f_h_a.jpg,happy,d,17,1,382.0246045999229,382.3186418800615,382.50958329997957,382.6661391798407,382.67080649989657,382.7116814800538,382.71669989987276,383.2136335799005,d,1,382.71669989987276,383.2136335799005,383.2263710000552,384.5353051798884,0.488823699997738,488.823699997738,EMOCONPILOT010,2021_Jan_04_1704,EmoCon_Pilot_120Hz,2020.2.4,120.24621606703984,
,,,,0,0,0,0,112,0,112,0,,,,,,,,,,,,,,,,,,,,,,,,,,,,,,,,,,,,,,,,,,,,,,112,7.0,f,012_o_f_n_a.jpg,neutral,s,17,1,384.53951669996604,384.83537447988056,385.0405802000314,385.2040793800261,385.2085235998966,385.24949107994325,385.2547076998744,386.2606969799381,s,1,385.2547076998744,386.2606969799381,386.26727889990434,387.27694798004813,0.990476300008595,990.476300008595,EMOCONPILOT010,2021_Jan_04_1704,EmoCon_Pilot_120Hz,2020.2.4,120.24621606703984,
,,,,0,0,0,0,113,0,113,0,,,,,,,,,,,,,,,,,,,,,,,,,,,,,,,,,,,,,,,,,,,,,,113,2.0,m,008_y_m_s_a.jpg,sad,a,17,1,387.27980179991573,387.57693257997744,387.8091674998868,387.962669279892,387.9673359999433,388.0078017800115,388.013189899968,388.8994328798726,a,1,388.013189899968,388.8994328798726,388.9062822998967,390.3520550800022,0.8720283999573439,872.0283999573439,EMOCONPILOT010,2021_Jan_04_1704,EmoCon_Pilot_120Hz,2020.2.4,120.24621606703984,
,,,,0,0,0,0,114,0,114,0,,,,,,,,,,,,,,,,,,,,,,,,,,,,,,,,,,,,,,,,,,,,,,114,11.0,f,030_o_f_h_a.jpg,happy,d,17,1,390.35492529999465,390.65203167987056,390.84003759990446,391.01001267996617,391.014756700024,391.0543297799304,391.05953099997714,392.11636688001454,d,1,391.05953099997714,392.11636688001454,392.12832170003094,393.7105977800675,1.0417806000914425,1041.7806000914425,EMOCONPILOT010,2021_Jan_04_1704,EmoCon_Pilot_120Hz,2020.2.4,120.24621606703984,
,,,,0,0,0,0,115,0,115,0,,,,,,,,,,,,,,,,,,,,,,,,,,,,,,,,,,,,,,,,,,,,,,115,3.0,m,013_y_m_h_a.jpg,happy,d,17,1,393.71604639990255,394.0106531798374,394.2504979998339,394.4042777798604,394.40886009996757,394.45059238001704,394.45554920006543,394.9336223800201,d,1,394.45554920006543,394.9336223800201,394.9450482998509,396.8855519799981,0.4698891998268664,469.8891998268664,EMOCONPILOT010,2021_Jan_04_1704,EmoCon_Pilot_120Hz,2020.2.4,120.24621606703984,
,,,,0,0,0,0,116,0,116,0,,,,,,,,,,,,,,,,,,,,,,,,,,,,,,,,,,,,,,,,,,,,,,116,2.0,m,008_y_m_s_a.jpg,sad,a,17,1,396.8883845000528,397.1855611798819,397.4135441998951,397.5823172798846,397.5871739999857,397.6282354800496,397.633506400045,398.4550210798625,a,1,397.633506400045,398.4550210798625,398.46672399993986,399.91894987993874,0.811669500079006,811.669500079006,EMOCONPILOT010,2021_Jan_04_1704,EmoCon_Pilot_120Hz,2020.2.4,120.24621606703984,
,,,,0,0,0,0,117,0,117,0,,,,,,,,,,,,,,,,,,,,,,,,,,,,,,,,,,,,,,,,,,,,,,117,3.0,m,013_y_m_n_a.jpg,neutral,s,17,1,399.9228761000559,400.21897258004174,400.4475423998665,400.6024844800122,400.60755879990757,400.6483230800368,400.65288589987904,401.1731915799901,s,1,400.65288589987904,401.1731915799901,401.18312529986724,402.90234538004734,0.5044336998835206,504.4336998835206,EMOCONPILOT010,2021_Jan_04_1704,EmoCon_Pilot_120Hz,2020.2.4,120.24621606703984,
,,,,0,0,0,0,118,0,118,0,,,,,,,,,,,,,,,,,,,,,,,,,,,,,,,,,,,,,,,,,,,,,,118,6.0,m,033_o_m_n_a.jpg,neutral,s,17,1,402.90615459997207,403.20235068001784,403.3983177000191,403.5590521800332,403.56386539991945,403.60279408004135,403.6079193998594,404.63491598004475,s,1,403.6079193998594,404.63491598004475,404.64619829994626,406.51088697998784,1.0133338999003172,1013.3338999003172,EMOCONPILOT010,2021_Jan_04_1704,EmoCon_Pilot_120Hz,2020.2.4,120.24621606703984,
,,,,0,0,0,0,119,0,119,0,,,,,,,,,,,,,,,,,,,,,,,,,,,,,,,,,,,,,,,,,,,,,,119,6.0,m,033_o_m_n_a.jpg,neutral,s,17,1,406.51682460005395,406.8108209799975,406.997764499858,407.16803398006596,407.1725518000312,407.212794479914,407.2169166000094,408.11501787998714,s,1,407.2169166000094,408.11501787998714,408.12697910005227,409.99417767999694,0.8843010000418872,884.3010000418872,EMOCONPILOT010,2021_Jan_04_1704,EmoCon_Pilot_120Hz,2020.2.4,120.24621606703984,
,,,,1,0,1,0,0,0,0,0,,,,,,,,,,,,,,,,,,,,,,,,,,,,,,,,,,,,,,,410.0701353000477,424.3349203800317,space,14.255130999954417,14255.130999954417,410.0701353000477,424.3349203800317,0,1.0,m,004_o_m_s_a.jpg,sad,a,17,2,424.34321009996347,424.6362024799455,424.65329909999855,424.7878046799451,424.7917903000489,424.8299511799123,424.8344494998455,426.63109247991815,None,0,424.8344494998455,426.63109247991815,426.6359393999446,427.7447057799436,,,EMOCONPILOT010,2021_Jan_04_1704,EmoCon_Pilot_120Hz,2020.2.4,120.24621606703984,
,,,,1,0,1,0,1,0,1,0,,,,,,,,,,,,,,,,,,,,,,,,,,,,,,,,,,,,,,,,,,,,,,1,9.0,f,021_o_f_n_a.jpg,neutral,s,17,2,427.75156819983386,428.04470357997343,428.2697409999091,428.4308324798476,428.43536849995144,428.47653197986074,428.4813971000258,428.9248923799023,s,1,428.4813971000258,428.9248923799023,428.9340532000642,430.82799977995455,0.42787250014953315,427.87250014953315,EMOCONPILOT010,2021_Jan_04_1704,EmoCon_Pilot_120Hz,2020.2.4,120.24621606703984,
,,,,1,0,1,0,2,0,2,0,,,,,,,,,,,,,,,,,,,,,,,,,,,,,,,,,,,,,,,,,,,,,,2,11.0,f,030_o_f_s_a.jpg,sad,a,17,2,430.8334109999705,431.1280559799634,431.3288413998671,431.49170868005604,431.4964703998994,431.5373994798865,431.5425245000515,432.41656518005766,a,1,431.5425245000515,432.41656518005766,432.4281580999959,433.7946622800082,0.8626608001068234,862.6608001068234,EMOCONPILOT010,2021_Jan_04_1704,EmoCon_Pilot_120Hz,2020.2.4,120.24621606703984,
,,,,1,0,1,0,3,0,3,0,,,,,,,,,,,,,,,,,,,,,,,,,,,,,,,,,,,,,,,,,,,,,,3,10.0,f,028_y_f_s_a.jpg,sad,a,17,2,433.7988114999607,434.09474147995934,434.1151978999842,434.2463269799482,434.2490481999703,434.28750027995557,434.2902142999228,434.9889424799476,a,1,434.2902142999228,434.9889424799476,434.99708559992723,436.3197560799308,0.6830460000783205,683.0460000783205,EMOCONPILOT010,2021_Jan_04_1704,EmoCon_Pilot_120Hz,2020.2.4,120.24621606703984,
,,,,1,0,1,0,4,0,4,0,,,,,,,,,,,,,,,,,,,,,,,,,,,,,,,,,,,,,,,,,,,,,,4,6.0,m,033_o_m_n_a.jpg,neutral,s,17,2,436.3238854999654,436.6197595798876,436.8232001999859,436.9937388799153,436.9985319999978,437.03870057989843,437.0436905999668,437.8359034799505,s,1,437.0436905999668,437.8359034799505,437.84725119988434,439.17823787988164,0.7776114998850971,777.6114998850971,EMOCONPILOT010,2021_Jan_04_1704,EmoCon_Pilot_120Hz,2020.2.4,120.24621606703984,
,,,,1,0,1,0,5,0,5,0,,,,,,,,,,,,,,,,,,,,,,,,,,,,,,,,,,,,,,,,,,,,,,5,1.0,m,004_o_m_n_a.jpg,neutral,s,17,2,439.1824588999152,439.47820847993717,439.66986919986084,439.829750679899,439.83344729989767,439.8710904798936,439.87613849993795,440.2933672799263,s,1,439.87613849993795,440.2933672799263,440.3039368998725,442.26991447992623,0.4094289999920875,409.4289999920875,EMOCONPILOT010,2021_Jan_04_1704,EmoCon_Pilot_120Hz,2020.2.4,120.24621606703984,
,,,,1,0,1,0,6,0,6,0,,,,,,,,,,,,,,,,,,,,,,,,,,,,,,,,,,,,,,,,,,,,,,6,12.0,f,040_y_f_s_a.jpg,sad,a,17,2,442.2729440999683,442.5698914800305,442.58614280004986,442.7216051800642,442.72469569998793,442.7627796798479,442.7662847000174,443.4062454800587,a,1,442.7662847000174,443.4062454800587,443.41806639987044,445.04497597995214,0.623074600007385,623.074600007385,EMOCONPILOT010,2021_Jan_04_1704,EmoCon_Pilot_120Hz,2020.2.4,120.24621606703984,
,,,,1,0,1,0,7,0,7,0,,,,,,,,,,,,,,,,,,,,,,,,,,,,,,,,,,,,,,,,,,,,,,7,9.0,f,021_o_f_n_a.jpg,neutral,s,2,2,445.0481548998505,445.34486537985504,445.5549246999435,445.57245397986844,445.5732354999054,445.60936797992326,445.61096580000594,447.13709107995965,s,1,445.61096580000594,447.13709107995965,447.144478000002,448.58684667991474,1.514132299926132,1514.132299926132,EMOCONPILOT010,2021_Jan_04_1704,EmoCon_Pilot_120Hz,2020.2.4,120.24621606703984,
,,,,1,0,1,0,8,0,8,0,,,,,,,,,,,,,,,,,,,,,,,,,,,,,,,,,,,,,,,,,,,,,,8,9.0,f,021_o_f_s_a.jpg,sad,a,17,2,448.5922828000039,448.8867925798986,448.90217550005764,449.03822498000227,449.0412884999532,449.07963127992116,449.08142159995623,449.5710430799518,a,1,449.08142159995623,449.5710430799518,449.57931909989566,451.38665747991763,0.47576909977942705,475.76909977942705,EMOCONPILOT010,2021_Jan_04_1704,EmoCon_Pilot_120Hz,2020.2.4,120.24621606703984,
,,,,1,0,1,0,9,0,9,0,,,,,,,,,,,,,,,,,,,,,,,,,,,,,,,,,,,,,,,,,,,,,,9,4.0,m,016_y_m_s_a.jpg,sad,a,2,2,451.3895602999255,451.6867405800149,451.7078356000129,451.72294378001243,451.72308039991185,451.7592842800077,451.75970519986004,453.3760911799036,None,0,451.75970519986004,453.3760911799036,453.3811170998961,454.49510957999155,,,EMOCONPILOT010,2021_Jan_04_1704,EmoCon_Pilot_120Hz,2020.2.4,120.24621606703984,
,,,,1,0,1,0,10,0,10,0,,,,,,,,,,,,,,,,,,,,,,,,,,,,,,,,,,,,,,,,,,,,,,10,7.0,f,012_o_f_n_a.jpg,neutral,s,2,2,454.4980039000511,454.7951307799667,455.0259177000262,455.0424371799454,455.04289099993184,455.07973997993395,455.0812331000343,456.6727260800544,None,0,455.0812331000343,456.6727260800544,456.67488719988614,457.9785506799817,,,EMOCONPILOT010,2021_Jan_04_1704,EmoCon_Pilot_120Hz,2020.2.4,120.24621606703984,
,,,,1,0,1,0,11,0,11,0,,,,,,,,,,,,,,,,,,,,,,,,,,,,,,,,,,,,,,,,,,,,,,11,2.0,m,008_y_m_n_a.jpg,neutral,s,17,2,457.98263569991104,458.2785487798974,458.51493020006455,458.6697108799126,458.6727556998376,458.71008157986216,458.7128289998509,459.39469818002544,s,1,458.7128289998509,459.39469818002544,459.40408040001057,460.8869680799544,0.6683903001248837,668.3903001248837,EMOCONPILOT010,2021_Jan_04_1704,EmoCon_Pilot_120Hz,2020.2.4,120.24621606703984,
,,,,1,0,1,0,12,0,12,0,,,,,,,,,,,,,,,,,,,,,,,,,,,,,,,,,,,,,,,,,,,,,,12,1.0,m,004_o_m_s_a.jpg,sad,a,17,2,460.89248479995877,461.18685428006575,461.19615709991194,461.3304393799044,461.33491849992424,461.37575888005085,461.3808408998884,461.8370664799586,a,1,461.3808408998884,461.8370664799586,461.84466829989105,463.62025168002583,0.44828510005027056,448.28510005027056,EMOCONPILOT010,2021_Jan_04_1704,EmoCon_Pilot_120Hz,2020.2.4,120.24621606703984,
,,,,1,0,1,0,13,0,13,0,,,,,,,,,,,,,,,,,,,,,,,,,,,,,,,,,,,,,,,,,,,,,,13,7.0,f,012_o_f_h_a.jpg,happy,d,2,2,463.6232727000024,463.9203375799116,463.93570509995334,463.950468279887,463.95063559990376,463.9881992798764,463.9895285000093,464.5412193799857,d,1,463.9895285000093,464.5412193799857,464.5498152000364,465.9371335799806,0.5438258999492973,543.8258999492973,EMOCONPILOT010,2021_Jan_04_1704,EmoCon_Pilot_120Hz,2020.2.4,120.24621606703984,
,,,,1,0,1,0,14,0,14,0,,,,,,,,,,,,,,,,,,,,,,,,,,,,,,,,,,,,,,,,,,,,,,14,3.0,m,013_y_m_h_a.jpg,happy,d,17,2,465.94322649994865,466.236994179897,466.47335279989056,466.6304173800163,466.63364370004274,466.67471197992563,466.67968189995736,467.0671085799113,d,1,466.67968189995736,467.0671085799113,467.0786426998675,469.02876677992754,0.3735396999400109,373.5396999400109,EMOCONPILOT010,2021_Jan_04_1704,EmoCon_Pilot_120Hz,2020.2.4,120.24621606703984,
,,,,1,0,1,0,15,0,15,0,,,,,,,,,,,,,,,,,,,,,,,,,,,,,,,,,,,,,,,,,,,,,,15,11.0,f,030_o_f_n_a.jpg,neutral,s,2,2,469.0328734999057,469.3288187799044,469.52083950000815,469.5381516800262,469.5386997999158,469.57390467985533,469.57465299987234,471.37920657987706,None,0,469.57465299987234,471.37920657987706,471.3823887000326,473.11220107995905,,,EMOCONPILOT010,2021_Jan_04_1704,EmoCon_Pilot_120Hz,2020.2.4,120.24621606703984,
,,,,1,0,1,0,16,0,16,0,,,,,,,,,,,,,,,,,,,,,,,,,,,,,,,,,,,,,,,,,,,,,,16,3.0,m,013_y_m_n_a.jpg,neutral,s,17,2,473.1176217000466,473.4125257800333,473.63968879985623,473.80221067997627,473.8070755000226,473.8476540800184,473.85283029987477,474.50336627988145,s,1,473.85283029987477,474.50336627988145,474.5138218998909,475.5456916799303,0.6404320001602173,640.4320001602173,EMOCONPILOT010,2021_Jan_04_1704,EmoCon_Pilot_120Hz,2020.2.4,120.24621606703984,
,,,,1,0,1,0,17,0,17,0,,,,,,,,,,,,,,,,,,,,,,,,,,,,,,,,,,,,,,,,,,,,,,17,9.0,f,021_o_f_h_a.jpg,happy,d,2,2,475.5495465998538,475.8455681798514,476.0467197999824,476.06403187988326,476.06405230006203,476.0994884800166,476.1002078000456,476.85700407996774,d,1,476.1002078000456,476.85700407996774,476.86462030000985,478.13734668004327,0.7450892999768257,745.0892999768257,EMOCONPILOT010,2021_Jan_04_1704,EmoCon_Pilot_120Hz,2020.2.4,120.24621606703984,
,,,,1,0,1,0,18,0,18,0,,,,,,,,,,,,,,,,,,,,,,,,,,,,,,,,,,,,,,,,,,,,,,18,3.0,m,013_y_m_s_a.jpg,sad,a,17,2,478.1427680000197,478.43734577996656,478.46323819993995,478.59733487991616,478.6023945999332,478.64300168002956,478.6483469000086,479.3101798798889,a,1,478.6483469000086,479.3101798798889,479.32086839992553,480.70401037996635,0.6529033998958766,652.9033998958766,EMOCONPILOT010,2021_Jan_04_1704,EmoCon_Pilot_120Hz,2020.2.4,120.24621606703984,
,,,,1,0,1,0,19,0,19,0,,,,,,,,,,,,,,,,,,,,,,,,,,,,,,,,,,,,,,,,,,,,,,19,10.0,f,028_y_f_h_a.jpg,happy,d,2,2,480.7068971998524,481.0041682799347,481.02737360005267,481.04254367994145,481.044541799929,481.08010788005777,481.0813344998751,481.73132587992586,d,1,481.0813344998751,481.73132587992586,481.7374732999597,483.0374088799581,0.635836600093171,635.836600093171,EMOCONPILOT010,2021_Jan_04_1704,EmoCon_Pilot_120Hz,2020.2.4,120.24621606703984,
,,,,1,0,1,0,20,0,20,0,,,,,,,,,,,,,,,,,,,,,,,,,,,,,,,,,,,,,,,,,,,,,,20,4.0,m,016_y_m_h_a.jpg,happy,d,2,2,483.0421790999826,483.3374392800033,483.3575579999015,483.373061979888,483.3728207000531,483.408955079969,483.40931240003556,484.21707638003863,d,1,483.40931240003556,484.21707638003863,484.22550149983726,485.89581248001195,0.7959859999828041,795.9859999828041,EMOCONPILOT010,2021_Jan_04_1704,EmoCon_Pilot_120Hz,2020.2.4,120.24621606703984,
,,,,1,0,1,0,21,0,21,0,,,,,,,,,,,,,,,,,,,,,,,,,,,,,,,,,,,,,,,,,,,,,,21,6.0,m,033_o_m_h_a.jpg,happy,d,17,2,485.90096169989556,486.19581057992764,486.2180818999186,486.35589147987776,486.35868790000677,486.3971866799984,486.40012530004606,486.7964285798371,d,1,486.40012530004606,486.7964285798371,486.8072784000542,487.90419728006236,0.38937840005382895,389.37840005382895,EMOCONPILOT010,2021_Jan_04_1704,EmoCon_Pilot_120Hz,2020.2.4,120.24621606703984,
,,,,1,0,1,0,22,0,22,0,,,,,,,,,,,,,,,,,,,,,,,,,,,,,,,,,,,,,,,,,,,,,,22,5.0,m,027_o_m_s_a.jpg,sad,a,2,2,487.90711939986795,488.2042238798458,488.2192500999663,488.23408437985927,488.2340559998993,488.2720756798517,488.2729644998908,488.98100797994994,d,0,488.2729644998908,488.98100797994994,488.99172839988023,490.16255157999694,0.7002936000935733,700.2936000935733,EMOCONPILOT010,2021_Jan_04_1704,EmoCon_Pilot_120Hz,2020.2.4,120.24621606703984,
,,,,1,0,1,0,23,0,23,0,,,,,,,,,,,,,,,,,,,,,,,,,,,,,,,,,,,,,,,,,,,,,,23,10.0,f,028_y_f_n_a.jpg,neutral,s,2,2,490.1681061000563,490.46265877992846,490.66975070000626,490.68618567986414,490.6865244999062,490.72228427999653,490.72201190004125,491.66087758005597,s,1,490.72201190004125,491.66087758005597,491.67152690002695,493.3625382799655,0.9312919001094997,931.2919001094997,EMOCONPILOT010,2021_Jan_04_1704,EmoCon_Pilot_120Hz,2020.2.4,120.24621606703984,
,,,,1,0,1,0,24,0,24,0,,,,,,,,,,,,,,,,,,,,,,,,,,,,,,,,,,,,,,,,,,,,,,24,9.0,f,021_o_f_n_a.jpg,neutral,s,17,2,493.36550719989464,493.66254997998476,493.87626399984583,494.04749258002266,494.0520072998479,494.0929395798594,494.0980837000534,494.6405022798572,s,1,494.0980837000534,494.6405022798572,494.6460094000213,496.1044940799475,0.5310776999685913,531.0776999685913,EMOCONPILOT010,2021_Jan_04_1704,EmoCon_Pilot_120Hz,2020.2.4,120.24621606703984,
,,,,1,0,1,0,25,0,25,0,,,,,,,,,,,,,,,,,,,,,,,,,,,,,,,,,,,,,,,,,,,,,,25,8.0,f,019_m_f_h_a.jpg,happy,d,2,2,496.1087880998384,496.40446577989496,496.41848469991237,496.4333638800308,496.4343455999624,496.4723124799784,496.47354819998145,497.1250655800104,d,1,496.47354819998145,497.1250655800104,497.1335960000288,498.4459684798494,0.6436210998799652,643.6210998799652,EMOCONPILOT010,2021_Jan_04_1704,EmoCon_Pilot_120Hz,2020.2.4,120.24621606703984,
,,,,1,0,1,0,26,0,26,0,,,,,,,,,,,,,,,,,,,,,,,,,,,,,,,,,,,,,,,,,,,,,,26,4.0,m,016_y_m_n_a.jpg,neutral,s,17,2,498.44884039997123,498.746188380057,498.9901383998804,499.1465543799568,499.15131290000863,499.1922003799118,499.19681090000086,499.7555891799275,s,1,499.19681090000086,499.7555891799275,499.76686519989744,501.4794644799549,0.5444817000534385,544.4817000534385,EMOCONPILOT010,2021_Jan_04_1704,EmoCon_Pilot_120Hz,2020.2.4,120.24621606703984,
,,,,1,0,1,0,27,0,27,0,,,,,,,,,,,,,,,,,,,,,,,,,,,,,,,,,,,,,,,,,,,,,,27,1.0,m,004_o_m_h_a.jpg,happy,d,2,2,501.48363290005364,501.7795388798695,501.9916772998404,502.0091305798851,502.00958229997195,502.0473222800065,502.05243959999643,502.7925954798702,d,1,502.05243959999643,502.7925954798702,502.8009974998422,503.79622637992725,0.7287815001327544,728.7815001327544,EMOCONPILOT010,2021_Jan_04_1704,EmoCon_Pilot_120Hz,2020.2.4,120.24621606703984,
,,,,1,0,1,0,28,0,28,0,,,,,,,,,,,,,,,,,,,,,,,,,,,,,,,,,,,,,,,,,,,,,,28,10.0,f,028_y_f_s_a.jpg,sad,a,17,2,503.8017243000213,504.09623267990537,504.11949849990197,504.2562090798747,504.2597950999625,504.300380080007,504.30471249995753,505.1172636798583,a,1,504.30471249995753,505.1172636798583,505.12906960002147,506.7378034798894,0.8048562998883426,804.8562998883426,EMOCONPILOT010,2021_Jan_04_1704,EmoCon_Pilot_120Hz,2020.2.4,120.24621606703984,
,,,,1,0,1,0,29,0,29,0,,,,,,,,,,,,,,,,,,,,,,,,,,,,,,,,,,,,,,,,,,,,,,29,5.0,m,027_o_m_h_a.jpg,happy,d,17,2,506.73809250001796,507.0378784800414,507.2399631999433,507.40151277999394,507.40518000000156,507.44336248002946,507.44740589987487,508.1339258798398,d,1,507.44740589987487,508.1339258798398,508.14557689987123,509.5629784800112,0.6780095999129117,678.0095999129117,EMOCONPILOT010,2021_Jan_04_1704,EmoCon_Pilot_120Hz,2020.2.4,120.24621606703984,
,,,,1,0,1,0,30,0,30,0,,,,,,,,,,,,,,,,,,,,,,,,,,,,,,,,,,,,,,,,,,,,,,30,10.0,f,028_y_f_h_a.jpg,happy,d,2,2,509.5662535999436,509.86300448002294,509.8841362998355,509.899600579869,509.9003928999882,509.9360109800473,509.9361790998373,510.61274938005954,d,1,509.9361790998373,510.61274938005954,510.6200559998397,512.0713674798608,0.6691374001093209,669.1374001093209,EMOCONPILOT010,2021_Jan_04_1704,EmoCon_Pilot_120Hz,2020.2.4,120.24621606703984,
,,,,1,0,1,0,31,0,31,0,,,,,,,,,,,,,,,,,,,,,,,,,,,,,,,,,,,,,,,,,,,,,,31,5.0,m,027_o_m_h_a.jpg,happy,d,2,2,512.075559000019,512.37136698002,512.5847088999581,512.6016084798612,512.6020043999888,512.6392576799262,512.6403691999149,513.6205503798556,d,1,512.6403691999149,513.6205503798556,513.6326708998531,515.6131453800481,0.9655327000655234,965.5327000655234,EMOCONPILOT010,2021_Jan_04_1704,EmoCon_Pilot_120Hz,2020.2.4,120.24621606703984,
,,,,1,0,1,0,32,0,32,0,,,,,,,,,,,,,,,,,,,,,,,,,,,,,,,,,,,,,,,,,,,,,,32,9.0,f,021_o_f_n_a.jpg,neutral,s,2,2,515.6185937998816,515.9132629800588,516.1234499998391,516.1410267800093,516.1413616000209,516.1764340798836,516.1777297998779,516.9730857799295,s,1,516.1777297998779,516.9730857799295,516.9823618000373,518.5214577799197,0.7874837000854313,787.4837000854313,EMOCONPILOT010,2021_Jan_04_1704,EmoCon_Pilot_120Hz,2020.2.4,120.24621606703984,
,,,,1,0,1,0,33,0,33,0,,,,,,,,,,,,,,,,,,,,,,,,,,,,,,,,,,,,,,,,,,,,,,33,3.0,m,013_y_m_s_a.jpg,sad,a,17,2,518.5243285000324,518.8214242800605,518.8452641998883,518.9815219799057,518.9865603998769,519.0270206800196,519.032168299891,520.5876412799116,a,1,519.032168299891,520.5876412799116,520.5958678000607,522.3381743798964,1.5411684999708086,1541.1684999708086,EMOCONPILOT010,2021_Jan_04_1704,EmoCon_Pilot_120Hz,2020.2.4,120.24621606703984,
,,,,1,0,1,0,34,0,34,0,,,,,,,,,,,,,,,,,,,,,,,,,,,,,,,,,,,,,,,,,,,,,,34,1.0,m,004_o_m_n_a.jpg,neutral,s,2,2,522.341025599977,522.6382798799314,522.8460921000224,522.8633634799626,522.86384669994,522.89813037985,522.8990426999517,524.3600550799165,s,1,522.8990426999517,524.3600550799165,524.3715725999791,525.4799501800444,1.4504605999682099,1450.4605999682099,EMOCONPILOT010,2021_Jan_04_1704,EmoCon_Pilot_120Hz,2020.2.4,120.24621606703984,
,,,,1,0,1,0,35,0,35,0,,,,,,,,,,,,,,,,,,,,,,,,,,,,,,,,,,,,,,,,,,,,,,35,12.0,f,040_y_f_h_a.jpg,happy,d,2,2,525.4839220000431,525.7799857798964,525.8042190999258,525.8192553799599,525.8199920998886,525.8562114799861,525.8562245999929,526.4120182800107,d,1,525.8562245999929,526.4120182800107,526.4194469000213,527.8550596800633,0.5490753999911249,549.0753999911249,EMOCONPILOT010,2021_Jan_04_1704,EmoCon_Pilot_120Hz,2020.2.4,120.24621606703984,
,,,,1,0,1,0,36,0,36,0,,,,,,,,,,,,,,,,,,,,,,,,,,,,,,,,,,,,,,,,,,,,,,36,10.0,f,028_y_f_n_a.jpg,neutral,s,17,2,527.860205099918,528.1550530800596,528.3552856000606,528.5139543800615,528.517126099905,528.553968579974,528.5579134998843,529.3248328799382,s,1,528.5579134998843,529.3248328799382,529.3362060000654,531.0802227798849,0.7514961999841034,751.4961999841034,EMOCONPILOT010,2021_Jan_04_1704,EmoCon_Pilot_120Hz,2020.2.4,120.24621606703984,
,,,,1,0,1,0,37,0,37,0,,,,,,,,,,,,,,,,,,,,,,,,,,,,,,,,,,,,,,,,,,,,,,37,11.0,f,030_o_f_n_a.jpg,neutral,s,17,2,531.0860732998699,531.3801640800666,531.5850102999248,531.7576840799302,531.7623894999269,531.803480779985,531.8084060000256,532.2864116800483,s,1,531.8084060000256,532.2864116800483,532.2966771000065,533.7465083799325,0.46087680011987686,460.87680011987686,EMOCONPILOT010,2021_Jan_04_1704,EmoCon_Pilot_120Hz,2020.2.4,120.24621606703984,
,,,,1,0,1,0,38,0,38,0,,,,,,,,,,,,,,,,,,,,,,,,,,,,,,,,,,,,,,,,,,,,,,38,1.0,m,004_o_m_h_a.jpg,happy,d,17,2,533.747048899997,534.0468815800268,534.2511700000614,534.4089957799297,534.4135700999759,534.4526818799786,534.4577655000612,535.7479051798582,d,1,534.4577655000612,535.7479051798582,535.7579572000541,537.2802831800655,1.2755311999935657,1275.5311999935657,EMOCONPILOT010,2021_Jan_04_1704,EmoCon_Pilot_120Hz,2020.2.4,120.24621606703984,
,,,,1,0,1,0,39,0,39,0,,,,,,,,,,,,,,,,,,,,,,,,,,,,,,,,,,,,,,,,,,,,,,39,6.0,m,033_o_m_h_a.jpg,happy,d,2,2,537.2852489999495,537.5802612800617,537.5970077998936,537.6123154798988,537.6128219999373,537.6481149799656,537.6482073999941,538.1825400800444,d,1,537.6482073999941,538.1825400800444,538.19196249987,539.9385955799371,0.525102199986577,525.102199986577,EMOCONPILOT010,2021_Jan_04_1704,EmoCon_Pilot_120Hz,2020.2.4,120.24621606703984,
,,,,1,0,1,0,40,0,40,0,,,,,,,,,,,,,,,,,,,,,,,,,,,,,,,,,,,,,,,,,,,,,,40,7.0,f,012_o_f_h_a.jpg,happy,d,2,2,539.942627399927,540.2386706799734,540.2628400998656,540.2780956800561,540.2797904000618,540.3153189800214,540.3168422000017,541.0328209800646,d,1,540.3168422000017,541.0328209800646,541.0443952998612,542.2137581799179,0.7045006998814642,704.5006998814642,EMOCONPILOT010,2021_Jan_04_1704,EmoCon_Pilot_120Hz,2020.2.4,120.24621606703984,
,,,,1,0,1,0,41,0,41,0,,,,,,,,,,,,,,,,,,,,,,,,,,,,,,,,,,,,,,,,,,,,,,41,6.0,m,033_o_m_n_a.jpg,neutral,s,17,2,542.2178793000057,542.5136439800262,542.7307293999474,542.8882394798566,542.8931459998712,542.934350179974,542.9398401998915,543.4379132799804,s,1,542.9398401998915,543.4379132799804,543.4492806999478,545.3387846800033,0.48172760009765625,481.72760009765625,EMOCONPILOT010,2021_Jan_04_1704,EmoCon_Pilot_120Hz,2020.2.4,120.24621606703984,
,,,,1,0,1,0,42,0,42,0,,,,,,,,,,,,,,,,,,,,,,,,,,,,,,,,,,,,,,,,,,,,,,42,7.0,f,012_o_f_h_a.jpg,happy,d,17,2,545.3420432000421,545.6388493799604,545.6600587998983,545.7912527800072,545.7957494000439,545.8363273800351,545.8415940999985,546.278427680023,d,1,545.8415940999985,546.278427680023,546.2900145000312,547.4387911800295,0.4198255001101643,419.8255001101643,EMOCONPILOT010,2021_Jan_04_1704,EmoCon_Pilot_120Hz,2020.2.4,120.24621606703984,
,,,,1,0,1,0,43,0,43,0,,,,,,,,,,,,,,,,,,,,,,,,,,,,,,,,,,,,,,,,,,,,,,43,5.0,m,027_o_m_h_a.jpg,happy,d,2,2,547.4428900999483,547.7387450798415,547.9456233999226,547.9624382799957,547.9628194000106,547.9983026799746,547.9994284999557,548.6210074799601,d,1,547.9994284999557,548.6210074799601,548.6311598999891,549.9554328799713,0.6138396000023931,613.8396000023931,EMOCONPILOT010,2021_Jan_04_1704,EmoCon_Pilot_120Hz,2020.2.4,120.24621606703984,
,,,,1,0,1,0,44,0,44,0,,,,,,,,,,,,,,,,,,,,,,,,,,,,,,,,,,,,,,,,,,,,,,44,10.0,f,028_y_f_s_a.jpg,sad,a,17,2,549.9584011000115,550.2554175800178,550.2768410998397,550.4072320798878,550.40906179999,550.4485411799978,550.4511736000422,551.4702242799103,a,1,550.4511736000422,551.4702242799103,551.4802147999872,553.2889887799975,1.0022603999823332,1002.2603999823332,EMOCONPILOT010,2021_Jan_04_1704,EmoCon_Pilot_120Hz,2020.2.4,120.24621606703984,
,,,,1,0,1,0,45,0,45,0,,,,,,,,,,,,,,,,,,,,,,,,,,,,,,,,,,,,,,,,,,,,,,45,7.0,f,012_o_f_n_a.jpg,neutral,s,2,2,553.2941209999844,553.5890491800383,553.81476749992,553.8324729800224,553.8332950999029,553.8680822800379,553.868831000058,554.6846025800332,s,1,553.868831000058,554.6846025800332,554.6962498000357,556.6224091800395,0.8087112000212073,808.7112000212073,EMOCONPILOT010,2021_Jan_04_1704,EmoCon_Pilot_120Hz,2020.2.4,120.24621606703984,
,,,,1,0,1,0,46,0,46,0,,,,,,,,,,,,,,,,,,,,,,,,,,,,,,,,,,,,,,,,,,,,,,46,1.0,m,004_o_m_n_a.jpg,neutral,s,2,2,556.626786199864,556.922430079896,557.1289003000129,557.1452371799387,557.1458773999475,557.1818233800586,557.181790499948,558.1504033799283,s,1,557.181790499948,558.1504033799283,558.154982799897,559.6224919799715,0.9594539999961853,959.4539999961853,EMOCONPILOT010,2021_Jan_04_1704,EmoCon_Pilot_120Hz,2020.2.4,120.24621606703984,
,,,,1,0,1,0,47,0,47,0,,,,,,,,,,,,,,,,,,,,,,,,,,,,,,,,,,,,,,,,,,,,,,47,9.0,f,021_o_f_h_a.jpg,happy,d,2,2,559.6254332999233,559.9224702799693,560.1296097999439,560.1467093799729,560.147474099882,560.1819600800518,560.1832004999742,560.8524436799344,d,1,560.1832004999742,560.8524436799344,560.8581675000023,562.0558077800088,0.6541120000183582,654.1120000183582,EMOCONPILOT010,2021_Jan_04_1704,EmoCon_Pilot_120Hz,2020.2.4,120.24621606703984,
,,,,1,0,1,0,48,0,48,0,,,,,,,,,,,,,,,,,,,,,,,,,,,,,,,,,,,,,,,,,,,,,,48,10.0,f,028_y_f_n_a.jpg,neutral,s,2,2,562.0619317998644,562.3558799799066,562.5657639000565,562.5825411798432,562.5827253998723,562.6175848799758,562.6178480999079,563.8148516798392,s,1,562.6178480999079,563.8148516798392,563.8217219000217,565.1975360799115,1.1874309999402612,1187.4309999402612,EMOCONPILOT010,2021_Jan_04_1704,EmoCon_Pilot_120Hz,2020.2.4,120.24621606703984,
,,,,1,0,1,0,49,0,49,0,,,,,,,,,,,,,,,,,,,,,,,,,,,,,,,,,,,,,,,,,,,,,,49,7.0,f,012_o_f_h_a.jpg,happy,d,2,2,565.2014708998613,565.4975677798502,565.52313830005,565.5386151799466,565.5400833999738,565.5771314799786,565.5788419998717,566.2603329799604,d,1,565.5788419998717,566.2603329799604,566.2710857999045,568.2225946800318,0.6665488998405635,666.5488998405635,EMOCONPILOT010,2021_Jan_04_1704,EmoCon_Pilot_120Hz,2020.2.4,120.24621606703984,
,,,,1,0,1,0,50,0,50,0,,,,,,,,,,,,,,,,,,,,,,,,,,,,,,,,,,,,,,,,,,,,,,50,5.0,m,027_o_m_h_a.jpg,happy,d,2,2,568.2255022998434,568.5226015800145,568.7339202999137,568.751418779837,568.7514986998867,568.7866029799916,568.7866249000654,569.230833580019,d,1,568.7866249000654,569.230833580019,569.2419771000277,570.339302879991,0.4268342999275774,426.8342999275774,EMOCONPILOT010,2021_Jan_04_1704,EmoCon_Pilot_120Hz,2020.2.4,120.24621606703984,
,,,,1,0,1,0,51,0,51,0,,,,,,,,,,,,,,,,,,,,,,,,,,,,,,,,,,,,,,,,,,,,,,51,12.0,f,040_y_f_n_a.jpg,neutral,s,17,2,570.343501499854,570.6393399799708,570.8590285000391,571.0160409798846,571.0206685999874,571.0612242799252,571.0664847998414,571.4923949800432,s,1,571.0664847998414,571.4923949800432,571.5030026999302,572.8309992798604,0.419016300002113,419.016300002113,EMOCONPILOT010,2021_Jan_04_1704,EmoCon_Pilot_120Hz,2020.2.4,120.24621606703984,
,,,,1,0,1,0,52,0,52,0,,,,,,,,,,,,,,,,,,,,,,,,,,,,,,,,,,,,,,,,,,,,,,52,2.0,m,008_y_m_h_a.jpg,happy,d,17,2,572.8351208998356,573.1310278798919,573.1578181998339,573.2910322798416,573.2942732998636,573.3329781799112,573.3363470998593,573.9282961799763,d,1,573.3363470998593,573.9282961799763,573.93915069988,575.4477619798854,0.5809870001394302,580.9870001394302,EMOCONPILOT010,2021_Jan_04_1704,EmoCon_Pilot_120Hz,2020.2.4,120.24621606703984,
,,,,1,0,1,0,53,0,53,0,,,,,,,,,,,,,,,,,,,,,,,,,,,,,,,,,,,,,,,,,,,,,,53,6.0,m,033_o_m_h_a.jpg,happy,d,17,2,575.4531948999502,575.7477502799593,575.767550499877,575.8993814799469,575.9027861999348,575.9411224799696,575.944152199896,576.4109997800551,d,1,575.944152199896,576.4109997800551,576.422087199986,577.4894265800249,0.4531646999530494,453.1646999530494,EMOCONPILOT010,2021_Jan_04_1704,EmoCon_Pilot_120Hz,2020.2.4,120.24621606703984,
,,,,1,0,1,0,54,0,54,0,,,,,,,,,,,,,,,,,,,,,,,,,,,,,,,,,,,,,,,,,,,,,,54,2.0,m,008_y_m_h_a.jpg,happy,d,17,2,577.4949242998846,577.789453479927,577.8122936999425,577.9494212800637,577.9527640999295,577.9906220799312,577.9939401999582,578.4337474799249,d,1,577.9939401999582,578.4337474799249,578.4431906999089,579.5062472799327,0.42761760018765926,427.61760018765926,EMOCONPILOT010,2021_Jan_04_1704,EmoCon_Pilot_120Hz,2020.2.4,120.24621606703984,
,,,,1,0,1,0,55,0,55,0,,,,,,,,,,,,,,,,,,,,,,,,,,,,,,,,,,,,,,,,,,,,,,55,12.0,f,040_y_f_h_a.jpg,happy,d,17,2,579.5101707999129,579.8061683799606,579.8303894998971,579.966112379916,579.9677456000354,580.00729968003,580.0099277999252,580.3408680800349,d,1,580.0099277999252,580.3408680800349,580.3483295000624,581.8896139799617,0.3234537998214364,323.4537998214364,EMOCONPILOT010,2021_Jan_04_1704,EmoCon_Pilot_120Hz,2020.2.4,120.24621606703984,
,,,,1,0,1,0,56,0,56,0,,,,,,,,,,,,,,,,,,,,,,,,,,,,,,,,,,,,,,,,,,,,,,56,10.0,f,028_y_f_n_a.jpg,neutral,s,17,2,581.8934128999244,582.1895009798463,582.4028707998805,582.5595793798566,582.5633477999363,582.6023946800269,582.6079082998913,583.3198755800258,s,1,582.6079082998913,583.3198755800258,583.330503199948,584.5562874800526,0.7015723001677543,701.5723001677543,EMOCONPILOT010,2021_Jan_04_1704,EmoCon_Pilot_120Hz,2020.2.4,120.24621606703984,
,,,,1,0,1,0,57,0,57,0,,,,,,,,,,,,,,,,,,,,,,,,,,,,,,,,,,,,,,,,,,,,,,57,12.0,f,040_y_f_s_a.jpg,sad,a,2,2,584.5623387999367,584.856287379982,584.8781905998476,584.893257579999,584.8941232999787,584.9323910798412,584.9325544000603,586.2423095798586,s,0,584.9325544000603,586.2423095798586,586.2506245998666,588.0480349799618,1.296727699926123,1296.727699926123,EMOCONPILOT010,2021_Jan_04_1704,EmoCon_Pilot_120Hz,2020.2.4,120.24621606703984,
,,,,1,0,1,0,58,0,58,0,,,,,,,,,,,,,,,,,,,,,,,,,,,,,,,,,,,,,,,,,,,,,,58,5.0,m,027_o_m_n_a.jpg,neutral,s,2,2,588.0534957998898,588.3480651800055,588.5647845000494,588.58173307986,588.5820956998505,588.6177254798822,588.6180505999364,589.644737679977,s,1,588.6180505999364,589.644737679977,589.6532397998963,590.6562900799327,1.0113930001389235,1011.3930001389235,EMOCONPILOT010,2021_Jan_04_1704,EmoCon_Pilot_120Hz,2020.2.4,120.24621606703984,
,,,,1,0,1,0,59,0,59,0,,,,,,,,,,,,,,,,,,,,,,,,,,,,,,,,,,,,,,,,,,,,,,59,4.0,m,016_y_m_s_a.jpg,sad,a,17,2,590.6593052998651,590.9563016800676,590.9726042998955,591.1080326798838,591.1111606999766,591.14928538003,591.1529180998914,591.9131817799062,a,1,591.1529180998914,591.9131817799062,591.9224185999483,593.064761579968,0.7483409999404103,748.3409999404103,EMOCONPILOT010,2021_Jan_04_1704,EmoCon_Pilot_120Hz,2020.2.4,120.24621606703984,
,,,,1,0,1,0,60,0,60,0,,,,,,,,,,,,,,,,,,,,,,,,,,,,,,,,,,,,,,,,,,,,,,60,5.0,m,027_o_m_n_a.jpg,neutral,s,17,2,593.0690911998972,593.3647885799874,593.5839066999033,593.7464377798606,593.7511660999153,593.791892779991,593.7968911998905,594.5968557798769,s,1,593.7968911998905,594.5968557798769,594.6043666999321,595.956417880021,0.7924206000752747,792.4206000752747,EMOCONPILOT010,2021_Jan_04_1704,EmoCon_Pilot_120Hz,2020.2.4,120.24621606703984,
,,,,1,0,1,0,61,0,61,0,,,,,,,,,,,,,,,,,,,,,,,,,,,,,,,,,,,,,,,,,,,,,,61,10.0,f,028_y_f_s_a.jpg,sad,a,2,2,595.9578762999736,596.2564590799157,596.2781972000375,596.2934060799889,596.2934518998954,596.332667079987,596.3327281998936,597.0576314800419,s,0,596.3327281998936,597.0576314800419,597.0638230000623,598.5065419799648,0.712796299951151,712.796299951151,EMOCONPILOT010,2021_Jan_04_1704,EmoCon_Pilot_120Hz,2020.2.4,120.24621606703984,
,,,,1,0,1,0,62,0,62,0,,,,,,,,,,,,,,,,,,,,,,,,,,,,,,,,,,,,,,,,,,,,,,62,3.0,m,013_y_m_n_a.jpg,neutral,s,17,2,598.510761299869,598.806557480013,599.0402797998395,599.2003208799288,599.2036029000301,599.244603279978,599.2498836999293,599.8598429800477,s,1,599.2498836999293,599.8598429800477,599.8717265999876,601.7649540798739,0.603491900023073,603.491900023073,EMOCONPILOT010,2021_Jan_04_1704,EmoCon_Pilot_120Hz,2020.2.4,120.24621606703984,
,,,,1,0,1,0,63,0,63,0,,,,,,,,,,,,,,,,,,,,,,,,,,,,,,,,,,,,,,,,,,,,,,63,4.0,m,016_y_m_s_a.jpg,sad,a,2,2,601.768807800021,602.0650599799119,602.0895775000099,602.1044733799063,602.1047330000438,602.141238079872,602.1426384998485,603.0684188799933,s,0,602.1426384998485,603.0684188799933,603.0757070998661,604.5400095798541,0.9187035001814365,918.7035001814365,EMOCONPILOT010,2021_Jan_04_1704,EmoCon_Pilot_120Hz,2020.2.4,120.24621606703984,
,,,,1,0,1,0,64,0,64,0,,,,,,,,,,,,,,,,,,,,,,,,,,,,,,,,,,,,,,,,,,,,,,64,12.0,f,040_y_f_h_a.jpg,happy,d,17,2,604.5438842999283,604.8400170798413,604.864246299956,605.00002228003,605.0030059998389,605.0413407799788,605.0433970000595,605.6452894799877,d,1,605.0433970000595,605.6452894799877,605.6531326998957,607.1401110799052,0.5860429999884218,586.0429999884218,EMOCONPILOT010,2021_Jan_04_1704,EmoCon_Pilot_120Hz,2020.2.4,120.24621606703984,
,,,,1,0,1,0,65,0,65,0,,,,,,,,,,,,,,,,,,,,,,,,,,,,,,,,,,,,,,,,,,,,,,65,5.0,m,027_o_m_n_a.jpg,neutral,s,2,2,607.1445740000345,607.4400777800474,607.6630521998741,607.6799397799186,607.6803886999842,607.7168491799384,607.7171287999954,609.3630889798515,None,0,607.7171287999954,609.3630889798515,609.3677246000152,610.5401800798718,,,EMOCONPILOT010,2021_Jan_04_1704,EmoCon_Pilot_120Hz,2020.2.4,120.24621606703984,
,,,,1,0,1,0,66,0,66,0,,,,,,,,,,,,,,,,,,,,,,,,,,,,,,,,,,,,,,,,,,,,,,66,6.0,m,033_o_m_s_a.jpg,sad,a,17,2,610.5455819999333,610.8402287799399,610.8642692998983,611.000114280032,611.0043780000415,611.0449987798929,611.0501083000563,611.6486721800175,a,1,611.0501083000563,611.6486721800175,611.660235399846,613.2485499798786,0.587325899861753,587.325899861753,EMOCONPILOT010,2021_Jan_04_1704,EmoCon_Pilot_120Hz,2020.2.4,120.24621606703984,
,,,,1,0,1,0,67,0,67,0,,,,,,,,,,,,,,,,,,,,,,,,,,,,,,,,,,,,,,,,,,,,,,67,6.0,m,033_o_m_h_a.jpg,happy,d,17,2,613.2523971998598,613.548551480053,613.565192699898,613.7002555800136,613.7040847998578,613.741501779994,613.7453594999388,614.1877521800343,d,1,613.7453594999388,614.1877521800343,614.1985202999786,615.4402690799907,0.42803840013220906,428.03840013220906,EMOCONPILOT010,2021_Jan_04_1704,EmoCon_Pilot_120Hz,2020.2.4,120.24621606703984,
,,,,1,0,1,0,68,0,68,0,,,,,,,,,,,,,,,,,,,,,,,,,,,,,,,,,,,,,,,,,,,,,,68,2.0,m,008_y_m_s_a.jpg,sad,a,2,2,615.4444525998551,615.7402608799748,615.990498600062,616.00729657989,616.0079025998712,616.0441292799078,616.0438045000192,617.7036212799139,None,0,616.0438045000192,617.7036212799139,617.7049793999176,618.7904120800085,,,EMOCONPILOT010,2021_Jan_04_1704,EmoCon_Pilot_120Hz,2020.2.4,120.24621606703984,
,,,,1,0,1,0,69,0,69,0,,,,,,,,,,,,,,,,,,,,,,,,,,,,,,,,,,,,,,,,,,,,,,69,1.0,m,004_o_m_n_a.jpg,neutral,s,17,2,618.7946033999324,619.0903246798553,619.2969961999916,619.4568784800358,619.4615807998925,619.5029782799538,619.5073989999946,620.3730464798864,s,1,619.5073989999946,620.3730464798864,620.3834837998729,622.3320929799229,0.8501246001105756,850.1246001105756,EMOCONPILOT010,2021_Jan_04_1704,EmoCon_Pilot_120Hz,2020.2.4,120.24621606703984,
,,,,1,0,1,0,70,0,70,0,,,,,,,,,,,,,,,,,,,,,,,,,,,,,,,,,,,,,,,,,,,,,,70,2.0,m,008_y_m_s_a.jpg,sad,a,2,2,622.337716100039,622.6320608798414,622.876369799953,622.8933682800271,622.8941915999167,622.9283287799917,622.9279149000067,624.1640352800023,a,1,622.9279149000067,624.1640352800023,624.1700983999763,625.7070471800398,1.2215122999623418,1221.5122999623418,EMOCONPILOT010,2021_Jan_04_1704,EmoCon_Pilot_120Hz,2020.2.4,120.24621606703984,
,,,,1,0,1,0,71,0,71,0,,,,,,,,,,,,,,,,,,,,,,,,,,,,,,,,,,,,,,,,,,,,,,71,11.0,f,030_o_f_n_a.jpg,neutral,s,17,2,625.7097243999597,626.0071255799849,626.2130005999934,626.3769082799554,626.3815301998984,626.4220849799458,626.4268562998623,626.8936279800255,s,1,626.4268562998623,626.8936279800255,626.9053421998397,628.7739263798576,0.45902090007439256,459.02090007439256,EMOCONPILOT010,2021_Jan_04_1704,EmoCon_Pilot_120Hz,2020.2.4,120.24621606703984,
,,,,1,0,1,0,72,0,72,0,,,,,,,,,,,,,,,,,,,,,,,,,,,,,,,,,,,,,,,,,,,,,,72,11.0,f,030_o_f_n_a.jpg,neutral,s,17,2,628.7786317998543,629.0739962798543,629.2829566998407,629.4438346798997,629.4485367999878,629.4878924798686,629.4931773999706,629.9892552800011,s,1,629.4931773999706,629.9892552800011,629.9975837999955,631.7573662798386,0.4881965999957174,488.1965999957174,EMOCONPILOT010,2021_Jan_04_1704,EmoCon_Pilot_120Hz,2020.2.4,120.24621606703984,
,,,,1,0,1,0,73,0,73,0,,,,,,,,,,,,,,,,,,,,,,,,,,,,,,,,,,,,,,,,,,,,,,73,2.0,m,008_y_m_s_a.jpg,sad,a,17,2,631.7628287998959,632.0573315799702,632.2857714998536,632.4440167800058,632.4488917000126,632.48963077995,632.4946893998422,632.9933480799664,a,1,632.4946893998422,632.9933480799664,633.0048791000154,634.0823325798847,0.4868604000657797,486.8604000657797,EMOCONPILOT010,2021_Jan_04_1704,EmoCon_Pilot_120Hz,2020.2.4,120.24621606703984,
,,,,1,0,1,0,74,0,74,0,,,,,,,,,,,,,,,,,,,,,,,,,,,,,,,,,,,,,,,,,,,,,,74,11.0,f,030_o_f_n_a.jpg,neutral,s,2,2,634.0884545999579,634.3823499800637,634.58232759987,634.5995006798767,634.5997456000187,634.6341626800131,634.6351431000512,635.4912836798467,s,1,634.6351431000512,635.4912836798467,635.5015817999374,636.6824567799922,0.8422953998669982,842.2953998669982,EMOCONPILOT010,2021_Jan_04_1704,EmoCon_Pilot_120Hz,2020.2.4,120.24621606703984,
,,,,1,0,1,0,75,0,75,0,,,,,,,,,,,,,,,,,,,,,,,,,,,,,,,,,,,,,,,,,,,,,,75,1.0,m,004_o_m_s_a.jpg,sad,a,2,2,636.6852456000634,636.982382080052,637.0042516000103,637.0197032799479,637.0207386999391,637.0586462798528,637.0584650000092,638.1574046800379,a,1,637.0584650000092,638.1574046800379,638.1654902999289,639.8740971798543,1.082862100098282,1082.862100098282,EMOCONPILOT010,2021_Jan_04_1704,EmoCon_Pilot_120Hz,2020.2.4,120.24621606703984,
,,,,1,0,1,0,76,0,76,0,,,,,,,,,,,,,,,,,,,,,,,,,,,,,,,,,,,,,,,,,,,,,,76,3.0,m,013_y_m_n_a.jpg,neutral,s,2,2,639.8780759000219,640.1742150799837,640.4197186999954,640.4370920800138,640.440084300004,640.4770260800142,640.4803954998497,641.2056912798434,s,1,640.4803954998497,641.2056912798434,641.2138193000574,642.4159337799065,0.7090523999650031,709.0523999650031,EMOCONPILOT010,2021_Jan_04_1704,EmoCon_Pilot_120Hz,2020.2.4,120.24621606703984,
,,,,1,0,1,0,77,0,77,0,,,,,,,,,,,,,,,,,,,,,,,,,,,,,,,,,,,,,,,,,,,,,,77,7.0,f,012_o_f_s_a.jpg,sad,a,2,2,642.4214602999855,642.71589408,642.7322887000628,642.7477216799743,642.7485921999905,642.783584479941,642.7850206999574,643.5814209799282,s,0,642.7850206999574,643.5814209799282,643.5897345999256,645.3909741798416,0.7803566001821309,780.3566001821309,EMOCONPILOT010,2021_Jan_04_1704,EmoCon_Pilot_120Hz,2020.2.4,120.24621606703984,
,,,,1,0,1,0,78,0,78,0,,,,,,,,,,,,,,,,,,,,,,,,,,,,,,,,,,,,,,,,,,,,,,78,12.0,f,040_y_f_n_a.jpg,neutral,s,17,2,645.3954590999056,645.6909535799641,645.908872500062,646.0726696799975,646.0772946998477,646.1168318800628,646.1219386998564,647.0859972799663,s,1,646.1219386998564,647.0859972799663,647.0974101000465,649.0076765799895,0.9476044001057744,947.6044001057744,EMOCONPILOT010,2021_Jan_04_1704,EmoCon_Pilot_120Hz,2020.2.4,120.24621606703984,
,,,,1,0,1,0,79,0,79,0,,,,,,,,,,,,,,,,,,,,,,,,,,,,,,,,,,,,,,,,,,,,,,79,6.0,m,033_o_m_h_a.jpg,happy,d,17,2,649.0123894999269,649.3076397799887,649.3311298000626,649.4676013798453,649.4708406999707,649.5088408798911,649.5134233999997,650.037219180027,d,1,649.5134233999997,650.037219180027,650.0485799999442,651.6910151799675,0.516039100009948,516.039100009948,EMOCONPILOT010,2021_Jan_04_1704,EmoCon_Pilot_120Hz,2020.2.4,120.24621606703984,
,,,,1,0,1,0,80,0,80,0,,,,,,,,,,,,,,,,,,,,,,,,,,,,,,,,,,,,,,,,,,,,,,80,2.0,m,008_y_m_n_a.jpg,neutral,s,2,2,651.693851100048,651.9909831800032,652.2301804998424,652.2468061798718,652.2472236000467,652.2837766800076,652.2838328999933,653.1337043798994,s,1,652.2838328999933,653.1337043798994,653.1441589000169,654.8744635798503,0.8337230000179261,833.7230000179261,EMOCONPILOT010,2021_Jan_04_1704,EmoCon_Pilot_120Hz,2020.2.4,120.24621606703984,
,,,,1,0,1,0,81,0,81,0,,,,,,,,,,,,,,,,,,,,,,,,,,,,,,,,,,,,,,,,,,,,,,81,12.0,f,040_y_f_h_a.jpg,happy,d,17,2,654.8797267999034,655.1744622800034,655.1885855998844,655.3260530799162,655.3290494000539,655.3674259800464,655.3704971000552,655.7953798798844,d,1,655.3704971000552,655.7953798798844,655.8050887999125,657.5410322798416,0.41099860006943345,410.99860006943345,EMOCONPILOT010,2021_Jan_04_1704,EmoCon_Pilot_120Hz,2020.2.4,120.24621606703984,
,,,,1,0,1,0,82,0,82,0,,,,,,,,,,,,,,,,,,,,,,,,,,,,,,,,,,,,,,,,,,,,,,82,9.0,f,021_o_f_h_a.jpg,happy,d,2,2,657.5438584999647,657.8411850798875,658.0641806998756,658.081369380001,658.0818677998614,658.1173974799458,658.1172881999519,658.8310093800537,d,1,658.1172881999519,658.8310093800537,658.8414076999761,660.6329475799575,0.7041688999161124,704.1688999161124,EMOCONPILOT010,2021_Jan_04_1704,EmoCon_Pilot_120Hz,2020.2.4,120.24621606703984,
,,,,1,0,1,0,83,0,83,0,,,,,,,,,,,,,,,,,,,,,,,,,,,,,,,,,,,,,,,,,,,,,,83,6.0,m,033_o_m_h_a.jpg,happy,d,17,2,660.637327299919,660.9329744798597,660.9564558998682,661.0929419798777,661.0956359999254,661.1342295799404,661.1360067999922,661.5600372799672,d,1,661.1360067999922,661.5600372799672,661.5683174000587,662.9829035799485,0.4133486000355333,413.3486000355333,EMOCONPILOT010,2021_Jan_04_1704,EmoCon_Pilot_120Hz,2020.2.4,120.24621606703984,
,,,,1,0,1,0,84,0,84,0,,,,,,,,,,,,,,,,,,,,,,,,,,,,,,,,,,,,,,,,,,,,,,84,2.0,m,008_y_m_n_a.jpg,neutral,s,17,2,662.987123799976,663.2830141799059,663.5184471998364,663.6863949799445,663.6910160998814,663.7317904799711,663.7370039999951,664.2454908799846,s,1,663.7370039999951,664.2454908799846,664.2568695999216,665.5913338798564,0.4925637999549508,492.5637999549508,EMOCONPILOT010,2021_Jan_04_1704,EmoCon_Pilot_120Hz,2020.2.4,120.24621606703984,
,,,,1,0,1,0,85,0,85,0,,,,,,,,,,,,,,,,,,,,,,,,,,,,,,,,,,,,,,,,,,,,,,85,10.0,f,028_y_f_n_a.jpg,neutral,s,17,2,665.5955337998457,665.8913286798634,666.094782799948,666.2527034799568,666.2565758998971,666.297231979901,666.302466099849,666.7206379799172,s,1,666.302466099849,666.7206379799172,666.727180399932,668.0497050799895,0.4068413998465985,406.8413998465985,EMOCONPILOT010,2021_Jan_04_1704,EmoCon_Pilot_120Hz,2020.2.4,120.24621606703984,
,,,,1,0,1,0,86,0,86,0,,,,,,,,,,,,,,,,,,,,,,,,,,,,,,,,,,,,,,,,,,,,,,86,6.0,m,033_o_m_h_a.jpg,happy,d,2,2,668.0528726999182,668.3496482798364,668.3740757000633,668.3889343799092,668.3890058000106,668.4258894799277,668.4270752000157,669.0003696798813,d,1,668.4270752000157,669.0003696798813,669.0075991000049,670.424868979957,0.5622715998906642,562.2715998906642,EMOCONPILOT010,2021_Jan_04_1704,EmoCon_Pilot_120Hz,2020.2.4,120.24621606703984,
,,,,1,0,1,0,87,0,87,0,,,,,,,,,,,,,,,,,,,,,,,,,,,,,,,,,,,,,,,,,,,,,,87,5.0,m,027_o_m_s_a.jpg,sad,a,17,2,670.4304331999738,670.7247959799133,670.7371290998999,670.8679869798943,670.8715808000416,670.909264979884,670.9120274998713,671.5864514799323,a,1,670.9120274998713,671.5864514799323,671.5922888999339,673.0497723799199,0.6612615999765694,661.2615999765694,EMOCONPILOT010,2021_Jan_04_1704,EmoCon_Pilot_120Hz,2020.2.4,120.24621606703984,
,,,,1,0,1,0,88,0,88,0,,,,,,,,,,,,,,,,,,,,,,,,,,,,,,,,,,,,,,,,,,,,,,88,7.0,f,012_o_f_s_a.jpg,sad,a,17,2,673.0527389000636,673.3497430798598,673.3697510999627,673.501496279845,673.5051008998416,673.5427459799685,673.5463767000474,674.2412545799743,a,1,673.5463767000474,674.2412545799743,674.2482654999476,675.8581967798527,0.6829756000079215,682.9756000079215,EMOCONPILOT010,2021_Jan_04_1704,EmoCon_Pilot_120Hz,2020.2.4,120.24621606703984,
,,,,1,0,1,0,89,0,89,0,,,,,,,,,,,,,,,,,,,,,,,,,,,,,,,,,,,,,,,,,,,,,,89,2.0,m,008_y_m_h_a.jpg,happy,d,2,2,675.862453199923,676.1582553798798,676.1855231998488,676.2009596799035,676.2025391999632,676.2398931798525,676.2413009000011,677.6041150798555,d,1,676.2413009000011,677.6041150798555,677.6148190998938,679.1499822798651,1.3561480999924242,1356.1480999924242,EMOCONPILOT010,2021_Jan_04_1704,EmoCon_Pilot_120Hz,2020.2.4,120.24621606703984,
,,,,1,0,1,0,90,0,90,0,,,,,,,,,,,,,,,,,,,,,,,,,,,,,,,,,,,,,,,,,,,,,,90,7.0,f,012_o_f_h_a.jpg,happy,d,2,2,679.1560666998848,679.4499799800105,679.4711408999283,679.4869659799151,679.4876836000476,679.5231409799308,679.5231113999616,680.1729015798774,d,1,679.5231113999616,680.1729015798774,680.1809562998824,681.4082427800167,0.6344006999861449,634.4006999861449,EMOCONPILOT010,2021_Jan_04_1704,EmoCon_Pilot_120Hz,2020.2.4,120.24621606703984,
,,,,1,0,1,0,91,0,91,0,,,,,,,,,,,,,,,,,,,,,,,,,,,,,,,,,,,,,,,,,,,,,,91,10.0,f,028_y_f_s_a.jpg,sad,a,2,2,681.4112084999215,681.7083032799419,681.7284270999953,681.7438440800179,681.7452908998821,681.7799798799679,681.7813001999166,682.725114580011,s,0,681.7813001999166,682.725114580011,682.7356370000634,684.2501883800142,0.9281640998087823,928.1640998087823,EMOCONPILOT010,2021_Jan_04_1704,EmoCon_Pilot_120Hz,2020.2.4,120.24621606703984,
,,,,1,0,1,0,92,0,92,0,,,,,,,,,,,,,,,,,,,,,,,,,,,,,,,,,,,,,,,,,,,,,,92,12.0,f,040_y_f_s_a.jpg,sad,a,2,2,684.2556848998647,684.5501613798551,684.5717412000522,684.5868029799312,684.5875349999405,684.6261651800014,684.627879000036,685.2791844799649,s,0,684.627879000036,685.2791844799649,685.2884712999221,686.7751347799785,0.6414970001205802,641.4970001205802,EMOCONPILOT010,2021_Jan_04_1704,EmoCon_Pilot_120Hz,2020.2.4,120.24621606703984,
,,,,1,0,1,0,93,0,93,0,,,,,,,,,,,,,,,,,,,,,,,,,,,,,,,,,,,,,,,,,,,,,,93,2.0,m,008_y_m_n_a.jpg,neutral,s,2,2,686.7813744000159,687.0751967800315,687.327821200015,687.3446991799865,687.3449989999644,687.3801114798989,687.3797313999385,688.4526060798671,s,1,687.3797313999385,688.4526060798671,688.4614146999083,689.9751368800644,1.065732599934563,1065.732599934563,EMOCONPILOT010,2021_Jan_04_1704,EmoCon_Pilot_120Hz,2020.2.4,120.24621606703984,
,,,,1,0,1,0,94,0,94,0,,,,,,,,,,,,,,,,,,,,,,,,,,,,,,,,,,,,,,,,,,,,,,94,11.0,f,030_o_f_s_a.jpg,sad,a,17,2,689.9778531999327,690.2751617799513,690.4788325999398,690.6383126799483,690.6423800999764,690.6795464800671,690.6836999999359,691.4203154798597,a,1,690.6836999999359,691.4203154798597,691.4318252999801,693.4169459799305,0.7217219001613557,721.7219001613557,EMOCONPILOT010,2021_Jan_04_1704,EmoCon_Pilot_120Hz,2020.2.4,120.24621606703984,
