trials_example.thisRepN,trials_example.thisTrialN,trials_example.thisN,trials_example.thisIndex,block.thisRepN,block.thisTrialN,block.thisN,block.thisIndex,trials_study.thisRepN,trials_study.thisTrialN,trials_study.thisN,trials_study.thisIndex,text_welcome.started,text_welcome.stopped,text_intro.started,text_intro.stopped,key_resp_intro.keys,key_resp_intro.started,key_resp_intro.stopped,text_intro2.started,text_intro2.stopped,key_resp_intro2.keys,key_resp_intro2.rt,key_resp_intro2.started,key_resp_intro2.stopped,example trial,personPrimeExample,genderPrimeExample,primeExample,emotionPrimeExample,corrAnsPrimeExample,example mask time,fix300_example.started,fix300_example.stopped,image_primer_example.started,image_primer_example.stopped,scrambled.started,scrambled.stopped,text_response_example.started,text_response_example.stopped,key_resp_example.keys,key_resp_example.corr,key_resp_example.started,key_resp_example.stopped,Jitter_example.started,Jitter_example.stopped,key_resp_example.rt,key_resp_example.rt in ms,text_start.started,text_start.stopped,text_pause.started,text_pause.stopped,key_resp_pause.keys,key_resp_pause.rt,key_resp_pause.rt in ms,key_resp_pause.started,key_resp_pause.stopped,study trial,personPrimeStudy,genderPrimeStudy,primeStudy,emotionPrimeStudy,corrAnsPrimeStudy,study mask time,Block,fix300_study.started,fix300_study.stopped,image_primer_study.started,image_primer_study.stopped,scrambled_study.started,scrambled_study.stopped,text_response_study.started,text_response_study.stopped,key_resp_study.keys,key_resp_study.corr,key_resp_study.rt,key_resp_study.rt in ms,key_resp_study.started,key_resp_study.stopped,Jitter_study.started,Jitter_study.stopped,participant,date,expName,psychopyVersion,frameRate,
,,,,,,,,,,,,45.26998980017379,48.25486908010207,48.259086000034586,53.70554998000152,None,48.259086000034586,53.70554998000152,,,,,,,,,,,,,,,,,,,,,,,,,,,,,,,,,,,,,,,,,,,,,,,,,,,,,,,,,,,,,,,EMOCONPILOT020,2021_Jan_04_1406,EmoCon_Pilot_120Hz,2020.2.4,120.20531077879798,
,,,,,,,,,,,,,,,,,,,53.706730500096455,56.59112208005972,d,2.8705321999732405,53.706730500096455,56.59112208005972,,,,,,,,,,,,,,,,,,,,,,,,,,,,,,,,,,,,,,,,,,,,,,,,,,,,,,,,,EMOCONPILOT020,2021_Jan_04_1406,EmoCon_Pilot_120Hz,2020.2.4,120.20531077879798,
0,0,0,0,,,,,,,,,,,,,,,,,,,,,,0,3.0,f,1113_y_f_s_a.jpg,sad,a,3,56.59552740002982,56.88821408008225,57.1186210999731,57.14544008015655,57.15375300007872,57.18941578008234,57.19009719998576,58.788381880102676,None,0,57.19009719998576,58.788381880102676,58.790053399978206,59.78834228003397,,,,,,,,,,,,,,,,,,,,,,,,,,,,,,,,,,,,EMOCONPILOT020,2021_Jan_04_1406,EmoCon_Pilot_120Hz,2020.2.4,120.20531077879798,
1,0,1,0,,,,,,,,,,,,,,,,,,,,,,1,1.0,m,1111_m_m_s_a.jpg,sad,a,3,59.79037900012918,60.08835288016125,60.28778050001711,60.31320628006942,60.31408440019004,60.34935088008642,60.34899220010266,61.89006138006225,None,0,60.34899220010266,61.89006138006225,61.89063310017809,63.78003357998095,,,,,,,,,,,,,,,,,,,,,,,,,,,,,,,,,,,,EMOCONPILOT020,2021_Jan_04_1406,EmoCon_Pilot_120Hz,2020.2.4,120.20531077879798,
2,0,2,0,,,,,,,,,,,,,,,,,,,,,,2,3.0,f,1113_y_f_n_a.jpg,neutral,s,17,63.78106370009482,64.07998418011702,64.27609840012155,64.43245648005977,64.43517040018924,64.47440498014912,64.4767548001837,65.44877367997542,s,1,64.4767548001837,65.44877367997542,65.45143700018525,66.4969017800875,0.9564473999198526,956.4473999198526,,,,,,,,,,,,,,,,,,,,,,,,,,,,,,,,,,EMOCONPILOT020,2021_Jan_04_1406,EmoCon_Pilot_120Hz,2020.2.4,120.20531077879798,
3,0,3,0,,,,,,,,,,,,,,,,,,,,,,3,2.0,f,1112_m_f_h_a.jpg,happy,d,17,66.49859480001032,66.79681768007576,66.99581730016507,67.1561638800893,67.1588583001867,67.19894968015142,67.20187420002185,67.82963378001004,d,1,67.20187420002185,67.82963378001004,67.83074820018373,68.84689318011515,0.6152094001881778,615.2094001881778,,,,,,,,,,,,,,,,,,,,,,,,,,,,,,,,,,EMOCONPILOT020,2021_Jan_04_1406,EmoCon_Pilot_120Hz,2020.2.4,120.20531077879798,
4,0,4,0,,,,,,,,,,,,,,,,,,,,,,4,2.0,f,1112_m_f_n_a.jpg,neutral,s,17,68.84835240012035,69.1468784801662,69.34710280015133,69.50858298009261,69.51121320016682,69.55219228002242,69.55539220012724,71.22101637995802,None,0,69.55539220012724,71.22101637995802,71.22190120001324,73.03860018001869,,,,,,,,,,,,,,,,,,,,,,,,,,,,,,,,,,,,EMOCONPILOT020,2021_Jan_04_1406,EmoCon_Pilot_120Hz,2020.2.4,120.20531077879798,
,,,,0,0,0,0,0,0,0,0,,,,,,,,,,,,,,,,,,,,,,,,,,,,,,,,,,,,,73.08465600013733,76.07220308012329,76.07561450009234,82.34052418004721,d,6.253618099959567,6253.618099959567,76.07561450009234,82.34052418004721,0,8.0,f,019_m_f_s_a.jpg,sad,a,17,1,82.34558670013212,82.6387867801357,82.8945808999706,83.06441927999258,83.06948240008205,83.1105511800386,83.1184523999691,83.92797368015162,a,1,0.7947845999151468,794.7845999151468,83.1184523999691,83.92797368015162,83.9367143001873,85.18049238012172,EMOCONPILOT020,2021_Jan_04_1406,EmoCon_Pilot_120Hz,2020.2.4,120.20531077879798,
,,,,0,0,0,0,1,0,1,0,,,,,,,,,,,,,,,,,,,,,,,,,,,,,,,,,,,,,,,,,,,,,,1,6.0,m,033_o_m_n_a.jpg,neutral,s,3,1,85.18559910007752,85.4805160799995,85.67923500016332,85.70542528009973,85.70598700013943,85.74079508003778,85.74106590007432,86.85870438017882,s,1,1.1082562000956386,1108.2562000956386,85.74106590007432,86.85870438017882,86.8688835001085,88.71397007997147,EMOCONPILOT020,2021_Jan_04_1406,EmoCon_Pilot_120Hz,2020.2.4,120.20531077879798,
,,,,0,0,0,0,2,0,2,0,,,,,,,,,,,,,,,,,,,,,,,,,,,,,,,,,,,,,,,,,,,,,,2,2.0,m,008_y_m_s_a.jpg,sad,a,3,1,88.71939880005084,89.01406908007338,89.24934430001304,89.27473748004995,89.2747909000609,89.31008218014613,89.31064030015841,90.91200608010404,None,0,,,89.31064030015841,90.91200608010404,90.91695640003309,92.75568868005648,EMOCONPILOT020,2021_Jan_04_1406,EmoCon_Pilot_120Hz,2020.2.4,120.20531077879798,
,,,,0,0,0,0,3,0,3,0,,,,,,,,,,,,,,,,,,,,,,,,,,,,,,,,,,,,,,,,,,,,,,3,11.0,f,030_o_f_h_a.jpg,happy,d,17,1,92.76117970002815,93.0557164800819,93.25420100009069,93.42078728014603,93.42419920000248,93.46468888008967,93.46988490014337,93.96803638008423,d,1,0.4834196998272091,483.4196998272091,93.46988490014337,93.96803638008423,93.98116440000013,95.68076738012023,EMOCONPILOT020,2021_Jan_04_1406,EmoCon_Pilot_120Hz,2020.2.4,120.20531077879798,
,,,,0,0,0,0,4,0,4,0,,,,,,,,,,,,,,,,,,,,,,,,,,,,,,,,,,,,,,,,,,,,,,4,11.0,f,030_o_f_s_a.jpg,sad,a,3,1,95.68588680005632,95.98085288000293,96.18204470002092,96.20896877995692,96.20990310003981,96.24483928009867,96.24420129996724,97.95988797997124,None,0,,,96.24420129996724,97.95988797997124,97.9669234000612,99.56412828010507,EMOCONPILOT020,2021_Jan_04_1406,EmoCon_Pilot_120Hz,2020.2.4,120.20531077879798,
,,,,0,0,0,0,5,0,5,0,,,,,,,,,,,,,,,,,,,,,,,,,,,,,,,,,,,,,,,,,,,,,,5,11.0,f,030_o_f_s_a.jpg,sad,a,3,1,99.56816440005787,99.86414098013192,100.06724780006334,100.09340738011524,100.09369000000879,100.12827957998961,100.12767570000142,101.71000558016821,None,0,,,100.12767570000142,101.71000558016821,101.71490929997526,103.68933398015797,EMOCONPILOT020,2021_Jan_04_1406,EmoCon_Pilot_120Hz,2020.2.4,120.20531077879798,
,,,,0,0,0,0,6,0,6,0,,,,,,,,,,,,,,,,,,,,,,,,,,,,,,,,,,,,,,,,,,,,,,6,5.0,m,027_o_m_n_a.jpg,neutral,s,3,1,103.69329109997489,103.98923188000917,104.19735150015913,104.22285588011145,104.22630270011723,104.26724888007156,104.27228839998133,105.16518968013115,s,1,0.8809452001005411,880.9452001005411,104.27228839998133,105.16518968013115,105.173667000141,106.1725650801789,EMOCONPILOT020,2021_Jan_04_1406,EmoCon_Pilot_120Hz,2020.2.4,120.20531077879798,
,,,,0,0,0,0,7,0,7,0,,,,,,,,,,,,,,,,,,,,,,,,,,,,,,,,,,,,,,,,,,,,,,7,8.0,f,019_m_f_n_a.jpg,neutral,s,17,1,106.17551199998707,106.4725775799714,106.71337989997119,106.88013258012943,106.88346080016345,106.92440547998994,106.92933119996451,108.43500318001024,s,1,1.4959484001155943,1495.9484001155943,106.92933119996451,108.43500318001024,108.44672300014645,109.61447367998771,EMOCONPILOT020,2021_Jan_04_1406,EmoCon_Pilot_120Hz,2020.2.4,120.20531077879798,
,,,,0,0,0,0,8,0,8,0,,,,,,,,,,,,,,,,,,,,,,,,,,,,,,,,,,,,,,,,,,,,,,8,5.0,m,027_o_m_h_a.jpg,happy,d,17,1,109.6208190000616,109.91443208018318,110.12741030007601,110.29811308016069,110.30269260006025,110.34290177999064,110.34733820008114,110.78455837997608,d,1,0.43019960005767643,430.19960005767643,110.34733820008114,110.78455837997608,110.79644890013151,112.25624617999419,EMOCONPILOT020,2021_Jan_04_1406,EmoCon_Pilot_120Hz,2020.2.4,120.20531077879798,
,,,,0,0,0,0,9,0,9,0,,,,,,,,,,,,,,,,,,,,,,,,,,,,,,,,,,,,,,,,,,,,,,9,8.0,f,019_m_f_n_a.jpg,neutral,s,3,1,112.26247390010394,112.55619868002832,112.80123890005052,112.82770137996413,112.82868820009753,112.86561848009005,112.86581440013833,113.8111670801416,s,1,0.9355063000693917,935.5063000693917,112.86581440013833,113.8111670801416,113.82243439997546,115.4395387800876,EMOCONPILOT020,2021_Jan_04_1406,EmoCon_Pilot_120Hz,2020.2.4,120.20531077879798,
,,,,0,0,0,0,10,0,10,0,,,,,,,,,,,,,,,,,,,,,,,,,,,,,,,,,,,,,,,,,,,,,,10,11.0,f,030_o_f_h_a.jpg,happy,d,3,1,115.44341180007905,115.73954657996073,115.94737179996446,115.9735713800881,115.97354559996165,116.0081656800583,116.00783630018122,116.5918724801857,d,1,0.5696901998016983,569.6901998016983,116.00783630018122,116.5918724801857,116.60141630005091,118.1980322801508,EMOCONPILOT020,2021_Jan_04_1406,EmoCon_Pilot_120Hz,2020.2.4,120.20531077879798,
,,,,0,0,0,0,11,0,11,0,,,,,,,,,,,,,,,,,,,,,,,,,,,,,,,,,,,,,,,,,,,,,,11,3.0,m,013_y_m_s_a.jpg,sad,a,3,1,118.2036184000317,118.49807748007588,118.58720390009694,118.60923718004487,118.60958340018988,118.6491668801289,118.65085149998777,120.3740126799792,None,0,,,118.65085149998777,120.3740126799792,120.381003000075,121.73129157996736,EMOCONPILOT020,2021_Jan_04_1406,EmoCon_Pilot_120Hz,2020.2.4,120.20531077879798,
,,,,0,0,0,0,12,0,12,0,,,,,,,,,,,,,,,,,,,,,,,,,,,,,,,,,,,,,,,,,,,,,,12,12.0,f,040_y_f_n_a.jpg,neutral,s,17,1,121.73529470013455,122.03129808017984,122.25452590011992,122.40857038013637,122.41346479998901,122.4546970801428,122.45905690011568,123.82420247998088,a,0,1.3584038999397308,1358.4038999397308,122.45905690011568,123.82420247998088,123.83288330002688,125.73972738017328,EMOCONPILOT020,2021_Jan_04_1406,EmoCon_Pilot_120Hz,2020.2.4,120.20531077879798,
,,,,0,0,0,0,13,0,13,0,,,,,,,,,,,,,,,,,,,,,,,,,,,,,,,,,,,,,,,,,,,,,,13,12.0,f,040_y_f_h_a.jpg,happy,d,3,1,125.74471540004015,126.03977668001316,126.0596566000022,126.08230418008752,126.08318249997683,126.11810498004779,126.11772139999084,126.74912718003615,d,1,0.6195251001045108,619.5251001045108,126.11772139999084,126.74912718003615,126.75630680005997,128.28155788006262,EMOCONPILOT020,2021_Jan_04_1406,EmoCon_Pilot_120Hz,2020.2.4,120.20531077879798,
,,,,0,0,0,0,14,0,14,0,,,,,,,,,,,,,,,,,,,,,,,,,,,,,,,,,,,,,,,,,,,,,,14,7.0,f,012_o_f_h_a.jpg,happy,d,17,1,128.2870644000359,128.5815396799706,128.6012536000926,128.7330536799971,128.73645330010913,128.7745277799666,128.7774923001416,129.17871898012237,d,1,0.39180040010251105,391.80040010251105,128.7774923001416,129.17871898012237,129.18856610008515,130.98987568002195,EMOCONPILOT020,2021_Jan_04_1406,EmoCon_Pilot_120Hz,2020.2.4,120.20531077879798,
,,,,0,0,0,0,15,0,15,0,,,,,,,,,,,,,,,,,,,,,,,,,,,,,,,,,,,,,,,,,,,,,,15,9.0,f,021_o_f_n_a.jpg,neutral,s,17,1,130.99385400000028,131.28984657996335,131.51405370002612,131.67548848008738,131.67901229998097,131.7199352799915,131.72518770000897,132.4933411799837,s,1,0.7561184999067336,756.1184999067336,131.72518770000897,132.4933411799837,132.5018502001185,134.26494238008746,EMOCONPILOT020,2021_Jan_04_1406,EmoCon_Pilot_120Hz,2020.2.4,120.20531077879798,
,,,,0,0,0,0,16,0,16,0,,,,,,,,,,,,,,,,,,,,,,,,,,,,,,,,,,,,,,,,,,,,,,16,10.0,f,028_y_f_s_a.jpg,sad,a,17,1,134.2689740001224,134.5649584801402,134.60407200013287,134.7415828799829,134.74355330015533,134.7829407799989,134.7856942000799,135.56019028015436,a,1,0.7676778000313789,767.6778000313789,134.7856942000799,135.56019028015436,135.56881750002503,136.94820957998746,EMOCONPILOT020,2021_Jan_04_1406,EmoCon_Pilot_120Hz,2020.2.4,120.20531077879798,
,,,,0,0,0,0,17,0,17,0,,,,,,,,,,,,,,,,,,,,,,,,,,,,,,,,,,,,,,,,,,,,,,17,10.0,f,028_y_f_h_a.jpg,happy,d,3,1,136.95110970013775,137.24834688003176,137.26647870009765,137.2892723800149,137.2901342001278,137.32656708005817,137.32649180013686,137.9660680801142,d,1,0.626723799854517,626.723799854517,137.32649180013686,137.9660680801142,137.97194760013372,139.62340118009598,EMOCONPILOT020,2021_Jan_04_1406,EmoCon_Pilot_120Hz,2020.2.4,120.20531077879798,
,,,,0,0,0,0,18,0,18,0,,,,,,,,,,,,,,,,,,,,,,,,,,,,,,,,,,,,,,,,,,,,,,18,9.0,f,021_o_f_h_a.jpg,happy,d,17,1,139.6237706001848,139.9234175800346,140.14540260005742,140.30257017998957,140.30598820000887,140.34416838008912,140.34727490018122,140.73806998012589,d,1,0.3741891998797655,374.1891998797655,140.34727490018122,140.73806998012589,140.74739890010096,142.37341797999107,EMOCONPILOT020,2021_Jan_04_1406,EmoCon_Pilot_120Hz,2020.2.4,120.20531077879798,
,,,,0,0,0,0,19,0,19,0,,,,,,,,,,,,,,,,,,,,,,,,,,,,,,,,,,,,,,,,,,,,,,19,6.0,m,033_o_m_h_a.jpg,happy,d,3,1,142.37847690004855,142.67341658002698,142.69244230003096,142.71547708003783,142.71592080011033,142.75225078007207,142.75393870007247,143.2951635801699,d,1,0.5272871998604387,527.2871998604387,142.75393870007247,143.2951635801699,143.3026899001561,145.14011828014628,EMOCONPILOT020,2021_Jan_04_1406,EmoCon_Pilot_120Hz,2020.2.4,120.20531077879798,
,,,,0,0,0,0,20,0,20,0,,,,,,,,,,,,,,,,,,,,,,,,,,,,,,,,,,,,,,,,,,,,,,20,1.0,m,004_o_m_h_a.jpg,happy,d,3,1,145.14373879996128,145.44016577997246,145.64671140001155,145.6720651799813,145.67227550013922,145.70802908013576,145.70809289999306,146.17707478017547,d,1,0.4614124000072479,461.4124000072479,145.70809289999306,146.17707478017547,146.1878929999657,147.50689068012872,EMOCONPILOT020,2021_Jan_04_1406,EmoCon_Pilot_120Hz,2020.2.4,120.20531077879798,
,,,,0,0,0,0,21,0,21,0,,,,,,,,,,,,,,,,,,,,,,,,,,,,,,,,,,,,,,,,,,,,,,21,2.0,m,008_y_m_s_a.jpg,sad,a,3,1,147.51288080005907,147.80697097997182,148.03666150011122,148.06205238001422,148.06270710006356,148.09964007996024,148.10061750002205,149.18302218005994,a,1,1.068752999883145,1068.752999883145,148.10061750002205,149.18302218005994,149.19453179999255,150.99023847999052,EMOCONPILOT020,2021_Jan_04_1406,EmoCon_Pilot_120Hz,2020.2.4,120.20531077879798,
,,,,0,0,0,0,22,0,22,0,,,,,,,,,,,,,,,,,,,,,,,,,,,,,,,,,,,,,,,,,,,,,,22,4.0,m,016_y_m_s_a.jpg,sad,a,3,1,150.99403000017628,151.29036148004235,151.31052900012583,151.3333220800385,151.33383300015703,151.36808628002183,151.36791060003452,152.23957188003698,a,1,0.8574781999923289,857.4781999923289,151.36791060003452,152.23957188003698,152.25083020003513,153.71542898002082,EMOCONPILOT020,2021_Jan_04_1406,EmoCon_Pilot_120Hz,2020.2.4,120.20531077879798,
,,,,0,0,0,0,23,0,23,0,,,,,,,,,,,,,,,,,,,,,,,,,,,,,,,,,,,,,,,,,,,,,,23,8.0,f,019_m_f_h_a.jpg,happy,d,17,1,153.72143450006843,154.01547748008744,154.0353441000916,154.1671253800858,154.17052659997717,154.20941898012535,154.2124904000666,154.5921673799865,d,1,0.3728432999923825,372.8432999923825,154.2124904000666,154.5921673799865,154.59976720018312,155.71551018017345,EMOCONPILOT020,2021_Jan_04_1406,EmoCon_Pilot_120Hz,2020.2.4,120.20531077879798,
,,,,0,0,0,0,24,0,24,0,,,,,,,,,,,,,,,,,,,,,,,,,,,,,,,,,,,,,,,,,,,,,,24,8.0,f,019_m_f_h_a.jpg,happy,d,17,1,155.72112830006517,156.01541118016468,156.03171310015023,156.16702848016286,156.17073939996772,156.20890348004178,156.21214960003272,156.5309338799678,d,1,0.309172400040552,309.172400040552,156.21214960003272,156.5309338799678,156.53930629999377,157.95710998000578,EMOCONPILOT020,2021_Jan_04_1406,EmoCon_Pilot_120Hz,2020.2.4,120.20531077879798,
,,,,0,0,0,0,25,0,25,0,,,,,,,,,,,,,,,,,,,,,,,,,,,,,,,,,,,,,,,,,,,,,,25,4.0,m,016_y_m_n_a.jpg,neutral,s,17,1,157.96114749996923,158.25705898012967,158.5059691001661,158.66193158011885,158.66663510003127,158.7087696799543,158.71390400012024,159.45748678008096,s,1,0.7274379001464695,727.4379001464695,158.71390400012024,159.45748678008096,159.46428110008128,161.30724208005705,EMOCONPILOT020,2021_Jan_04_1406,EmoCon_Pilot_120Hz,2020.2.4,120.20531077879798,
,,,,0,0,0,0,26,0,26,0,,,,,,,,,,,,,,,,,,,,,,,,,,,,,,,,,,,,,,,,,,,,,,26,4.0,m,016_y_m_h_a.jpg,happy,d,17,1,161.31338040018454,161.6071150800679,161.62153130001388,161.7590839801822,161.7636546001304,161.8043296799995,161.80974160018377,162.16532138008625,d,1,0.34359299996867776,343.59299996867776,161.80974160018377,162.16532138008625,162.1768651001621,163.18232928002254,EMOCONPILOT020,2021_Jan_04_1406,EmoCon_Pilot_120Hz,2020.2.4,120.20531077879798,
,,,,0,0,0,0,27,0,27,0,,,,,,,,,,,,,,,,,,,,,,,,,,,,,,,,,,,,,,,,,,,,,,27,8.0,f,019_m_f_h_a.jpg,happy,d,3,1,163.18785980017856,163.48233468011023,163.5073869000189,163.5301230800804,163.5306423001457,163.56665348000826,163.5681605001446,165.18156708003954,None,0,,,163.5681605001446,165.18156708003954,165.18541080015711,166.63221908006818,EMOCONPILOT020,2021_Jan_04_1406,EmoCon_Pilot_120Hz,2020.2.4,120.20531077879798,
,,,,0,0,0,0,28,0,28,0,,,,,,,,,,,,,,,,,,,,,,,,,,,,,,,,,,,,,,,,,,,,,,28,8.0,f,019_m_f_s_a.jpg,sad,a,3,1,166.6363594001159,166.9322569800541,167.19097100012004,167.21851248010063,167.22211360000074,167.26296968008393,167.26815939997323,167.96082608001308,a,1,0.6853751000016928,685.3751000016928,167.26815939997323,167.96082608001308,167.9726048000157,169.00736078009942,EMOCONPILOT020,2021_Jan_04_1406,EmoCon_Pilot_120Hz,2020.2.4,120.20531077879798,
,,,,0,0,0,0,29,0,29,0,,,,,,,,,,,,,,,,,,,,,,,,,,,,,,,,,,,,,,,,,,,,,,29,10.0,f,028_y_f_n_a.jpg,neutral,s,3,1,169.01112670009024,169.30730748008938,169.50852650008164,169.53437737999485,169.53414810006507,169.56883317995818,169.56967680016533,170.4159778800793,s,1,0.8315040001180023,831.5040001180023,169.56967680016533,170.4159778800793,170.4196006001439,172.09078648006545,EMOCONPILOT020,2021_Jan_04_1406,EmoCon_Pilot_120Hz,2020.2.4,120.20531077879798,
,,,,0,0,0,0,30,0,30,0,,,,,,,,,,,,,,,,,,,,,,,,,,,,,,,,,,,,,,,,,,,,,,30,12.0,f,040_y_f_n_a.jpg,neutral,s,3,1,172.0949236000888,172.390728080133,172.61695250007324,172.64242848004216,172.64255870017223,172.67853588000872,172.6783057001885,173.41105218017475,s,1,0.7230289001017809,723.0289001017809,172.6783057001885,173.41105218017475,173.4204963000957,175.31578878005968,EMOCONPILOT020,2021_Jan_04_1406,EmoCon_Pilot_120Hz,2020.2.4,120.20531077879798,
,,,,0,0,0,0,31,0,31,0,,,,,,,,,,,,,,,,,,,,,,,,,,,,,,,,,,,,,,,,,,,,,,31,5.0,m,027_o_m_n_a.jpg,neutral,s,3,1,175.31984980008565,175.6157932800241,175.83674539998174,175.86272947997787,175.86308680009097,175.90040007997305,175.90035590017214,176.61929318001495,s,1,0.7089432999491692,708.9432999491692,175.90035590017214,176.61929318001495,176.62666010018438,178.45755598014222,EMOCONPILOT020,2021_Jan_04_1406,EmoCon_Pilot_120Hz,2020.2.4,120.20531077879798,
,,,,0,0,0,0,32,0,32,0,,,,,,,,,,,,,,,,,,,,,,,,,,,,,,,,,,,,,,,,,,,,,,32,8.0,f,019_m_f_n_a.jpg,neutral,s,3,1,178.4631292000413,178.75752378017643,179.00059309997596,179.0262830801774,179.02723030000925,179.06255708001555,179.06294950004667,179.77509818011896,s,1,0.6986794997937977,698.6794997937977,179.06294950004667,179.77509818011896,179.78612220007926,181.10756207997912,EMOCONPILOT020,2021_Jan_04_1406,EmoCon_Pilot_120Hz,2020.2.4,120.20531077879798,
,,,,0,0,0,0,33,0,33,0,,,,,,,,,,,,,,,,,,,,,,,,,,,,,,,,,,,,,,,,,,,,,,33,4.0,m,016_y_m_n_a.jpg,neutral,s,17,1,181.11160239996389,181.40756248002873,181.64544440014288,181.80156928016805,181.80520380008966,181.84288467997686,181.84613760001957,182.35022628000007,s,1,0.49171740002930164,491.71740002930164,181.84613760001957,182.35022628000007,182.36125950003043,183.74101548008622,EMOCONPILOT020,2021_Jan_04_1406,EmoCon_Pilot_120Hz,2020.2.4,120.20531077879798,
,,,,0,0,0,0,34,0,34,0,,,,,,,,,,,,,,,,,,,,,,,,,,,,,,,,,,,,,,,,,,,,,,34,11.0,f,030_o_f_n_a.jpg,neutral,s,3,1,183.74610760016367,184.04106228002348,184.24547480000183,184.27152048000136,184.2718515000306,184.30882748002188,184.3091275000479,185.866500880057,a,0,1.5482155000790954,1548.2155000790954,184.3091275000479,185.866500880057,185.87481060018763,187.79948358000257,EMOCONPILOT020,2021_Jan_04_1406,EmoCon_Pilot_120Hz,2020.2.4,120.20531077879798,
,,,,0,0,0,0,35,0,35,0,,,,,,,,,,,,,,,,,,,,,,,,,,,,,,,,,,,,,,,,,,,,,,35,9.0,f,021_o_f_h_a.jpg,happy,d,17,1,187.80268379999325,188.09932017996908,188.3182794000022,188.48650038004854,188.49098580004647,188.53177437996493,188.5370292000007,188.88350108005108,d,1,0.33651449996978045,336.51449996978045,188.5370292000007,188.88350108005108,188.89496399997734,190.02443737997675,EMOCONPILOT020,2021_Jan_04_1406,EmoCon_Pilot_120Hz,2020.2.4,120.20531077879798,
,,,,0,0,0,0,36,0,36,0,,,,,,,,,,,,,,,,,,,,,,,,,,,,,,,,,,,,,,,,,,,,,,36,11.0,f,030_o_f_s_a.jpg,sad,a,17,1,190.0286134001799,190.32441547997297,190.52666860003956,190.688282480184,190.6933546999935,190.7338728801813,190.73882820014842,191.17781557999552,a,1,0.4228197999764234,422.8197999764234,190.73882820014842,191.17781557999552,191.18900260003284,192.62459238008597,EMOCONPILOT020,2021_Jan_04_1406,EmoCon_Pilot_120Hz,2020.2.4,120.20531077879798,
,,,,0,0,0,0,37,0,37,0,,,,,,,,,,,,,,,,,,,,,,,,,,,,,,,,,,,,,,,,,,,,,,37,12.0,f,040_y_f_n_a.jpg,neutral,s,17,1,192.63047580001876,192.9245453800075,193.15266060014255,193.31270918012598,193.31733420002274,193.35824528005907,193.36313840001822,193.72938688001597,a,0,0.3502706999424845,350.2706999424845,193.36313840001822,193.72938688001597,193.7398104001768,194.96623307997362,EMOCONPILOT020,2021_Jan_04_1406,EmoCon_Pilot_120Hz,2020.2.4,120.20531077879798,
,,,,0,0,0,0,38,0,38,0,,,,,,,,,,,,,,,,,,,,,,,,,,,,,,,,,,,,,,,,,,,,,,38,9.0,f,021_o_f_s_a.jpg,sad,a,17,1,194.97023189999163,195.26619498007932,195.28621780010872,195.41803258000874,195.42272200016305,195.46339818015696,195.46852330002002,195.88706178003923,a,1,0.4048534999601543,404.8534999601543,195.46852330002002,195.88706178003923,195.89887910010293,197.3746277801227,EMOCONPILOT020,2021_Jan_04_1406,EmoCon_Pilot_120Hz,2020.2.4,120.20531077879798,
,,,,0,0,0,0,39,0,39,0,,,,,,,,,,,,,,,,,,,,,,,,,,,,,,,,,,,,,,,,,,,,,,39,4.0,m,016_y_m_n_a.jpg,neutral,s,17,1,197.37991440016776,197.6747416799888,197.91283580008894,198.07857638010756,198.08324040006846,198.12319198013284,198.12730509997346,198.6247208800167,s,1,0.49032129999250174,490.32129999250174,198.12730509997346,198.6247208800167,198.63622430013493,200.2579936801456,EMOCONPILOT020,2021_Jan_04_1406,EmoCon_Pilot_120Hz,2020.2.4,120.20531077879798,
,,,,0,0,0,0,40,0,40,0,,,,,,,,,,,,,,,,,,,,,,,,,,,,,,,,,,,,,,,,,,,,,,40,9.0,f,021_o_f_s_a.jpg,sad,a,17,1,200.26219230005518,200.55800977996552,200.58305210014805,200.71797068016605,200.72149190003984,200.75999608002604,200.76389280008152,201.5363391800318,a,1,0.7575753999408334,757.5753999408334,200.76389280008152,201.5363391800318,201.54645500006154,203.40809418000282,EMOCONPILOT020,2021_Jan_04_1406,EmoCon_Pilot_120Hz,2020.2.4,120.20531077879798,
,,,,0,0,0,0,41,0,41,0,,,,,,,,,,,,,,,,,,,,,,,,,,,,,,,,,,,,,,,,,,,,,,41,11.0,f,030_o_f_h_a.jpg,happy,d,17,1,203.4135671001859,203.70806947997772,203.91633999999613,204.08551827999764,204.0901373999659,204.1312761799898,204.13601980009116,204.57301698015073,d,1,0.4254302999470383,425.4302999470383,204.13601980009116,204.57301698015073,204.58472530008294,206.14985388000497,EMOCONPILOT020,2021_Jan_04_1406,EmoCon_Pilot_120Hz,2020.2.4,120.20531077879798,
,,,,0,0,0,0,42,0,42,0,,,,,,,,,,,,,,,,,,,,,,,,,,,,,,,,,,,,,,,,,,,,,,42,4.0,m,016_y_m_h_a.jpg,happy,d,3,1,206.15291800000705,206.44982258016245,206.47299180016853,206.49587608007715,206.4962609000504,206.5343506801408,206.53555890009739,207.0426588800736,d,1,0.49779900000430644,497.79900000430644,206.53555890009739,207.0426588800736,207.0511827999726,208.99156108004973,EMOCONPILOT020,2021_Jan_04_1406,EmoCon_Pilot_120Hz,2020.2.4,120.20531077879798,
,,,,0,0,0,0,43,0,43,0,,,,,,,,,,,,,,,,,,,,,,,,,,,,,,,,,,,,,,,,,,,,,,43,1.0,m,004_o_m_s_a.jpg,sad,a,17,1,208.9954775001388,209.2915154799819,209.3095205000136,209.4431048801169,209.44601449999027,209.48440178013408,209.4872381000314,210.03306638002397,a,1,0.5381203999277204,538.1203999277204,209.4872381000314,210.03306638002397,210.04250790015794,211.48327188002878,EMOCONPILOT020,2021_Jan_04_1406,EmoCon_Pilot_120Hz,2020.2.4,120.20531077879798,
,,,,0,0,0,0,44,0,44,0,,,,,,,,,,,,,,,,,,,,,,,,,,,,,,,,,,,,,,,,,,,,,,44,4.0,m,016_y_m_h_a.jpg,happy,d,17,1,211.48855820018798,211.78326378013008,211.79937750007957,211.93485088013114,211.93750750017352,211.97619338002988,211.97917700000107,212.39940968011507,d,1,0.4061676999554038,406.1676999554038,211.97917700000107,212.39940968011507,212.4085079000797,214.12499558012934,EMOCONPILOT020,2021_Jan_04_1406,EmoCon_Pilot_120Hz,2020.2.4,120.20531077879798,
,,,,0,0,0,0,45,0,45,0,,,,,,,,,,,,,,,,,,,,,,,,,,,,,,,,,,,,,,,,,,,,,,45,7.0,f,012_o_f_s_a.jpg,sad,a,17,1,214.1302875999827,214.4249300800264,214.43802020000294,214.56823658007198,214.57085530017503,214.6095869801473,214.61259000003338,215.32931087999606,a,1,0.7007853998802602,700.7853998802602,214.61259000003338,215.32931087999606,215.33783830003813,216.69990807999858,EMOCONPILOT020,2021_Jan_04_1406,EmoCon_Pilot_120Hz,2020.2.4,120.20531077879798,
,,,,0,0,0,0,46,0,46,0,,,,,,,,,,,,,,,,,,,,,,,,,,,,,,,,,,,,,,,,,,,,,,46,8.0,f,019_m_f_n_a.jpg,neutral,s,3,1,216.70279600005597,217.00005908003078,217.2534072000999,217.28014058009722,217.28101440006867,217.31785298017786,217.31922199996188,218.65998697998003,s,1,1.3300835001282394,1330.0835001282394,217.31922199996188,218.65998697998003,218.66634510015137,220.53333138017916,EMOCONPILOT020,2021_Jan_04_1406,EmoCon_Pilot_120Hz,2020.2.4,120.20531077879798,
,,,,0,0,0,0,47,0,47,0,,,,,,,,,,,,,,,,,,,,,,,,,,,,,,,,,,,,,,,,,,,,,,47,2.0,m,008_y_m_h_a.jpg,happy,d,17,1,220.53631790005602,220.8333536800463,220.85246680001728,220.98504968006165,220.98825940000825,221.02673148009927,221.0299313000869,221.47342308000663,d,1,0.4356835000216961,435.6835000216961,221.0299313000869,221.47342308000663,221.4843057000544,222.85856748018415,EMOCONPILOT020,2021_Jan_04_1406,EmoCon_Pilot_120Hz,2020.2.4,120.20531077879798,
,,,,0,0,0,0,48,0,48,0,,,,,,,,,,,,,,,,,,,,,,,,,,,,,,,,,,,,,,,,,,,,,,48,12.0,f,040_y_f_n_a.jpg,neutral,s,17,1,222.8645731001161,223.15859908000567,223.3930868001189,223.5567477801349,223.5616425999906,223.60163428001107,223.6066543001216,224.2967213801574,s,1,0.6827281001023948,682.7281001023948,223.6066543001216,224.2967213801574,224.3087330001872,225.73352808011697,EMOCONPILOT020,2021_Jan_04_1406,EmoCon_Pilot_120Hz,2020.2.4,120.20531077879798,
,,,,0,0,0,0,49,0,49,0,,,,,,,,,,,,,,,,,,,,,,,,,,,,,,,,,,,,,,,,,,,,,,49,11.0,f,030_o_f_n_a.jpg,neutral,s,17,1,225.7376394001767,226.03353638011032,226.2415710000787,226.40331338015386,226.40783670009114,226.44876037999057,226.45365729997866,227.06459618005903,s,1,0.5958913001231849,595.8913001231849,226.45365729997866,227.06459618005903,227.076093000127,228.3419448800385,EMOCONPILOT020,2021_Jan_04_1406,EmoCon_Pilot_120Hz,2020.2.4,120.20531077879798,
,,,,0,0,0,0,50,0,50,0,,,,,,,,,,,,,,,,,,,,,,,,,,,,,,,,,,,,,,,,,,,,,,50,8.0,f,019_m_f_h_a.jpg,happy,d,17,1,228.3451324000489,228.6419220801443,228.66952330013737,228.801916580135,228.80581100005656,228.84379058000633,228.84788230014965,229.25211297995412,d,1,0.39350040000863373,393.50040000863373,228.84788230014965,229.25211297995412,229.26265839999542,230.77534978017212,EMOCONPILOT020,2021_Jan_04_1406,EmoCon_Pilot_120Hz,2020.2.4,120.20531077879798,
,,,,0,0,0,0,51,0,51,0,,,,,,,,,,,,,,,,,,,,,,,,,,,,,,,,,,,,,,,,,,,,,,51,8.0,f,019_m_f_n_a.jpg,neutral,s,17,1,230.78080080007203,231.07535168011674,231.3254744000733,231.47980658006855,231.48383549996652,231.52434497997166,231.5294127999805,231.9962715801783,s,1,0.45605270005762577,456.05270005762577,231.5294127999805,231.9962715801783,232.0070925001055,233.9419689799659,EMOCONPILOT020,2021_Jan_04_1406,EmoCon_Pilot_120Hz,2020.2.4,120.20531077879798,
,,,,0,0,0,0,52,0,52,0,,,,,,,,,,,,,,,,,,,,,,,,,,,,,,,,,,,,,,,,,,,,,,52,12.0,f,040_y_f_n_a.jpg,neutral,s,17,1,233.9448766000569,234.24197118002922,234.46705229999498,234.62499868003653,234.62987090018578,234.66902167997324,234.6729803001508,235.2555181800388,s,1,0.5685401998925954,568.5401998925954,234.6729803001508,235.2555181800388,235.2681933999993,236.93386488007383,EMOCONPILOT020,2021_Jan_04_1406,EmoCon_Pilot_120Hz,2020.2.4,120.20531077879798,
,,,,0,0,0,0,53,0,53,0,,,,,,,,,,,,,,,,,,,,,,,,,,,,,,,,,,,,,,,,,,,,,,53,9.0,f,021_o_f_h_a.jpg,happy,d,17,1,236.9378452000674,237.2338319799863,237.45314990007319,237.61147088017316,237.61622110009193,237.65731588001364,237.66216640011407,238.05842387997546,d,1,0.37939250003546476,379.39250003546476,237.66216640011407,238.05842387997546,238.06496210000478,239.2172369800508,EMOCONPILOT020,2021_Jan_04_1406,EmoCon_Pilot_120Hz,2020.2.4,120.20531077879798,
,,,,0,0,0,0,54,0,54,0,,,,,,,,,,,,,,,,,,,,,,,,,,,,,,,,,,,,,,,,,,,,,,54,2.0,m,008_y_m_n_a.jpg,neutral,s,17,1,239.2215396000538,239.5171579799615,239.75287930015475,239.90980117996224,239.914717100095,239.95576958004386,239.96087840013206,240.41669078003616,s,1,0.44845250016078353,448.45250016078353,239.96087840013206,240.41669078003616,240.4281731999945,241.57567528001965,EMOCONPILOT020,2021_Jan_04_1406,EmoCon_Pilot_120Hz,2020.2.4,120.20531077879798,
,,,,0,0,0,0,55,0,55,0,,,,,,,,,,,,,,,,,,,,,,,,,,,,,,,,,,,,,,,,,,,,,,55,10.0,f,028_y_f_n_a.jpg,neutral,s,3,1,241.57881180010736,241.87555717998185,242.07793500018306,242.10353158013896,242.10374970012344,242.1378985801246,242.13802710012533,242.71856218012982,s,1,0.5672549000009894,567.2549000009894,242.13802710012533,242.71856218012982,242.7232819001656,243.76723398007454,EMOCONPILOT020,2021_Jan_04_1406,EmoCon_Pilot_120Hz,2020.2.4,120.20531077879798,
,,,,0,0,0,0,56,0,56,0,,,,,,,,,,,,,,,,,,,,,,,,,,,,,,,,,,,,,,,,,,,,,,56,12.0,f,040_y_f_h_a.jpg,happy,d,3,1,243.77113920007832,244.06733548007907,244.0920235000085,244.11414618017153,244.11459130002186,244.15182828013786,244.1518858000636,244.7202231799718,d,1,0.5536042999010533,553.6042999010533,244.1518858000636,244.7202231799718,244.72940810001455,246.04229958001525,EMOCONPILOT020,2021_Jan_04_1406,EmoCon_Pilot_120Hz,2020.2.4,120.20531077879798,
,,,,0,0,0,0,57,0,57,0,,,,,,,,,,,,,,,,,,,,,,,,,,,,,,,,,,,,,,,,,,,,,,57,2.0,m,008_y_m_n_a.jpg,neutral,s,17,1,246.04530930006877,246.34225957999007,246.5841829001438,246.74016808015296,246.74496210017242,246.7862941801548,246.7911603001412,247.18611447997392,s,1,0.3862810998689383,386.2810998689383,246.7911603001412,247.18611447997392,247.19768179999664,248.24226378016175,EMOCONPILOT020,2021_Jan_04_1406,EmoCon_Pilot_120Hz,2020.2.4,120.20531077879798,
,,,,0,0,0,0,58,0,58,0,,,,,,,,,,,,,,,,,,,,,,,,,,,,,,,,,,,,,,,,,,,,,,58,9.0,f,021_o_f_n_a.jpg,neutral,s,17,1,248.24494160013273,248.54223117996008,248.75827510003,248.9196419801563,248.9239718001336,248.96484217997642,248.9701209999621,249.26436407999137,d,0,0.2874555999878794,287.4555999878794,248.9701209999621,249.26436407999137,249.27612449997105,250.884156380035,EMOCONPILOT020,2021_Jan_04_1406,EmoCon_Pilot_120Hz,2020.2.4,120.20531077879798,
,,,,0,0,0,0,59,0,59,0,,,,,,,,,,,,,,,,,,,,,,,,,,,,,,,,,,,,,,,,,,,,,,59,4.0,m,016_y_m_n_a.jpg,neutral,s,17,1,250.88842159998603,251.18406547997148,251.42767430003732,251.594369480107,251.59911620011553,251.63983068005183,251.6449623000808,252.05084428000265,s,1,0.39662700006738305,396.62700006738305,251.6449623000808,252.05084428000265,252.06386260013096,253.83419847995975,EMOCONPILOT020,2021_Jan_04_1406,EmoCon_Pilot_120Hz,2020.2.4,120.20531077879798,
,,,,0,0,0,0,60,0,60,0,,,,,,,,,,,,,,,,,,,,,,,,,,,,,,,,,,,,,,,,,,,,,,60,6.0,m,033_o_m_s_a.jpg,sad,a,17,1,253.83831480005756,254.13413908001968,254.15511870011687,254.28585518007168,254.2904325001873,254.33131028008648,254.33656159997918,255.85332768009977,a,1,1.504779300186783,1504.779300186783,254.33656159997918,255.85332768009977,255.85989470011555,257.55100937997923,EMOCONPILOT020,2021_Jan_04_1406,EmoCon_Pilot_120Hz,2020.2.4,120.20531077879798,
,,,,0,0,0,0,61,0,61,0,,,,,,,,,,,,,,,,,,,,,,,,,,,,,,,,,,,,,,,,,,,,,,61,7.0,f,012_o_f_n_a.jpg,neutral,s,17,1,257.5565589000471,257.8510284800548,258.0685922000557,258.23070408003406,258.23420930001885,258.2751368800644,258.28002900001593,258.7697863801848,s,1,0.4735330999828875,473.5330999828875,258.28002900001593,258.7697863801848,258.7776085000951,260.65922348010355,EMOCONPILOT020,2021_Jan_04_1406,EmoCon_Pilot_120Hz,2020.2.4,120.20531077879798,
,,,,0,0,0,0,62,0,62,0,,,,,,,,,,,,,,,,,,,,,,,,,,,,,,,,,,,,,,,,,,,,,,62,2.0,m,008_y_m_h_a.jpg,happy,d,3,1,260.65965160005726,260.95926728001797,260.9810276001226,261.0037670800928,261.00412010005675,261.0438958801795,261.04512250004336,261.6719717799686,d,1,0.612248299876228,612.248299876228,261.04512250004336,261.6719717799686,261.6776850000024,263.4011270801537,EMOCONPILOT020,2021_Jan_04_1406,EmoCon_Pilot_120Hz,2020.2.4,120.20531077879798,
,,,,0,0,0,0,63,0,63,0,,,,,,,,,,,,,,,,,,,,,,,,,,,,,,,,,,,,,,,,,,,,,,63,10.0,f,028_y_f_h_a.jpg,happy,d,17,1,263.4066320999991,263.70108017995955,263.7251649000682,263.8608723801561,263.86378050013445,263.9024050801061,263.90385250002146,264.2665044799913,d,1,0.3537139999680221,353.7139999680221,263.90385250002146,264.2665044799913,264.2790781001095,265.59269118001686,EMOCONPILOT020,2021_Jan_04_1406,EmoCon_Pilot_120Hz,2020.2.4,120.20531077879798,
,,,,0,0,0,0,64,0,64,0,,,,,,,,,,,,,,,,,,,,,,,,,,,,,,,,,,,,,,,,,,,,,,64,4.0,m,016_y_m_h_a.jpg,happy,d,3,1,265.59677810012363,265.892706280062,265.9147830000147,265.9379794799723,265.9385081001092,265.9771511801053,265.97721260017715,266.471641580062,d,1,0.4802383999340236,480.2383999340236,265.97721260017715,266.471641580062,266.48135840008035,267.80113117997536,EMOCONPILOT020,2021_Jan_04_1406,EmoCon_Pilot_120Hz,2020.2.4,120.20531077879798,
,,,,0,0,0,0,65,0,65,0,,,,,,,,,,,,,,,,,,,,,,,,,,,,,,,,,,,,,,,,,,,,,,65,9.0,f,021_o_f_s_a.jpg,sad,a,17,1,267.8043335999828,268.101203380106,268.1269410001114,268.26107858000324,268.26465520006604,268.3054398800712,268.3088603001088,268.77612928017044,a,1,0.45256850006990135,452.56850006990135,268.3088603001088,268.77612928017044,268.78751960000955,269.99277207995766,EMOCONPILOT020,2021_Jan_04_1406,EmoCon_Pilot_120Hz,2020.2.4,120.20531077879798,
,,,,0,0,0,0,66,0,66,0,,,,,,,,,,,,,,,,,,,,,,,,,,,,,,,,,,,,,,,,,,,,,,66,7.0,f,012_o_f_h_a.jpg,happy,d,3,1,269.9967347001657,270.2927454800345,270.31290250015445,270.3357895800844,270.33618660015054,270.37146177999676,270.3714060999919,271.06616868004204,d,1,0.6861205999739468,686.1205999739468,270.3714060999919,271.06616868004204,271.07432240014896,272.9095829801634,EMOCONPILOT020,2021_Jan_04_1406,EmoCon_Pilot_120Hz,2020.2.4,120.20531077879798,
,,,,0,0,0,0,67,0,67,0,,,,,,,,,,,,,,,,,,,,,,,,,,,,,,,,,,,,,,,,,,,,,,67,9.0,f,021_o_f_h_a.jpg,happy,d,3,1,272.91515680006705,273.20959048015067,273.4511118000373,273.47838848009707,273.48173000011593,273.5223609799985,273.52770070009865,274.0153759801295,d,1,0.47374560008756816,473.74560008756816,273.52770070009865,274.0153759801295,274.02683450002223,275.7762936800253,EMOCONPILOT020,2021_Jan_04_1406,EmoCon_Pilot_120Hz,2020.2.4,120.20531077879798,
,,,,0,0,0,0,68,0,68,0,,,,,,,,,,,,,,,,,,,,,,,,,,,,,,,,,,,,,,,,,,,,,,68,8.0,f,019_m_f_h_a.jpg,happy,d,3,1,275.78027170011774,276.07625247999096,276.10224979999475,276.12498188014143,276.12554679997265,276.16121028009803,276.16064600017853,276.7073013800662,d,1,0.5366622000001371,536.6622000001371,276.16064600017853,276.7073013800662,276.71279150014743,278.3013175799977,EMOCONPILOT020,2021_Jan_04_1406,EmoCon_Pilot_120Hz,2020.2.4,120.20531077879798,
,,,,0,0,0,0,69,0,69,0,,,,,,,,,,,,,,,,,,,,,,,,,,,,,,,,,,,,,,,,,,,,,,69,9.0,f,021_o_f_s_a.jpg,sad,a,3,1,278.3052626000717,278.6013262799941,278.62143669999205,278.6437522801105,278.6442848001607,278.67839818000795,278.67838710010983,279.31549598015846,a,1,0.6269788001663983,626.9788001663983,278.67838710010983,279.31549598015846,279.3229084000923,280.70141957998277,EMOCONPILOT020,2021_Jan_04_1406,EmoCon_Pilot_120Hz,2020.2.4,120.20531077879798,
,,,,0,0,0,0,70,0,70,0,,,,,,,,,,,,,,,,,,,,,,,,,,,,,,,,,,,,,,,,,,,,,,70,2.0,m,008_y_m_h_a.jpg,happy,d,3,1,280.70763269998133,281.0015073799994,281.017814300023,281.0406454801094,281.04140520002693,281.07757828007453,281.0790963000618,281.5697904801462,d,1,0.4823399998713285,482.3399998713285,281.0790963000618,281.5697904801462,281.57803490012884,283.15147848003545,EMOCONPILOT020,2021_Jan_04_1406,EmoCon_Pilot_120Hz,2020.2.4,120.20531077879798,
,,,,0,0,0,0,71,0,71,0,,,,,,,,,,,,,,,,,,,,,,,,,,,,,,,,,,,,,,,,,,,,,,71,1.0,m,004_o_m_h_a.jpg,happy,d,3,1,283.15674890019,283.45120617998765,283.6569674999919,283.68244078005665,283.6825278000906,283.7192335801199,283.72036919998936,284.1770402800292,d,1,0.44893940002657473,448.93940002657473,283.72036919998936,284.1770402800292,284.1827470001299,285.5682734800037,EMOCONPILOT020,2021_Jan_04_1406,EmoCon_Pilot_120Hz,2020.2.4,120.20531077879798,
,,,,0,0,0,0,72,0,72,0,,,,,,,,,,,,,,,,,,,,,,,,,,,,,,,,,,,,,,,,,,,,,,72,11.0,f,030_o_f_h_a.jpg,happy,d,3,1,285.57373050018214,285.86818557996304,286.0737429000437,286.0985952801537,286.0985566000454,286.13593758009375,286.1366870000493,286.6502085800283,d,1,0.5046779999975115,504.6779999975115,286.1366870000493,286.6502085800283,286.65643620002083,288.17660078005866,EMOCONPILOT020,2021_Jan_04_1406,EmoCon_Pilot_120Hz,2020.2.4,120.20531077879798,
,,,,0,0,0,0,73,0,73,0,,,,,,,,,,,,,,,,,,,,,,,,,,,,,,,,,,,,,,,,,,,,,,73,8.0,f,019_m_f_s_a.jpg,sad,a,3,1,288.1807987000793,288.47660518013873,288.7254282999784,288.7513386799954,288.7519178001676,288.786464480171,288.7876558001153,289.4944298800081,a,1,0.693817000137642,693.817000137642,288.7876558001153,289.4944298800081,289.497279800009,291.0516277800314,EMOCONPILOT020,2021_Jan_04_1406,EmoCon_Pilot_120Hz,2020.2.4,120.20531077879798,
,,,,0,0,0,0,74,0,74,0,,,,,,,,,,,,,,,,,,,,,,,,,,,,,,,,,,,,,,,,,,,,,,74,5.0,m,027_o_m_h_a.jpg,happy,d,17,1,291.0570926000364,291.35164888012224,291.56854370003566,291.7315132801421,291.7350302999839,291.77594168013894,291.78100410010666,292.24861088017934,d,1,0.45255700009875,452.55700009875,291.78100410010666,292.24861088017934,292.25995410000905,294.2432609800715,EMOCONPILOT020,2021_Jan_04_1406,EmoCon_Pilot_120Hz,2020.2.4,120.20531077879798,
,,,,0,0,0,0,75,0,75,0,,,,,,,,,,,,,,,,,,,,,,,,,,,,,,,,,,,,,,,,,,,,,,75,8.0,f,019_m_f_s_a.jpg,sad,a,3,1,294.24718060018495,294.5433164799586,294.77206870005466,294.79852068000474,294.7992122999858,294.8362190799788,294.8363140001893,295.49830158003607,a,1,0.653045600047335,653.045600047335,294.8363140001893,295.49830158003607,295.505675900029,296.69340737997555,EMOCONPILOT020,2021_Jan_04_1406,EmoCon_Pilot_120Hz,2020.2.4,120.20531077879798,
,,,,0,0,0,0,76,0,76,0,,,,,,,,,,,,,,,,,,,,,,,,,,,,,,,,,,,,,,,,,,,,,,76,7.0,f,012_o_f_n_a.jpg,neutral,s,17,1,296.69856850011274,296.99343168009074,297.21097600017674,297.37425427995623,297.37904740008526,297.4166552801151,297.4212988000363,298.05923848012463,s,1,0.6203262000344694,620.3262000344694,297.4212988000363,298.05923848012463,298.0704277001787,299.16841678014026,EMOCONPILOT020,2021_Jan_04_1406,EmoCon_Pilot_120Hz,2020.2.4,120.20531077879798,
,,,,0,0,0,0,77,0,77,0,,,,,,,,,,,,,,,,,,,,,,,,,,,,,,,,,,,,,,,,,,,,,,77,6.0,m,033_o_m_s_a.jpg,sad,a,17,1,299.1724113000091,299.4685266799759,299.49026530003175,299.62843868015335,299.63350400002673,299.6741942800116,299.67936970014125,301.344698080048,a,1,1.6503775001037866,1650.3775001037866,299.67936970014125,301.344698080048,301.3524593000766,303.04350888002665,EMOCONPILOT020,2021_Jan_04_1406,EmoCon_Pilot_120Hz,2020.2.4,120.20531077879798,
,,,,0,0,0,0,78,0,78,0,,,,,,,,,,,,,,,,,,,,,,,,,,,,,,,,,,,,,,,,,,,,,,78,1.0,m,004_o_m_h_a.jpg,happy,d,17,1,303.0475827001501,303.3435318800155,303.5541734001599,303.71723488015124,303.7220340000931,303.7614801800344,303.7666232001502,304.1407041800674,d,1,0.36300539993681014,363.00539993681014,303.7666232001502,304.1407041800674,304.1512454999611,305.3519438800402,EMOCONPILOT020,2021_Jan_04_1406,EmoCon_Pilot_120Hz,2020.2.4,120.20531077879798,
,,,,0,0,0,0,79,0,79,0,,,,,,,,,,,,,,,,,,,,,,,,,,,,,,,,,,,,,,,,,,,,,,79,5.0,m,027_o_m_s_a.jpg,sad,a,3,1,305.3578004001174,305.65194028005936,305.69613640010357,305.7193386801053,305.72080650017597,305.757967880182,305.75924469996244,307.0812066799961,s,0,1.3061584001407027,1306.1584001407027,305.75924469996244,307.0812066799961,307.089408100117,308.6935809801333,EMOCONPILOT020,2021_Jan_04_1406,EmoCon_Pilot_120Hz,2020.2.4,120.20531077879798,
,,,,0,0,0,0,80,0,80,0,,,,,,,,,,,,,,,,,,,,,,,,,,,,,,,,,,,,,,,,,,,,,,80,9.0,f,021_o_f_s_a.jpg,sad,a,17,1,308.69648050004616,308.9935611800291,309.01259110006504,309.1452155799605,309.1481474000029,309.18655577995816,309.18913140008226,309.8961979799904,a,1,0.6923513999208808,692.3513999208808,309.18913140008226,309.8961979799904,309.9046016000211,311.45202348004096,EMOCONPILOT020,2021_Jan_04_1406,EmoCon_Pilot_120Hz,2020.2.4,120.20531077879798,
,,,,0,0,0,0,81,0,81,0,,,,,,,,,,,,,,,,,,,,,,,,,,,,,,,,,,,,,,,,,,,,,,81,5.0,m,027_o_m_s_a.jpg,sad,a,17,1,311.45599080016837,311.75207418012434,311.77298510004766,311.90366788017565,311.9070819001645,311.94811877999456,311.9527267999947,312.6645538801793,a,1,0.6967678000219166,696.7678000219166,311.9527267999947,312.6645538801793,312.67501660017297,314.3772165800445,EMOCONPILOT020,2021_Jan_04_1406,EmoCon_Pilot_120Hz,2020.2.4,120.20531077879798,
,,,,0,0,0,0,82,0,82,0,,,,,,,,,,,,,,,,,,,,,,,,,,,,,,,,,,,,,,,,,,,,,,82,7.0,f,012_o_f_h_a.jpg,happy,d,3,1,314.3815592001192,314.6771031801589,314.70021190005355,314.72190737999045,314.7230040000286,314.76166178002023,314.76277599995956,315.3603789801244,d,1,0.5827421001158655,582.7421001158655,314.76277599995956,315.3603789801244,315.37177410000004,316.51056398004295,EMOCONPILOT020,2021_Jan_04_1406,EmoCon_Pilot_120Hz,2020.2.4,120.20531077879798,
,,,,0,0,0,0,83,0,83,0,,,,,,,,,,,,,,,,,,,,,,,,,,,,,,,,,,,,,,,,,,,,,,83,3.0,m,013_y_m_s_a.jpg,sad,a,3,1,316.51489270012826,316.8104816800449,316.8356568000745,316.85852708010935,316.86008740006946,316.89566227998586,316.89695150009356,318.50811898005196,None,0,,,316.89695150009356,318.50811898005196,318.5118913000915,319.84392068018207,EMOCONPILOT020,2021_Jan_04_1406,EmoCon_Pilot_120Hz,2020.2.4,120.20531077879798,
,,,,0,0,0,0,84,0,84,0,,,,,,,,,,,,,,,,,,,,,,,,,,,,,,,,,,,,,,,,,,,,,,84,5.0,m,027_o_m_s_a.jpg,sad,a,3,1,319.84919610014185,320.14391128015706,320.16985780000687,320.19217428001576,320.1927147000097,320.22832338018344,320.2295544000808,321.88261658018456,a,1,1.6441456000320613,1644.1456000320613,320.2295544000808,321.88261658018456,321.8943294000346,323.8856781799812,EMOCONPILOT020,2021_Jan_04_1406,EmoCon_Pilot_120Hz,2020.2.4,120.20531077879798,
,,,,0,0,0,0,85,0,85,0,,,,,,,,,,,,,,,,,,,,,,,,,,,,,,,,,,,,,,,,,,,,,,85,4.0,m,016_y_m_s_a.jpg,sad,a,3,1,323.8895749000367,324.18567408011296,324.1968696999829,324.2202223799657,324.2208659001626,324.25669738017024,324.25677780015394,325.58625018009917,s,0,1.3127937000244856,1312.7937000244856,324.25677780015394,325.58625018009917,325.59595790016465,326.919057480013,EMOCONPILOT020,2021_Jan_04_1406,EmoCon_Pilot_120Hz,2020.2.4,120.20531077879798,
,,,,0,0,0,0,86,0,86,0,,,,,,,,,,,,,,,,,,,,,,,,,,,,,,,,,,,,,,,,,,,,,,86,5.0,m,027_o_m_n_a.jpg,neutral,s,17,1,326.92224099999294,327.21908937995323,327.4519913000986,327.61246418016964,327.61715820012614,327.658056480065,327.66322390013374,328.6257863800973,s,1,0.9462576999794692,946.2576999794692,327.66322390013374,328.6257863800973,328.63503510016017,329.84410258005374,EMOCONPILOT020,2021_Jan_04_1406,EmoCon_Pilot_120Hz,2020.2.4,120.20531077879798,
,,,,0,0,0,0,87,0,87,0,,,,,,,,,,,,,,,,,,,,,,,,,,,,,,,,,,,,,,,,,,,,,,87,3.0,m,013_y_m_h_a.jpg,happy,d,17,1,329.8482609000057,330.1441758800764,330.37829400016926,330.5314616800286,330.5361979000736,330.5768963801209,330.5818215999752,331.0280906799715,d,1,0.4356694999150932,435.6694999150932,330.5818215999752,331.0280906799715,331.03668890008703,332.91914048017935,EMOCONPILOT020,2021_Jan_04_1406,EmoCon_Pilot_120Hz,2020.2.4,120.20531077879798,
,,,,0,0,0,0,88,0,88,0,,,,,,,,,,,,,,,,,,,,,,,,,,,,,,,,,,,,,,,,,,,,,,88,5.0,m,027_o_m_s_a.jpg,sad,a,3,1,332.92185829998925,333.2191225799732,333.24202960007824,333.2646755801514,333.26522000017576,333.30364268012346,333.304825700121,334.51142727998086,s,0,1.1926049999892712,1192.6049999892712,333.304825700121,334.51142727998086,334.51811200007796,336.3608828801196,EMOCONPILOT020,2021_Jan_04_1406,EmoCon_Pilot_120Hz,2020.2.4,120.20531077879798,
,,,,0,0,0,0,89,0,89,0,,,,,,,,,,,,,,,,,,,,,,,,,,,,,,,,,,,,,,,,,,,,,,89,5.0,m,027_o_m_s_a.jpg,sad,a,17,1,336.3616337000858,336.66100967996755,336.68573869997635,336.8208234800957,336.82291570003144,336.86226228014567,336.86468130000867,337.45350528014825,a,1,0.576777100097388,576.777100097388,336.86468130000867,337.45350528014825,337.4635988001246,338.53597818007694,EMOCONPILOT020,2021_Jan_04_1406,EmoCon_Pilot_120Hz,2020.2.4,120.20531077879798,
,,,,0,0,0,0,90,0,90,0,,,,,,,,,,,,,,,,,,,,,,,,,,,,,,,,,,,,,,,,,,,,,,90,12.0,f,040_y_f_s_a.jpg,sad,a,17,1,338.5397223001346,338.83590308013373,338.8540883001406,338.9875788799953,338.9907766999677,339.03017178010197,339.0353961000219,339.55497768004426,a,1,0.5022211000323296,502.22110003232956,339.0353961000219,339.55497768004426,339.56628870009445,341.1109985801857,EMOCONPILOT020,2021_Jan_04_1406,EmoCon_Pilot_120Hz,2020.2.4,120.20531077879798,
,,,,0,0,0,0,91,0,91,0,,,,,,,,,,,,,,,,,,,,,,,,,,,,,,,,,,,,,,,,,,,,,,91,3.0,m,013_y_m_n_a.jpg,neutral,s,3,1,341.1158008000348,341.4110012801364,341.65278200013563,341.6792329800781,341.68417780008167,341.7250476800371,341.73029920016415,342.52782448004,s,1,0.7910847999155521,791.0847999155521,341.73029920016415,342.52782448004,342.53258500015363,344.18606278016233,EMOCONPILOT020,2021_Jan_04_1406,EmoCon_Pilot_120Hz,2020.2.4,120.20531077879798,
,,,,0,0,0,0,92,0,92,0,,,,,,,,,,,,,,,,,,,,,,,,,,,,,,,,,,,,,,,,,,,,,,92,12.0,f,040_y_f_s_a.jpg,sad,a,3,1,344.19020589999855,344.4861120800022,344.4991816000547,344.5219206800219,344.5228494000621,344.55862468010747,344.56028309999965,345.80239867996426,a,1,1.2332005999051034,1233.2005999051034,344.56028309999965,345.80239867996426,345.8106085001491,347.0862612800673,EMOCONPILOT020,2021_Jan_04_1406,EmoCon_Pilot_120Hz,2020.2.4,120.20531077879798,
,,,,0,0,0,0,93,0,93,0,,,,,,,,,,,,,,,,,,,,,,,,,,,,,,,,,,,,,,,,,,,,,,93,6.0,m,033_o_m_s_a.jpg,sad,a,3,1,347.0916677999776,347.3862248800695,347.40087070013396,347.4230128800962,347.42365420004353,347.4623025799636,347.46668389998376,349.2995293801185,None,0,,,347.46668389998376,349.2995293801185,349.3065403001383,351.2111999801826,EMOCONPILOT020,2021_Jan_04_1406,EmoCon_Pilot_120Hz,2020.2.4,120.20531077879798,
,,,,0,0,0,0,94,0,94,0,,,,,,,,,,,,,,,,,,,,,,,,,,,,,,,,,,,,,,,,,,,,,,94,2.0,m,008_y_m_s_a.jpg,sad,a,3,1,351.21521270019,351.511243780097,351.7495442000218,351.77476748004557,351.77521540015005,351.81237908005716,351.81256230012514,353.31806928007865,a,1,1.4932913999073207,1493.2913999073207,351.81256230012514,353.31806928007865,353.32698979997076,354.3946350800805,EMOCONPILOT020,2021_Jan_04_1406,EmoCon_Pilot_120Hz,2020.2.4,120.20531077879798,
,,,,0,0,0,0,95,0,95,0,,,,,,,,,,,,,,,,,,,,,,,,,,,,,,,,,,,,,,,,,,,,,,95,8.0,f,019_m_f_s_a.jpg,sad,a,3,1,354.39747910015285,354.6946398801636,354.9351764000021,354.9615677799564,354.96224729996175,354.9964795801323,354.9970189000014,355.97568558012136,a,1,0.9644805998541415,964.4805998541415,354.9970189000014,355.97568558012136,355.9849895001389,357.7113703800831,EMOCONPILOT020,2021_Jan_04_1406,EmoCon_Pilot_120Hz,2020.2.4,120.20531077879798,
,,,,0,0,0,0,96,0,96,0,,,,,,,,,,,,,,,,,,,,,,,,,,,,,,,,,,,,,,,,,,,,,,96,9.0,f,021_o_f_n_a.jpg,neutral,s,17,1,357.71421130001545,358.0113909800537,358.2193291001022,358.3793867800385,358.3837680001743,358.42453098013067,358.429777600104,358.92876508012415,s,1,0.4840434000361711,484.0434000361711,358.429777600104,358.92876508012415,358.9405160001479,360.13637868007646,EMOCONPILOT020,2021_Jan_04_1406,EmoCon_Pilot_120Hz,2020.2.4,120.20531077879798,
,,,,0,0,0,0,97,0,97,0,,,,,,,,,,,,,,,,,,,,,,,,,,,,,,,,,,,,,,,,,,,,,,97,11.0,f,030_o_f_h_a.jpg,happy,d,17,1,360.1415577000007,360.4365098799579,360.64234650018625,360.8003967799712,360.80540930014104,360.84637908004225,360.85126330005005,361.27931698011236,d,1,0.41445369995199144,414.45369995199144,360.85126330005005,361.27931698011236,361.29039039998315,362.86983988010326,EMOCONPILOT020,2021_Jan_04_1406,EmoCon_Pilot_120Hz,2020.2.4,120.20531077879798,
,,,,0,0,0,0,98,0,98,0,,,,,,,,,,,,,,,,,,,,,,,,,,,,,,,,,,,,,,,,,,,,,,98,12.0,f,040_y_f_n_a.jpg,neutral,s,17,1,362.8753768999595,363.1698328800965,363.39698390010744,363.54927748017946,363.5524007000495,363.58991738008336,363.59299860009924,364.0016542800702,s,1,0.40079189999960363,400.79189999960363,363.59299860009924,364.0016542800702,364.0117699999828,365.26152358013206,EMOCONPILOT020,2021_Jan_04_1406,EmoCon_Pilot_120Hz,2020.2.4,120.20531077879798,
,,,,0,0,0,0,99,0,99,0,,,,,,,,,,,,,,,,,,,,,,,,,,,,,,,,,,,,,,,,,,,,,,99,12.0,f,040_y_f_s_a.jpg,sad,a,3,1,365.2657306001056,365.5615401800722,365.5861361999996,365.6087404801045,365.60940570011735,365.6460849800613,365.6473584000487,366.4105084801093,a,1,0.7464318999554962,746.4318999554962,365.6473584000487,366.4105084801093,366.4211011000443,368.22820918001236,EMOCONPILOT020,2021_Jan_04_1406,EmoCon_Pilot_120Hz,2020.2.4,120.20531077879798,
,,,,0,0,0,0,100,0,100,0,,,,,,,,,,,,,,,,,,,,,,,,,,,,,,,,,,,,,,,,,,,,,,100,4.0,m,016_y_m_n_a.jpg,neutral,s,3,1,368.23231850005686,368.5282467801124,368.761386499973,368.78876878013835,368.79350210004486,368.8338746800553,368.8391827000305,369.34788228007966,s,1,0.49834010004997253,498.34010004997253,368.8391827000305,369.34788228007966,369.35975700011477,370.96169858002105,EMOCONPILOT020,2021_Jan_04_1406,EmoCon_Pilot_120Hz,2020.2.4,120.20531077879798,
,,,,0,0,0,0,101,0,101,0,,,,,,,,,,,,,,,,,,,,,,,,,,,,,,,,,,,,,,,,,,,,,,101,11.0,f,030_o_f_s_a.jpg,sad,a,3,1,370.96617020014673,371.2616718799807,371.45530800009146,371.4820193801541,371.4828848000616,371.51928978012876,371.5210396000184,373.1560334800277,s,0,1.6245183998253196,1624.5183998253196,371.5210396000184,373.1560334800277,373.16557310009375,375.09502028017306,EMOCONPILOT020,2021_Jan_04_1406,EmoCon_Pilot_120Hz,2020.2.4,120.20531077879798,
,,,,0,0,0,0,102,0,102,0,,,,,,,,,,,,,,,,,,,,,,,,,,,,,,,,,,,,,,,,,,,,,,102,3.0,m,013_y_m_h_a.jpg,happy,d,17,1,375.0990816000849,375.39503028006294,375.6397186999675,375.79517478002236,375.799382600002,375.8396292801015,375.8447805000469,376.38359788008967,d,1,0.5249163000844419,524.9163000844419,375.8447805000469,376.38359788008967,376.395218500169,377.66172688007356,EMOCONPILOT020,2021_Jan_04_1406,EmoCon_Pilot_120Hz,2020.2.4,120.20531077879798,
,,,,0,0,0,0,103,0,103,0,,,,,,,,,,,,,,,,,,,,,,,,,,,,,,,,,,,,,,,,,,,,,,103,2.0,m,008_y_m_s_a.jpg,sad,a,3,1,377.6655705999583,377.96184837999755,378.2000527000055,378.22577327997425,378.22598000010476,378.2630841801409,378.2630276000127,379.8250919801183,a,1,1.554450900061056,1554.450900061056,378.2630276000127,379.8250919801183,379.8324472999666,381.48685917998665,EMOCONPILOT020,2021_Jan_04_1406,EmoCon_Pilot_120Hz,2020.2.4,120.20531077879798,
,,,,0,0,0,0,104,0,104,0,,,,,,,,,,,,,,,,,,,,,,,,,,,,,,,,,,,,,,,,,,,,,,104,11.0,f,030_o_f_s_a.jpg,sad,a,17,1,381.4910315000452,381.7869684800506,381.99400259996764,382.154415680049,382.1591441000346,382.20023028012366,382.20548450015485,383.4078320799861,a,1,1.1881287000142038,1188.1287000142038,382.20548450015485,383.4078320799861,383.41851400001906,385.3536052801181,EMOCONPILOT020,2021_Jan_04_1406,EmoCon_Pilot_120Hz,2020.2.4,120.20531077879798,
,,,,0,0,0,0,105,0,105,0,,,,,,,,,,,,,,,,,,,,,,,,,,,,,,,,,,,,,,,,,,,,,,105,4.0,m,016_y_m_h_a.jpg,happy,d,17,1,385.3574504000135,385.6536104799714,385.67802460002713,385.8135344800074,385.81661470001563,385.8548291800078,385.8576766999904,386.50072438009084,d,1,0.6318131999578327,631.8131999578327,385.8576766999904,386.50072438009084,386.5097666999791,387.7286944800988,EMOCONPILOT020,2021_Jan_04_1406,EmoCon_Pilot_120Hz,2020.2.4,120.20531077879798,
,,,,0,0,0,0,106,0,106,0,,,,,,,,,,,,,,,,,,,,,,,,,,,,,,,,,,,,,,,,,,,,,,106,7.0,f,012_o_f_n_a.jpg,neutral,s,17,1,387.7342415000312,388.02876227996313,388.24400310008787,388.40562458005735,388.4099863001611,388.4506217799615,388.45573860011064,389.51253448002973,s,1,1.0500296999234706,1050.0296999234706,388.45573860011064,389.51253448002973,389.52514370018616,390.5369647801388,EMOCONPILOT020,2021_Jan_04_1406,EmoCon_Pilot_120Hz,2020.2.4,120.20531077879798,
,,,,0,0,0,0,107,0,107,0,,,,,,,,,,,,,,,,,,,,,,,,,,,,,,,,,,,,,,,,,,,,,,107,11.0,f,030_o_f_h_a.jpg,happy,d,17,1,390.53974879998714,390.8370342801325,391.035426300019,391.19386737998576,391.19848800008185,391.23844108004124,391.24336930015124,391.98697748007254,d,1,0.7263738999608904,726.3738999608904,391.24336930015124,391.98697748007254,391.997119900072,393.9037644799799,EMOCONPILOT020,2021_Jan_04_1406,EmoCon_Pilot_120Hz,2020.2.4,120.20531077879798,
,,,,0,0,0,0,108,0,108,0,,,,,,,,,,,,,,,,,,,,,,,,,,,,,,,,,,,,,,,,,,,,,,108,1.0,m,004_o_m_s_a.jpg,sad,a,17,1,393.90793260000646,394.2037922800053,394.2289909000974,394.36384908012116,394.36566140013747,394.40511748003775,394.408039300004,395.1895850800909,a,1,0.76948789996095,769.48789996095,394.408039300004,395.1895850800909,395.1982649001293,396.8538400800433,EMOCONPILOT020,2021_Jan_04_1406,EmoCon_Pilot_120Hz,2020.2.4,120.20531077879798,
,,,,0,0,0,0,109,0,109,0,,,,,,,,,,,,,,,,,,,,,,,,,,,,,,,,,,,,,,,,,,,,,,109,3.0,m,013_y_m_n_a.jpg,neutral,s,3,1,396.85777150001377,397.1538379799575,397.393477300182,397.4178150800988,397.4187801000662,397.45504078008236,397.4565030001104,398.2260574800428,s,1,0.7530289001297206,753.0289001297206,397.4565030001104,398.2260574800428,398.23541500000283,399.55395028013737,EMOCONPILOT020,2021_Jan_04_1406,EmoCon_Pilot_120Hz,2020.2.4,120.20531077879798,
,,,,0,0,0,0,110,0,110,0,,,,,,,,,,,,,,,,,,,,,,,,,,,,,,,,,,,,,,,,,,,,,,110,10.0,f,028_y_f_s_a.jpg,sad,a,17,1,399.55690079997294,399.85399697995746,399.8740972999949,400.0054278801661,400.0082525999751,400.0468346799724,400.04863740014844,400.51672658016906,a,1,0.45684930006973445,456.84930006973445,400.04863740014844,400.51672658016906,400.52514060004614,402.40399998002687,EMOCONPILOT020,2021_Jan_04_1406,EmoCon_Pilot_120Hz,2020.2.4,120.20531077879798,
,,,,0,0,0,0,111,0,111,0,,,,,,,,,,,,,,,,,,,,,,,,,,,,,,,,,,,,,,,,,,,,,,111,11.0,f,030_o_f_h_a.jpg,happy,d,3,1,402.4080425000284,402.70403718012386,402.91924030007794,402.94526248001495,402.94534109998494,402.98029687996024,402.9802463001106,403.6362181801349,d,1,0.6454282000195235,645.4282000195235,402.9802463001106,403.6362181801349,403.6452353000641,404.76228708000855,EMOCONPILOT020,2021_Jan_04_1406,EmoCon_Pilot_120Hz,2020.2.4,120.20531077879798,
,,,,0,0,0,0,112,0,112,0,,,,,,,,,,,,,,,,,,,,,,,,,,,,,,,,,,,,,,,,,,,,,,112,7.0,f,012_o_f_n_a.jpg,neutral,s,17,1,404.7652535000816,405.06237078011037,405.2634531001095,405.435784780141,405.4403368001804,405.4815168801695,405.48636610014364,405.9628901800141,s,1,0.46732089994475245,467.32089994475245,405.48636610014364,405.9628901800141,405.97352450015023,407.0454254801851,EMOCONPILOT020,2021_Jan_04_1406,EmoCon_Pilot_120Hz,2020.2.4,120.20531077879798,
,,,,0,0,0,0,113,0,113,0,,,,,,,,,,,,,,,,,,,,,,,,,,,,,,,,,,,,,,,,,,,,,,113,2.0,m,008_y_m_s_a.jpg,sad,a,3,1,407.045413200045,407.34583168006503,407.5837583001703,407.61041378015653,407.61512770014815,407.656165680103,407.6612854001578,408.6400419801474,a,1,0.9643771999981254,964.3771999981254,407.6612854001578,408.6400419801474,408.6475041999947,409.86247888016516,EMOCONPILOT020,2021_Jan_04_1406,EmoCon_Pilot_120Hz,2020.2.4,120.20531077879798,
,,,,0,0,0,0,114,0,114,0,,,,,,,,,,,,,,,,,,,,,,,,,,,,,,,,,,,,,,,,,,,,,,114,11.0,f,030_o_f_h_a.jpg,happy,d,3,1,409.86653100000694,410.16260758014397,410.3513564001769,410.37730097998866,410.3774976001587,410.4135160799604,410.4148252001032,410.9209613799583,d,1,0.49071629997342825,490.71629997342825,410.4148252001032,410.9209613799583,410.9286118999589,412.3542836801615,EMOCONPILOT020,2021_Jan_04_1406,EmoCon_Pilot_120Hz,2020.2.4,120.20531077879798,
,,,,0,0,0,0,115,0,115,0,,,,,,,,,,,,,,,,,,,,,,,,,,,,,,,,,,,,,,,,,,,,,,115,3.0,m,013_y_m_h_a.jpg,happy,d,3,1,412.36015389999375,412.65427428013646,412.8928024000488,412.9168940800708,412.91720900009386,412.9554706799798,412.95652560004964,413.5005552800838,d,1,0.5329458999913186,532.9458999913186,412.95652560004964,413.5005552800838,413.5078619001433,415.29583618016915,EMOCONPILOT020,2021_Jan_04_1406,EmoCon_Pilot_120Hz,2020.2.4,120.20531077879798,
,,,,0,0,0,0,116,0,116,0,,,,,,,,,,,,,,,,,,,,,,,,,,,,,,,,,,,,,,,,,,,,,,116,2.0,m,008_y_m_s_a.jpg,sad,a,3,1,415.2988220001571,415.5958817800973,415.82416710001417,415.84996397998185,415.85036170016974,415.88628268004396,415.8879397001583,416.87685998012313,a,1,0.9777540999930352,977.7540999930352,415.8879397001583,416.87685998012313,416.8879444000777,418.779296579957,EMOCONPILOT020,2021_Jan_04_1406,EmoCon_Pilot_120Hz,2020.2.4,120.20531077879798,
,,,,0,0,0,0,117,0,117,0,,,,,,,,,,,,,,,,,,,,,,,,,,,,,,,,,,,,,,,,,,,,,,117,3.0,m,013_y_m_n_a.jpg,neutral,s,3,1,418.78339240001515,419.0793700799812,419.30210070009343,419.32787207998336,419.32817270001397,419.36382298003883,419.36379320011474,420.0916370800231,s,1,0.7177080998662859,717.7080998662859,419.36379320011474,420.0916370800231,420.0987199000083,421.2710590799805,EMOCONPILOT020,2021_Jan_04_1406,EmoCon_Pilot_120Hz,2020.2.4,120.20531077879798,
,,,,0,0,0,0,118,0,118,0,,,,,,,,,,,,,,,,,,,,,,,,,,,,,,,,,,,,,,,,,,,,,,118,6.0,m,033_o_m_n_a.jpg,neutral,s,3,1,421.27523140003905,421.5710459800437,421.76695860014297,421.7926621799823,421.7933210001793,421.83065367997625,421.8321281000972,422.8564193800092,s,1,1.0174426001030952,1017.4426001030952,421.8321281000972,422.8564193800092,422.8637941000052,424.78788388003596,EMOCONPILOT020,2021_Jan_04_1406,EmoCon_Pilot_120Hz,2020.2.4,120.20531077879798,
,,,,0,0,0,0,119,0,119,0,,,,,,,,,,,,,,,,,,,,,,,,,,,,,,,,,,,,,,,,,,,,,,119,6.0,m,033_o_m_n_a.jpg,neutral,s,3,1,424.7938503001351,425.08792628017255,425.28864850010723,425.3145084799733,425.31766690011136,425.3584784799721,425.3636345001869,426.17956958008,s,1,0.8060652001295239,806.0652001295239,425.3636345001869,426.17956958008,426.18951930012554,428.02952168015764,EMOCONPILOT020,2021_Jan_04_1406,EmoCon_Pilot_120Hz,2020.2.4,120.20531077879798,
,,,,1,0,1,0,0,0,0,0,,,,,,,,,,,,,,,,,,,,,,,,,,,,,,,,,,,,,,,428.11512150010094,437.5487345801201,s,9.42272140015848,9422.72140015848,428.11512150010094,437.5487345801201,0,1.0,m,004_o_m_s_a.jpg,sad,a,2,2,437.55439599999227,437.8463469801471,437.8593976001721,437.8755674801767,437.8799291001633,437.9204067801591,437.9254320000764,438.62475498015993,a,1,0.6923838998191059,692.3838998191059,437.9254320000764,438.62475498015993,438.638888000045,439.6297431799583,EMOCONPILOT020,2021_Jan_04_1406,EmoCon_Pilot_120Hz,2020.2.4,120.20531077879798,
,,,,1,0,1,0,1,0,1,0,,,,,,,,,,,,,,,,,,,,,,,,,,,,,,,,,,,,,,,,,,,,,,1,9.0,f,021_o_f_n_a.jpg,neutral,s,2,2,439.63341340003535,439.92982088001446,440.1558652999811,440.17305138004014,440.1738246001769,440.2090679800138,440.2093337001279,441.0509626799729,s,1,0.8245495001319796,824.5495001319796,440.2093337001279,441.0509626799729,441.06157799996436,442.42980177998544,EMOCONPILOT020,2021_Jan_04_1406,EmoCon_Pilot_120Hz,2020.2.4,120.20531077879798,
,,,,1,0,1,0,2,0,2,0,,,,,,,,,,,,,,,,,,,,,,,,,,,,,,,,,,,,,,,,,,,,,,2,11.0,f,030_o_f_s_a.jpg,sad,a,17,2,442.4339006000664,442.7298136800062,442.9217624999583,443.0786878801417,443.0822114001494,443.1199375800323,443.1228466001339,444.41562408017927,a,1,1.2787371999584138,1278.7371999584138,443.1228466001339,444.41562408017927,444.42579020000994,446.02995738009923,EMOCONPILOT020,2021_Jan_04_1406,EmoCon_Pilot_120Hz,2020.2.4,120.20531077879798,
,,,,1,0,1,0,3,0,3,0,,,,,,,,,,,,,,,,,,,,,,,,,,,,,,,,,,,,,,,,,,,,,,3,10.0,f,028_y_f_s_a.jpg,sad,a,17,2,446.0354383001104,446.32994718006813,446.3553836001083,446.49001017999836,446.4927565001417,446.5311741800513,446.53394059999846,448.2000317801256,None,0,,,446.53394059999846,448.2000317801256,448.2048051999882,449.89665168006906,EMOCONPILOT020,2021_Jan_04_1406,EmoCon_Pilot_120Hz,2020.2.4,120.20531077879798,
,,,,1,0,1,0,4,0,4,0,,,,,,,,,,,,,,,,,,,,,,,,,,,,,,,,,,,,,,,,,,,,,,4,6.0,m,033_o_m_n_a.jpg,neutral,s,17,2,449.90078669996,450.19672607998365,450.413486600155,450.5730558800977,450.57771100010723,450.6175241800491,450.6220816001296,451.7316706801765,s,1,1.0996565001551062,1099.6565001551062,450.6220816001296,451.7316706801765,451.7450262000784,453.08842618013733,EMOCONPILOT020,2021_Jan_04_1406,EmoCon_Pilot_120Hz,2020.2.4,120.20531077879798,
,,,,1,0,1,0,5,0,5,0,,,,,,,,,,,,,,,,,,,,,,,,,,,,,,,,,,,,,,,,,,,,,,5,1.0,m,004_o_m_n_a.jpg,neutral,s,2,2,453.0938180000521,453.38844048017637,453.58708379999734,453.604226980079,453.6052093000617,453.64147407999263,453.6410100001376,454.92931388011203,s,1,1.272639499977231,1272.639499977231,453.6410100001376,454.92931388011203,454.93757600011304,456.53846688005143,EMOCONPILOT020,2021_Jan_04_1406,EmoCon_Pilot_120Hz,2020.2.4,120.20531077879798,
,,,,1,0,1,0,6,0,6,0,,,,,,,,,,,,,,,,,,,,,,,,,,,,,,,,,,,,,,,,,,,,,,6,12.0,f,040_y_f_s_a.jpg,sad,a,2,2,456.5426100001205,456.83850868018345,456.86352819995955,456.8789484800771,456.8798092000652,456.9144986799918,456.9138854001649,457.8189948801417,s,0,0.8880316999275237,888.0316999275237,456.9138854001649,457.8189948801417,457.8298182000872,459.0385799800977,EMOCONPILOT020,2021_Jan_04_1406,EmoCon_Pilot_120Hz,2020.2.4,120.20531077879798,
,,,,1,0,1,0,7,0,7,0,,,,,,,,,,,,,,,,,,,,,,,,,,,,,,,,,,,,,,,,,,,,,,7,9.0,f,021_o_f_n_a.jpg,neutral,s,17,2,459.0432981001213,459.33860307997094,459.55215890007094,459.7108009801712,459.7158319000155,459.75520888012835,459.7599916001782,460.67400367995725,s,1,0.9056977001018822,905.6977001018822,459.7599916001782,460.67400367995725,460.6854258000385,462.0720020799898,EMOCONPILOT020,2021_Jan_04_1406,EmoCon_Pilot_120Hz,2020.2.4,120.20531077879798,
,,,,1,0,1,0,8,0,8,0,,,,,,,,,,,,,,,,,,,,,,,,,,,,,,,,,,,,,,,,,,,,,,8,9.0,f,021_o_f_s_a.jpg,sad,a,17,2,462.07625090004876,462.3719724800438,462.38699929998256,462.5235852801241,462.526813399978,462.5659289799631,462.57120010000654,463.3543300800491,a,1,0.7666265000589192,766.6265000589192,462.57120010000654,463.3543300800491,463.3657480000984,465.0470679800026,EMOCONPILOT020,2021_Jan_04_1406,EmoCon_Pilot_120Hz,2020.2.4,120.20531077879798,
,,,,1,0,1,0,9,0,9,0,,,,,,,,,,,,,,,,,,,,,,,,,,,,,,,,,,,,,,,,,,,,,,9,4.0,m,016_y_m_s_a.jpg,sad,a,2,2,465.0510462000966,465.346969080111,465.3620141001884,465.3769355800003,465.3770910000894,465.4148687801324,465.4157647001557,466.22678498011084,s,0,0.8018048000521958,801.8048000521958,465.4157647001557,466.22678498011084,466.23560720006935,467.4721698800102,EMOCONPILOT020,2021_Jan_04_1406,EmoCon_Pilot_120Hz,2020.2.4,120.20531077879798,
,,,,1,0,1,0,10,0,10,0,,,,,,,,,,,,,,,,,,,,,,,,,,,,,,,,,,,,,,,,,,,,,,10,7.0,f,012_o_f_n_a.jpg,neutral,s,2,2,467.47778870002367,467.77209958010354,467.99888200010173,468.01674108016306,468.0176369000692,468.0521760801319,468.05211880011484,469.6782436801121,None,0,,,468.05211880011484,469.6782436801121,469.68328860006295,471.2637950800825,EMOCONPILOT020,2021_Jan_04_1406,EmoCon_Pilot_120Hz,2020.2.4,120.20531077879798,
,,,,1,0,1,0,11,0,11,0,,,,,,,,,,,,,,,,,,,,,,,,,,,,,,,,,,,,,,,,,,,,,,11,2.0,m,008_y_m_n_a.jpg,neutral,s,17,2,471.26761450013146,471.56374567998574,471.79816900007427,471.956994080171,471.96185449999757,472.0026796799619,472.0079976001289,472.5679589800537,s,1,0.5456167999655008,545.6167999655008,472.0079976001289,472.5679589800537,472.5786117000971,473.92224748008886,EMOCONPILOT020,2021_Jan_04_1406,EmoCon_Pilot_120Hz,2020.2.4,120.20531077879798,
,,,,1,0,1,0,12,0,12,0,,,,,,,,,,,,,,,,,,,,,,,,,,,,,,,,,,,,,,,,,,,,,,12,1.0,m,004_o_m_s_a.jpg,sad,a,2,2,473.9266618001275,474.222216380015,474.24210659996606,474.2576759801712,474.25842610001564,474.2926668801345,474.292175100185,475.02732447995805,a,1,0.7253494998440146,725.3494998440146,474.292175100185,475.02732447995805,475.0347082000226,476.57223578002305,EMOCONPILOT020,2021_Jan_04_1406,EmoCon_Pilot_120Hz,2020.2.4,120.20531077879798,
,,,,1,0,1,0,13,0,13,0,,,,,,,,,,,,,,,,,,,,,,,,,,,,,,,,,,,,,,,,,,,,,,13,7.0,f,012_o_f_h_a.jpg,happy,d,17,2,476.576344500063,476.87222328009085,476.89657720015384,477.03224468017,477.0372842999641,477.0779907800723,477.08315710001625,477.70242248005235,d,1,0.6069038000423461,606.9038000423461,477.08315710001625,477.70242248005235,477.7144055000972,479.56409757998773,EMOCONPILOT020,2021_Jan_04_1406,EmoCon_Pilot_120Hz,2020.2.4,120.20531077879798,
,,,,1,0,1,0,14,0,14,0,,,,,,,,,,,,,,,,,,,,,,,,,,,,,,,,,,,,,,,,,,,,,,14,3.0,m,013_y_m_h_a.jpg,happy,d,17,2,479.56941900006495,479.8640970801469,480.1147751000244,480.26956187998877,480.2748094999697,480.3151646800805,480.32033749995753,480.6671296800021,d,1,0.3373805000446737,337.3805000446737,480.32033749995753,480.6671296800021,480.67878630012274,482.0140683801845,EMOCONPILOT020,2021_Jan_04_1406,EmoCon_Pilot_120Hz,2020.2.4,120.20531077879798,
,,,,1,0,1,0,15,0,15,0,,,,,,,,,,,,,,,,,,,,,,,,,,,,,,,,,,,,,,,,,,,,,,15,11.0,f,030_o_f_n_a.jpg,neutral,s,17,2,482.0179286999628,482.3139955801424,482.5168822000269,482.67896218011157,482.68369360012,482.72429938004353,482.72934369998984,484.38680937998,s,1,1.6405436000786722,1640.5436000786722,482.72934369998984,484.38680937998,484.39650210016407,485.8974501799792,EMOCONPILOT020,2021_Jan_04_1406,EmoCon_Pilot_120Hz,2020.2.4,120.20531077879798,
,,,,1,0,1,0,16,0,16,0,,,,,,,,,,,,,,,,,,,,,,,,,,,,,,,,,,,,,,,,,,,,,,16,3.0,m,013_y_m_n_a.jpg,neutral,s,2,2,485.9015367999673,486.197462480003,486.43694050004706,486.4540244801436,486.45460300007835,486.49023978011684,486.49014480016194,487.3472720800899,s,1,0.8473677998408675,847.3677998408675,486.49014480016194,487.3472720800899,487.3536924000364,489.0891333801672,EMOCONPILOT020,2021_Jan_04_1406,EmoCon_Pilot_120Hz,2020.2.4,120.20531077879798,
,,,,1,0,1,0,17,0,17,0,,,,,,,,,,,,,,,,,,,,,,,,,,,,,,,,,,,,,,,,,,,,,,17,9.0,f,021_o_f_h_a.jpg,happy,d,2,2,489.0919735999778,489.38913808013314,489.5972056000028,489.6142471800093,489.6148804000113,489.6493458800949,489.6498100999743,490.6413540800102,d,1,0.9760844002012163,976.0844002012163,489.6498100999743,490.6413540800102,490.65300519997254,492.6142525800504,EMOCONPILOT020,2021_Jan_04_1406,EmoCon_Pilot_120Hz,2020.2.4,120.20531077879798,
,,,,1,0,1,0,18,0,18,0,,,,,,,,,,,,,,,,,,,,,,,,,,,,,,,,,,,,,,,,,,,,,,18,3.0,m,013_y_m_s_a.jpg,sad,a,2,2,492.6181818000041,492.9142195800785,492.93700240016915,492.95227448008956,492.9529454000294,492.99053288013675,492.99165830016136,493.81055228011684,s,0,0.8099062999244779,809.9062999244779,492.99165830016136,493.81055228011684,493.81788860005327,495.1894350801129,EMOCONPILOT020,2021_Jan_04_1406,EmoCon_Pilot_120Hz,2020.2.4,120.20531077879798,
,,,,1,0,1,0,19,0,19,0,,,,,,,,,,,,,,,,,,,,,,,,,,,,,,,,,,,,,,,,,,,,,,19,10.0,f,028_y_f_h_a.jpg,happy,d,2,2,495.19472140003927,495.4893389800098,495.5116324000992,495.5266684800852,495.5276660001837,495.5655974801164,495.56556989997625,496.5045810800046,d,1,0.9320340000558645,932.0340000558645,495.56556989997625,496.5045810800046,496.5129203000106,498.1310621799901,EMOCONPILOT020,2021_Jan_04_1406,EmoCon_Pilot_120Hz,2020.2.4,120.20531077879798,
,,,,1,0,1,0,20,0,20,0,,,,,,,,,,,,,,,,,,,,,,,,,,,,,,,,,,,,,,,,,,,,,,20,4.0,m,016_y_m_h_a.jpg,happy,d,2,2,498.13521019998007,498.43106798008085,498.4508756999858,498.46650528018364,498.4664253999945,498.50138798002155,498.50100690010004,499.16346118012444,d,1,0.6526991000864655,652.6991000864655,498.50100690010004,499.16346118012444,499.1716176001355,500.6062121800613,EMOCONPILOT020,2021_Jan_04_1406,EmoCon_Pilot_120Hz,2020.2.4,120.20531077879798,
,,,,1,0,1,0,21,0,21,0,,,,,,,,,,,,,,,,,,,,,,,,,,,,,,,,,,,,,,,,,,,,,,21,6.0,m,033_o_m_h_a.jpg,happy,d,2,2,500.6118233001325,500.9061763800681,500.9260884001851,500.9414790800773,500.94236860005185,500.9767125800252,500.97705210000277,501.67738268007525,d,1,0.6885198000818491,688.5198000818491,500.97705210000277,501.67738268007525,501.68493330013007,503.2561796800699,EMOCONPILOT020,2021_Jan_04_1406,EmoCon_Pilot_120Hz,2020.2.4,120.20531077879798,
,,,,1,0,1,0,22,0,22,0,,,,,,,,,,,,,,,,,,,,,,,,,,,,,,,,,,,,,,,,,,,,,,22,5.0,m,027_o_m_s_a.jpg,sad,a,2,2,503.26039710012265,503.5561348800082,503.5795793000143,503.5945812800899,503.59633720014244,503.6336479801219,503.63514839997515,505.201801380096,s,0,1.5588477000128478,1558.8477000128478,503.63514839997515,505.201801380096,505.2135592000559,506.7478495800868,EMOCONPILOT020,2021_Jan_04_1406,EmoCon_Pilot_120Hz,2020.2.4,120.20531077879798,
,,,,1,0,1,0,23,0,23,0,,,,,,,,,,,,,,,,,,,,,,,,,,,,,,,,,,,,,,,,,,,,,,23,10.0,f,028_y_f_n_a.jpg,neutral,s,2,2,506.7519410001114,507.04786068010145,507.26747120008804,507.28426847998054,507.28417400014587,507.31844628015534,507.3181773000397,508.24467247999274,s,1,0.9153324000071734,915.3324000071734,507.3181773000397,508.24467247999274,508.2481827000156,509.97290298012086,EMOCONPILOT020,2021_Jan_04_1406,EmoCon_Pilot_120Hz,2020.2.4,120.20531077879798,
,,,,1,0,1,0,24,0,24,0,,,,,,,,,,,,,,,,,,,,,,,,,,,,,,,,,,,,,,,,,,,,,,24,9.0,f,021_o_f_n_a.jpg,neutral,s,17,2,509.9767483000178,510.2729055799544,510.4762885000091,510.6381953800563,510.6427256001625,510.6837736800779,510.68874150002375,511.303416180145,s,1,0.6007010999601334,600.7010999601334,510.68874150002375,511.303416180145,511.3063552000094,513.248064580094,EMOCONPILOT020,2021_Jan_04_1406,EmoCon_Pilot_120Hz,2020.2.4,120.20531077879798,
,,,,1,0,1,0,25,0,25,0,,,,,,,,,,,,,,,,,,,,,,,,,,,,,,,,,,,,,,,,,,,,,,25,8.0,f,019_m_f_h_a.jpg,happy,d,17,2,513.2532914001495,513.5480411799624,513.5651956000365,513.6996238801628,513.702564000152,513.7417846801225,513.745866100071,514.4025684799533,d,1,0.6477753999643028,647.7753999643028,513.745866100071,514.4025684799533,514.4152113001328,515.889724680176,EMOCONPILOT020,2021_Jan_04_1406,EmoCon_Pilot_120Hz,2020.2.4,120.20531077879798,
,,,,1,0,1,0,26,0,26,0,,,,,,,,,,,,,,,,,,,,,,,,,,,,,,,,,,,,,,,,,,,,,,26,4.0,m,016_y_m_n_a.jpg,neutral,s,17,2,515.8938923999667,516.1897363799624,516.4396302001551,516.5961261800956,516.6004524000455,516.6411318801809,516.6462587001733,517.3718556800857,s,1,0.7154699999373406,715.4699999373406,516.6462587001733,517.3718556800857,517.3800075000618,519.339847780019,EMOCONPILOT020,2021_Jan_04_1406,EmoCon_Pilot_120Hz,2020.2.4,120.20531077879798,
,,,,1,0,1,0,27,0,27,0,,,,,,,,,,,,,,,,,,,,,,,,,,,,,,,,,,,,,,,,,,,,,,27,1.0,m,004_o_m_h_a.jpg,happy,d,17,2,519.3452532000374,519.6399205801542,519.8369357001502,519.9966581800952,520.0006121001206,520.0393047800287,520.0443480000831,520.4814301800914,d,1,0.4293839999008924,429.3839999008924,520.0443480000831,520.4814301800914,520.4928743001074,521.9649128801655,EMOCONPILOT020,2021_Jan_04_1406,EmoCon_Pilot_120Hz,2020.2.4,120.20531077879798,
,,,,1,0,1,0,28,0,28,0,,,,,,,,,,,,,,,,,,,,,,,,,,,,,,,,,,,,,,,,,,,,,,28,10.0,f,028_y_f_s_a.jpg,sad,a,2,2,521.970262600109,522.2649991800542,522.285907200072,522.3017473800107,522.3023141000886,522.33714708006,522.3385040999856,523.2156898800283,s,0,0.8631619999650866,863.1619999650866,522.3385040999856,523.2156898800283,523.2240248001181,524.3067200800403,EMOCONPILOT020,2021_Jan_04_1406,EmoCon_Pilot_120Hz,2020.2.4,120.20531077879798,
,,,,1,0,1,0,29,0,29,0,,,,,,,,,,,,,,,,,,,,,,,,,,,,,,,,,,,,,,,,,,,,,,29,5.0,m,027_o_m_h_a.jpg,happy,d,2,2,524.312170300167,524.6066306801047,524.8215998001397,524.8386755801737,524.8406919001136,524.8777131801005,524.8821535001043,525.6693986800499,d,1,0.7755473998840898,775.5473998840898,524.8821535001043,525.6693986800499,525.6805390999652,527.2898707801476,EMOCONPILOT020,2021_Jan_04_1406,EmoCon_Pilot_120Hz,2020.2.4,120.20531077879798,
,,,,1,0,1,0,30,0,30,0,,,,,,,,,,,,,,,,,,,,,,,,,,,,,,,,,,,,,,,,,,,,,,30,10.0,f,028_y_f_h_a.jpg,happy,d,17,2,527.2927723999601,527.5899452801793,527.6089161001146,527.7416171801276,527.7458313000388,527.7869379801675,527.7919840000104,528.2901202800683,d,1,0.489698100136593,489.698100136593,527.7919840000104,528.2901202800683,528.3016582999844,530.0650356800295,EMOCONPILOT020,2021_Jan_04_1406,EmoCon_Pilot_120Hz,2020.2.4,120.20531077879798,
,,,,1,0,1,0,31,0,31,0,,,,,,,,,,,,,,,,,,,,,,,,,,,,,,,,,,,,,,,,,,,,,,31,5.0,m,027_o_m_h_a.jpg,happy,d,2,2,530.0691625000909,530.3650954800657,530.5741402001586,530.591217979975,530.5917303999886,530.6271515800152,530.6277869001497,531.2429613801185,d,1,0.6057889999356121,605.7889999356121,530.6277869001497,531.2429613801185,531.2514141001739,533.0318078801035,EMOCONPILOT020,2021_Jan_04_1406,EmoCon_Pilot_120Hz,2020.2.4,120.20531077879798,
,,,,1,0,1,0,32,0,32,0,,,,,,,,,,,,,,,,,,,,,,,,,,,,,,,,,,,,,,,,,,,,,,32,9.0,f,021_o_f_n_a.jpg,neutral,s,17,2,533.0372645000461,533.3318022801075,533.5449463000987,533.7121162800584,533.7167343001347,533.7579561799764,533.7628260999918,534.3211742799729,s,1,0.5426647001877427,542.6647001877427,533.7628260999918,534.3211742799729,534.3278518000152,536.2735693801194,EMOCONPILOT020,2021_Jan_04_1406,EmoCon_Pilot_120Hz,2020.2.4,120.20531077879798,
,,,,1,0,1,0,33,0,33,0,,,,,,,,,,,,,,,,,,,,,,,,,,,,,,,,,,,,,,,,,,,,,,33,3.0,m,013_y_m_s_a.jpg,sad,a,17,2,536.2790243001655,536.5735585800837,536.598324800143,536.7335772800259,536.7371929001529,536.7755769800394,536.7794310001191,537.7365752800367,a,1,0.9421307002194226,942.1307002194226,536.7794310001191,537.7365752800367,537.7411474999972,538.9985543800983,EMOCONPILOT020,2021_Jan_04_1406,EmoCon_Pilot_120Hz,2020.2.4,120.20531077879798,
,,,,1,0,1,0,34,0,34,0,,,,,,,,,,,,,,,,,,,,,,,,,,,,,,,,,,,,,,,,,,,,,,34,1.0,m,004_o_m_n_a.jpg,neutral,s,17,2,539.0013711000793,539.2986107801087,539.512152899988,539.6737287800759,539.6784594999626,539.7181753799784,539.7232946001459,540.9321745801251,s,1,1.1985156000591815,1198.5156000591815,539.7232946001459,540.9321745801251,540.9446266000159,542.4237423801794,EMOCONPILOT020,2021_Jan_04_1406,EmoCon_Pilot_120Hz,2020.2.4,120.20531077879798,
,,,,1,0,1,0,35,0,35,0,,,,,,,,,,,,,,,,,,,,,,,,,,,,,,,,,,,,,,,,,,,,,,35,12.0,f,040_y_f_h_a.jpg,happy,d,2,2,542.4290686000604,542.7236848801374,542.7397910000291,542.7551007801201,542.7559907999821,542.7915241801645,542.792871600017,543.4294201801065,d,1,0.6247312999330461,624.7312999330461,542.792871600017,543.4294201801065,543.4390412000939,545.1653853801079,EMOCONPILOT020,2021_Jan_04_1406,EmoCon_Pilot_120Hz,2020.2.4,120.20531077879798,
,,,,1,0,1,0,36,0,36,0,,,,,,,,,,,,,,,,,,,,,,,,,,,,,,,,,,,,,,,,,,,,,,36,10.0,f,028_y_f_n_a.jpg,neutral,s,17,2,545.1685193001758,545.4654229799751,545.6770224999636,545.8461218801792,545.8511954001151,545.8921102801803,545.8970500000287,546.4146344800945,s,1,0.5043756000231951,504.37560002319515,545.8970500000287,546.4146344800945,546.417908700183,548.3738962800242,EMOCONPILOT020,2021_Jan_04_1406,EmoCon_Pilot_120Hz,2020.2.4,120.20531077879798,
,,,,1,0,1,0,37,0,37,0,,,,,,,,,,,,,,,,,,,,,,,,,,,,,,,,,,,,,,,,,,,,,,37,11.0,f,030_o_f_n_a.jpg,neutral,s,2,2,548.3794180999976,548.6738000800367,548.8837139001116,548.901068780059,548.9014241001569,548.9358961800579,548.9359514999669,549.7784537800587,s,1,0.8336116001009941,833.6116001009941,548.9359514999669,549.7784537800587,549.7858394000214,551.5154873800464,EMOCONPILOT020,2021_Jan_04_1406,EmoCon_Pilot_120Hz,2020.2.4,120.20531077879798,
,,,,1,0,1,0,38,0,38,0,,,,,,,,,,,,,,,,,,,,,,,,,,,,,,,,,,,,,,,,,,,,,,38,1.0,m,004_o_m_h_a.jpg,happy,d,17,2,551.5195180999581,551.8154811800457,552.0173303000629,552.1740510800853,552.1786923999898,552.2197543801274,552.2248556001578,552.6510221801698,d,1,0.4168030999135226,416.8030999135226,552.2248556001578,552.6510221801698,552.6625155000947,553.9238849801011,EMOCONPILOT020,2021_Jan_04_1406,EmoCon_Pilot_120Hz,2020.2.4,120.20531077879798,
,,,,1,0,1,0,39,0,39,0,,,,,,,,,,,,,,,,,,,,,,,,,,,,,,,,,,,,,,,,,,,,,,39,6.0,m,033_o_m_h_a.jpg,happy,d,2,2,553.9297609999776,554.223878980102,554.2457322000992,554.261732679978,554.2659865999594,554.3065147799905,554.3115513999946,555.0198883800301,d,1,0.6980628999881446,698.0628999881446,554.3115513999946,555.0198883800301,555.0281746999826,556.7406211799942,EMOCONPILOT020,2021_Jan_04_1406,EmoCon_Pilot_120Hz,2020.2.4,120.20531077879798,
,,,,1,0,1,0,40,0,40,0,,,,,,,,,,,,,,,,,,,,,,,,,,,,,,,,,,,,,,,,,,,,,,40,7.0,f,012_o_f_h_a.jpg,happy,d,2,2,556.7448311999906,557.0406120800878,557.0628887000494,557.0777793800924,557.0785215001088,557.1168069801759,557.1181838000193,557.7526460801716,d,1,0.6278031000401825,627.8031000401825,557.1181838000193,557.7526460801716,557.7640786000993,559.5740454801823,EMOCONPILOT020,2021_Jan_04_1406,EmoCon_Pilot_120Hz,2020.2.4,120.20531077879798,
,,,,1,0,1,0,41,0,41,0,,,,,,,,,,,,,,,,,,,,,,,,,,,,,,,,,,,,,,,,,,,,,,41,6.0,m,033_o_m_n_a.jpg,neutral,s,17,2,559.5791861000471,559.8739161800593,560.0875556000974,560.2428287800401,560.2463209000416,560.2874483800958,560.2925287000835,561.2086007801815,s,1,0.9011379999574274,901.1379999574274,560.2925287000835,561.2086007801815,561.2162621000316,563.0074917801655,EMOCONPILOT020,2021_Jan_04_1406,EmoCon_Pilot_120Hz,2020.2.4,120.20531077879798,
,,,,1,0,1,0,42,0,42,0,,,,,,,,,,,,,,,,,,,,,,,,,,,,,,,,,,,,,,,,,,,,,,42,7.0,f,012_o_f_h_a.jpg,happy,d,17,2,563.0130706999917,563.3074785801116,563.3327193001751,563.4674540799576,563.4694497000892,563.5086744799744,563.5107977001462,564.0472625800874,d,1,0.5231977000366896,523.1977000366896,563.5107977001462,564.0472625800874,564.058288600063,565.4324659800156,EMOCONPILOT020,2021_Jan_04_1406,EmoCon_Pilot_120Hz,2020.2.4,120.20531077879798,
,,,,1,0,1,0,43,0,43,0,,,,,,,,,,,,,,,,,,,,,,,,,,,,,,,,,,,,,,,,,,,,,,43,5.0,m,027_o_m_h_a.jpg,happy,d,17,2,565.4368221000768,565.7325178801082,565.9536097999662,566.1222747801337,566.1267596001271,566.1679138801526,566.1728771000635,566.57016138006,d,1,0.38896130002103746,388.96130002103746,566.1728771000635,566.57016138006,566.5816987000871,568.2493190799839,EMOCONPILOT020,2021_Jan_04_1406,EmoCon_Pilot_120Hz,2020.2.4,120.20531077879798,
,,,,1,0,1,0,44,0,44,0,,,,,,,,,,,,,,,,,,,,,,,,,,,,,,,,,,,,,,,,,,,,,,44,10.0,f,028_y_f_s_a.jpg,sad,a,2,2,568.2548915001098,568.5492755800485,568.5741116001736,568.589287880063,568.5911964001134,568.6260645801201,568.6270062001422,569.2415468801744,d,0,0.6068274998106062,606.8274998106062,568.6270062001422,569.2415468801744,569.254255700158,570.7076021800283,EMOCONPILOT020,2021_Jan_04_1406,EmoCon_Pilot_120Hz,2020.2.4,120.20531077879798,
,,,,1,0,1,0,45,0,45,0,,,,,,,,,,,,,,,,,,,,,,,,,,,,,,,,,,,,,,,,,,,,,,45,7.0,f,012_o_f_n_a.jpg,neutral,s,17,2,570.7129687999841,571.0076935800723,571.2217778000049,571.3866733801085,571.3912327999715,571.43215468009,571.4371663001366,571.9274872801732,s,1,0.4768326000776142,476.8326000776142,571.4371663001366,571.9274872801732,571.937331299996,573.607595279999,EMOCONPILOT020,2021_Jan_04_1406,EmoCon_Pilot_120Hz,2020.2.4,120.20531077879798,
,,,,1,0,1,0,46,0,46,0,,,,,,,,,,,,,,,,,,,,,,,,,,,,,,,,,,,,,,,,,,,,,,46,1.0,m,004_o_m_n_a.jpg,neutral,s,17,2,573.6117132999934,573.9076287801843,574.1113785000052,574.2719943800009,574.276854700176,574.3178269799798,574.3228050000034,575.016678480152,s,1,0.6786816001404077,678.6816001404077,574.3228050000034,575.016678480152,575.0214790999889,576.524259680137,EMOCONPILOT020,2021_Jan_04_1406,EmoCon_Pilot_120Hz,2020.2.4,120.20531077879798,
,,,,1,0,1,0,47,0,47,0,,,,,,,,,,,,,,,,,,,,,,,,,,,,,,,,,,,,,,,,,,,,,,47,9.0,f,021_o_f_h_a.jpg,happy,d,2,2,576.5272391000763,576.8242847800254,577.0373164000921,577.0547002800274,577.058187100105,577.0947074801195,577.0976603999734,577.9267748801037,d,1,0.8161417001392692,816.1417001392692,577.0976603999734,577.9267748801037,577.934441999998,579.1662176800426,EMOCONPILOT020,2021_Jan_04_1406,EmoCon_Pilot_120Hz,2020.2.4,120.20531077879798,
,,,,1,0,1,0,48,0,48,0,,,,,,,,,,,,,,,,,,,,,,,,,,,,,,,,,,,,,,,,,,,,,,48,10.0,f,028_y_f_n_a.jpg,neutral,s,17,2,579.1716553999577,579.4661151801236,579.6575226001441,579.8229656801093,579.8277555999812,579.8657728801015,579.8700977000408,580.7451759799849,s,1,0.8596547001507133,859.6547001507133,579.8700977000408,580.7451759799849,580.756722799968,582.5745551799889,EMOCONPILOT020,2021_Jan_04_1406,EmoCon_Pilot_120Hz,2020.2.4,120.20531077879798,
,,,,1,0,1,0,49,0,49,0,,,,,,,,,,,,,,,,,,,,,,,,,,,,,,,,,,,,,,,,,,,,,,49,7.0,f,012_o_f_h_a.jpg,happy,d,17,2,582.5800322000869,582.874621780077,582.8967079999857,583.0357964799739,583.0404168001842,583.0815308801364,583.0864760000259,583.675014679972,d,1,0.5793806000147015,579.3806000147015,583.0864760000259,583.675014679972,583.6866354001686,584.8495345799718,EMOCONPILOT020,2021_Jan_04_1406,EmoCon_Pilot_120Hz,2020.2.4,120.20531077879798,
,,,,1,0,1,0,50,0,50,0,,,,,,,,,,,,,,,,,,,,,,,,,,,,,,,,,,,,,,,,,,,,,,50,5.0,m,027_o_m_h_a.jpg,happy,d,17,2,584.8537992001511,585.1495373800396,585.3708933000453,585.540699180169,585.545446400065,585.5862474799621,585.5905737001449,586.0800397800747,d,1,0.4753221001010388,475.3221001010388,585.5905737001449,586.0800397800747,586.091293600155,587.8246360800229,EMOCONPILOT020,2021_Jan_04_1406,EmoCon_Pilot_120Hz,2020.2.4,120.20531077879798,
,,,,1,0,1,0,51,0,51,0,,,,,,,,,,,,,,,,,,,,,,,,,,,,,,,,,,,,,,,,,,,,,,51,12.0,f,040_y_f_n_a.jpg,neutral,s,2,2,587.829935700167,588.1246896800119,588.3448979000095,588.3618938801344,588.3649860001169,588.4029469801578,588.4074681999628,588.9874466801527,s,1,0.57036880007945,570.36880007945,588.4074681999628,588.9874466801527,588.9989949001465,590.8996539799962,EMOCONPILOT020,2021_Jan_04_1406,EmoCon_Pilot_120Hz,2020.2.4,120.20531077879798,
,,,,1,0,1,0,52,0,52,0,,,,,,,,,,,,,,,,,,,,,,,,,,,,,,,,,,,,,,,,,,,,,,52,2.0,m,008_y_m_h_a.jpg,happy,d,17,2,590.9036826000083,591.1997144801542,591.2146156001836,591.3512783799786,591.3541115999687,591.3925930801313,591.3961778001394,592.0503119800239,d,1,0.6455943000037223,645.5943000037223,591.3961778001394,592.0503119800239,592.0611233999953,593.4830908800475,EMOCONPILOT020,2021_Jan_04_1406,EmoCon_Pilot_120Hz,2020.2.4,120.20531077879798,
,,,,1,0,1,0,53,0,53,0,,,,,,,,,,,,,,,,,,,,,,,,,,,,,,,,,,,,,,,,,,,,,,53,6.0,m,033_o_m_h_a.jpg,happy,d,17,2,593.4872828000225,593.7831681801006,593.7983854999766,593.9346518800128,593.9381202000659,593.9759747799951,593.9790027001873,594.3548110799863,d,1,0.36666089994832873,366.66089994832873,593.9790027001873,594.3548110799863,594.3633415000513,596.2664363800548,EMOCONPILOT020,2021_Jan_04_1406,EmoCon_Pilot_120Hz,2020.2.4,120.20531077879798,
,,,,1,0,1,0,54,0,54,0,,,,,,,,,,,,,,,,,,,,,,,,,,,,,,,,,,,,,,,,,,,,,,54,2.0,m,008_y_m_h_a.jpg,happy,d,2,2,596.2705598999746,596.5664669801015,596.5827295000199,596.5978450800292,596.5986149001401,596.635255280137,596.6364494999871,597.2100450801197,d,1,0.557318199891597,557.318199891597,596.6364494999871,597.2100450801197,597.2180864000693,598.7748522799927,EMOCONPILOT020,2021_Jan_04_1406,EmoCon_Pilot_120Hz,2020.2.4,120.20531077879798,
,,,,1,0,1,0,55,0,55,0,,,,,,,,,,,,,,,,,,,,,,,,,,,,,,,,,,,,,,,,,,,,,,55,12.0,f,040_y_f_h_a.jpg,happy,d,2,2,598.7780806999654,599.0749341800808,599.1002102000639,599.11515588006,599.1158217999619,599.1513366801198,599.1526658001821,599.8161518801469,d,1,0.6491397998761386,649.1397998761386,599.1526658001821,599.8161518801469,599.8254344000015,601.2415349799674,EMOCONPILOT020,2021_Jan_04_1406,EmoCon_Pilot_120Hz,2020.2.4,120.20531077879798,
,,,,1,0,1,0,56,0,56,0,,,,,,,,,,,,,,,,,,,,,,,,,,,,,,,,,,,,,,,,,,,,,,56,10.0,f,028_y_f_n_a.jpg,neutral,s,17,2,601.2444525000174,601.5415309799835,601.7579626000952,601.9133397801313,601.9183559999801,601.9591820800676,601.9641772999894,602.3813198799733,s,1,0.40570870018564165,405.70870018564165,601.9641772999894,602.3813198799733,602.3888819001149,603.8666758799925,EMOCONPILOT020,2021_Jan_04_1406,EmoCon_Pilot_120Hz,2020.2.4,120.20531077879798,
,,,,1,0,1,0,57,0,57,0,,,,,,,,,,,,,,,,,,,,,,,,,,,,,,,,,,,,,,,,,,,,,,57,12.0,f,040_y_f_s_a.jpg,sad,a,2,2,603.8724484001286,604.1666238801088,604.1915440000594,604.2064998801332,604.2072942000814,604.2426828799769,604.2428330001421,605.7734773801174,d,0,1.5187512999400496,1518.7512999400496,604.2428330001421,605.7734773801174,605.7827846000437,607.2083140799775,EMOCONPILOT020,2021_Jan_04_1406,EmoCon_Pilot_120Hz,2020.2.4,120.20531077879798,
,,,,1,0,1,0,58,0,58,0,,,,,,,,,,,,,,,,,,,,,,,,,,,,,,,,,,,,,,,,,,,,,,58,5.0,m,027_o_m_n_a.jpg,neutral,s,2,2,607.2119034000207,607.5083236800972,607.7254800000228,607.7421012799721,607.7462302001659,607.7860963800456,607.7913750000298,608.5851371800061,s,1,0.7785191000439227,778.5191000439227,607.7913750000298,608.5851371800061,608.5966152001638,610.1417722801677,EMOCONPILOT020,2021_Jan_04_1406,EmoCon_Pilot_120Hz,2020.2.4,120.20531077879798,
,,,,1,0,1,0,59,0,59,0,,,,,,,,,,,,,,,,,,,,,,,,,,,,,,,,,,,,,,,,,,,,,,59,4.0,m,016_y_m_s_a.jpg,sad,a,17,2,610.1459923000075,610.4417420799844,610.4635715000331,610.6017574800178,610.6061728000641,610.6470246801152,610.6522127999924,611.3035338799934,a,1,0.637476900126785,637.476900126785,610.6522127999924,611.3035338799934,611.3163203999866,612.9168415800202,EMOCONPILOT020,2021_Jan_04_1406,EmoCon_Pilot_120Hz,2020.2.4,120.20531077879798,
,,,,1,0,1,0,60,0,60,0,,,,,,,,,,,,,,,,,,,,,,,,,,,,,,,,,,,,,,,,,,,,,,60,5.0,m,027_o_m_n_a.jpg,neutral,s,2,2,612.9222591000143,613.2168532800395,613.4299391000532,613.4472716801799,613.4480229001492,613.4846277799923,613.485200199997,614.16215188005,s,1,0.6607462998945266,660.7462998945266,613.485200199997,614.16215188005,614.1714278999716,615.3086265800055,EMOCONPILOT020,2021_Jan_04_1406,EmoCon_Pilot_120Hz,2020.2.4,120.20531077879798,
,,,,1,0,1,0,61,0,61,0,,,,,,,,,,,,,,,,,,,,,,,,,,,,,,,,,,,,,,,,,,,,,,61,10.0,f,028_y_f_s_a.jpg,sad,a,17,2,615.3141430001706,615.6085735801141,615.6324398000725,615.7685976800974,615.7721690000035,615.8097677800804,615.8131596001331,616.5707413800526,a,1,0.7485565000679344,748.5565000679344,615.8131596001331,616.5707413800526,616.5818026000634,618.0669693799689,EMOCONPILOT020,2021_Jan_04_1406,EmoCon_Pilot_120Hz,2020.2.4,120.20531077879798,
,,,,1,0,1,0,62,0,62,0,,,,,,,,,,,,,,,,,,,,,,,,,,,,,,,,,,,,,,,,,,,,,,62,3.0,m,013_y_m_n_a.jpg,neutral,s,2,2,618.0709820999764,618.3669000800699,618.6106285999995,618.6279947801493,618.6283615001012,618.6641167799942,618.664592999965,619.6481262801215,s,1,0.9692356002051383,969.2356002051383,618.664592999965,619.6481262801215,619.6575423001777,621.575413980009,EMOCONPILOT020,2021_Jan_04_1406,EmoCon_Pilot_120Hz,2020.2.4,120.20531077879798,
,,,,1,0,1,0,63,0,63,0,,,,,,,,,,,,,,,,,,,,,,,,,,,,,,,,,,,,,,,,,,,,,,63,4.0,m,016_y_m_s_a.jpg,sad,a,17,2,621.5794635000639,621.8753322800155,621.8998484001495,622.0353203799575,622.0396732999943,622.0797706800047,622.0841029000003,622.7054900801274,a,1,0.6058489000424743,605.8489000424743,622.0841029000003,622.7054900801274,622.7162516000681,623.8253497799858,EMOCONPILOT020,2021_Jan_04_1406,EmoCon_Pilot_120Hz,2020.2.4,120.20531077879798,
,,,,1,0,1,0,64,0,64,0,,,,,,,,,,,,,,,,,,,,,,,,,,,,,,,,,,,,,,,,,,,,,,64,12.0,f,040_y_f_h_a.jpg,happy,d,2,2,623.829325000057,624.1253483800217,624.146479499992,624.16176488013,624.1623468000907,624.1968134801834,624.1982470999938,624.9754731801338,d,1,0.7636011000722647,763.6011000722647,624.1982470999938,624.9754731801338,624.9883424001746,626.0254496801178,EMOCONPILOT020,2021_Jan_04_1406,EmoCon_Pilot_120Hz,2020.2.4,120.20531077879798,
,,,,1,0,1,0,65,0,65,0,,,,,,,,,,,,,,,,,,,,,,,,,,,,,,,,,,,,,,,,,,,,,,65,5.0,m,027_o_m_n_a.jpg,neutral,s,2,2,626.030926699983,626.3254628800321,626.5371163999662,626.5545499801635,626.5556077000219,626.5933087800629,626.5931430000346,627.2034004800487,s,1,0.6005021999590099,600.5021999590099,626.5931430000346,627.2034004800487,627.2099957000464,629.1672043799888,EMOCONPILOT020,2021_Jan_04_1406,EmoCon_Pilot_120Hz,2020.2.4,120.20531077879798,
,,,,1,0,1,0,66,0,66,0,,,,,,,,,,,,,,,,,,,,,,,,,,,,,,,,,,,,,,,,,,,,,,66,6.0,m,033_o_m_s_a.jpg,sad,a,2,2,629.1734325001016,629.4671237801201,629.4870583000593,629.5024887800216,629.5024560999591,629.5378516800236,629.5384641001001,630.533814880019,a,1,0.9833219998981804,983.3219998981804,629.5384641001001,630.533814880019,630.5440460999962,632.20891508013,EMOCONPILOT020,2021_Jan_04_1406,EmoCon_Pilot_120Hz,2020.2.4,120.20531077879798,
,,,,1,0,1,0,67,0,67,0,,,,,,,,,,,,,,,,,,,,,,,,,,,,,,,,,,,,,,,,,,,,,,67,6.0,m,033_o_m_h_a.jpg,happy,d,2,2,632.2145645001438,632.5089207801036,632.5298209001776,632.5457539800088,632.5463174001779,632.5806726801209,632.5809612001758,633.1712053799536,d,1,0.5807223001029342,580.7223001029342,632.5809612001758,633.1712053799536,633.179623800097,635.1423580799717,EMOCONPILOT020,2021_Jan_04_1406,EmoCon_Pilot_120Hz,2020.2.4,120.20531077879798,
,,,,1,0,1,0,68,0,68,0,,,,,,,,,,,,,,,,,,,,,,,,,,,,,,,,,,,,,,,,,,,,,,68,2.0,m,008_y_m_s_a.jpg,sad,a,17,2,635.1466741000768,635.4423424801323,635.6918003000319,635.8610554800368,635.8655791000929,635.9064193800557,635.9115343999583,636.5940877801738,a,1,0.6662576999515295,666.2576999515295,635.9115343999583,636.5940877801738,636.6015483001247,637.867421880085,EMOCONPILOT020,2021_Jan_04_1406,EmoCon_Pilot_120Hz,2020.2.4,120.20531077879798,
,,,,1,0,1,0,69,0,69,0,,,,,,,,,,,,,,,,,,,,,,,,,,,,,,,,,,,,,,,,,,,,,,69,1.0,m,004_o_m_n_a.jpg,neutral,s,2,2,637.870470300084,638.1672955799847,638.3679119001608,638.3843517801258,638.3882937000599,638.4293187800329,638.4343860000372,639.7569220801349,s,1,1.3114829999394715,1311.4829999394715,638.4343860000372,639.7569220801349,639.7685184001457,641.484222380165,EMOCONPILOT020,2021_Jan_04_1406,EmoCon_Pilot_120Hz,2020.2.4,120.20531077879798,
,,,,1,0,1,0,70,0,70,0,,,,,,,,,,,,,,,,,,,,,,,,,,,,,,,,,,,,,,,,,,,,,,70,2.0,m,008_y_m_s_a.jpg,sad,a,2,2,641.4895016001537,641.7842253800015,642.0233823000453,642.0399412801023,642.0408059000038,642.0769680800847,642.0765887000598,643.5043602799531,s,0,1.4131351998075843,1413.1351998075843,642.0765887000598,643.5043602799531,643.512707100017,645.3341599800158,EMOCONPILOT020,2021_Jan_04_1406,EmoCon_Pilot_120Hz,2020.2.4,120.20531077879798,
,,,,1,0,1,0,71,0,71,0,,,,,,,,,,,,,,,,,,,,,,,,,,,,,,,,,,,,,,,,,,,,,,71,11.0,f,030_o_f_n_a.jpg,neutral,s,2,2,645.3369788001291,645.634147979971,645.8302478999831,645.8479417801834,645.8512991999742,645.8915716800373,645.8968368000351,647.6376756801735,None,0,,,645.8968368000351,647.6376756801735,647.6422419999726,649.5343792801257,EMOCONPILOT020,2021_Jan_04_1406,EmoCon_Pilot_120Hz,2020.2.4,120.20531077879798,
,,,,1,0,1,0,72,0,72,0,,,,,,,,,,,,,,,,,,,,,,,,,,,,,,,,,,,,,,,,,,,,,,72,11.0,f,030_o_f_n_a.jpg,neutral,s,2,2,649.5405070001725,649.834222680144,650.0218426999636,650.0394875800237,650.0400702001061,650.0770615799818,650.0770277001429,650.976832380006,s,1,0.8848581998609006,884.8581998609006,650.0770277001429,650.976832380006,650.9838527999818,652.8010873801074,EMOCONPILOT020,2021_Jan_04_1406,EmoCon_Pilot_120Hz,2020.2.4,120.20531077879798,
,,,,1,0,1,0,73,0,73,0,,,,,,,,,,,,,,,,,,,,,,,,,,,,,,,,,,,,,,,,,,,,,,73,2.0,m,008_y_m_s_a.jpg,sad,a,17,2,652.8065882001538,653.1010298800654,653.3324098000303,653.4974953801836,653.5017876001075,653.5430011800024,653.5478469000664,654.1094391799531,a,1,0.5499449998605996,549.9449998605996,653.5478469000664,654.1094391799531,654.1178193001542,655.2343408800195,EMOCONPILOT020,2021_Jan_04_1406,EmoCon_Pilot_120Hz,2020.2.4,120.20531077879798,
,,,,1,0,1,0,74,0,74,0,,,,,,,,,,,,,,,,,,,,,,,,,,,,,,,,,,,,,,,,,,,,,,74,11.0,f,030_o_f_n_a.jpg,neutral,s,2,2,655.2379364001099,655.5344384801108,655.7374713001773,655.7550209799781,655.7552038000431,655.7897541799582,655.7895888001658,656.9135455800686,a,0,1.1084016999229789,1108.4016999229789,655.7895888001658,656.9135455800686,656.9231179000344,658.8177455800585,EMOCONPILOT020,2021_Jan_04_1406,EmoCon_Pilot_120Hz,2020.2.4,120.20531077879798,
,,,,1,0,1,0,75,0,75,0,,,,,,,,,,,,,,,,,,,,,,,,,,,,,,,,,,,,,,,,,,,,,,75,1.0,m,004_o_m_s_a.jpg,sad,a,17,2,658.8217248001602,659.1178086800035,659.1396715000737,659.27782448004,659.2793823999818,659.3190932799596,659.320517500164,659.8505726800765,a,1,0.5211491000372916,521.1491000372916,659.320517500164,659.8505726800765,659.85810209997,661.2845390801783,EMOCONPILOT020,2021_Jan_04_1406,EmoCon_Pilot_120Hz,2020.2.4,120.20531077879798,
,,,,1,0,1,0,76,0,76,0,,,,,,,,,,,,,,,,,,,,,,,,,,,,,,,,,,,,,,,,,,,,,,76,3.0,m,013_y_m_n_a.jpg,neutral,s,17,2,661.2900241001043,661.5846072800457,661.8256109000649,661.9846770800184,661.9895501001738,662.0291514801327,662.0337975001894,662.5417930800002,s,1,0.49610109999775887,496.10109999775887,662.0337975001894,662.5417930800002,662.5544757000171,664.4763303801417,EMOCONPILOT020,2021_Jan_04_1406,EmoCon_Pilot_120Hz,2020.2.4,120.20531077879798,
,,,,1,0,1,0,77,0,77,0,,,,,,,,,,,,,,,,,,,,,,,,,,,,,,,,,,,,,,,,,,,,,,77,7.0,f,012_o_f_s_a.jpg,sad,a,17,2,664.4801823999733,664.7763036801014,664.7994079999626,664.9362269800156,664.9395413000602,664.9775515801273,664.9806324001402,665.4264484801795,a,1,0.4293760000728071,429.3760000728071,664.9806324001402,665.4264484801795,665.4363627000712,667.3346093801781,EMOCONPILOT020,2021_Jan_04_1406,EmoCon_Pilot_120Hz,2020.2.4,120.20531077879798,
,,,,1,0,1,0,78,0,78,0,,,,,,,,,,,,,,,,,,,,,,,,,,,,,,,,,,,,,,,,,,,,,,78,12.0,f,040_y_f_n_a.jpg,neutral,s,2,2,667.3388120001182,667.6346919801551,667.8468546001241,667.864134879969,667.8642790999729,667.8994118801318,667.8994639001321,668.5676206801552,s,1,0.6542112999595702,654.2112999595702,667.8994639001321,668.5676206801552,668.5749376001768,669.9929991801735,EMOCONPILOT020,2021_Jan_04_1406,EmoCon_Pilot_120Hz,2020.2.4,120.20531077879798,
,,,,1,0,1,0,79,0,79,0,,,,,,,,,,,,,,,,,,,,,,,,,,,,,,,,,,,,,,,,,,,,,,79,6.0,m,033_o_m_h_a.jpg,happy,d,17,2,669.9959923001006,670.2930113800801,670.314404200064,670.4445768801495,670.4478162000887,670.4859274799935,670.4890215999912,670.9017268800642,d,1,0.40076400013640523,400.76400013640523,670.4890215999912,670.9017268800642,670.9100155001506,672.0848159801214,EMOCONPILOT020,2021_Jan_04_1406,EmoCon_Pilot_120Hz,2020.2.4,120.20531077879798,
,,,,1,0,1,0,80,0,80,0,,,,,,,,,,,,,,,,,,,,,,,,,,,,,,,,,,,,,,,,,,,,,,80,2.0,m,008_y_m_n_a.jpg,neutral,s,2,2,672.0889282000717,672.3847905799746,672.6308487001806,672.6480200800113,672.6483144999947,672.6859257800504,672.6874728000257,673.2993731800932,s,1,0.6023626001551747,602.3626001551747,672.6874728000257,673.2993731800932,673.3088173000142,674.676462780172,EMOCONPILOT020,2021_Jan_04_1406,EmoCon_Pilot_120Hz,2020.2.4,120.20531077879798,
,,,,1,0,1,0,81,0,81,0,,,,,,,,,,,,,,,,,,,,,,,,,,,,,,,,,,,,,,,,,,,,,,81,12.0,f,040_y_f_h_a.jpg,happy,d,2,2,674.6816061001737,674.9764286800753,674.9997797000688,675.0147575800772,675.0165437001269,675.0534918801393,675.0532676000148,675.6951302801724,d,1,0.6284482998307794,628.4482998307794,675.0532676000148,675.6951302801724,675.7041321999859,677.1347670801449,EMOCONPILOT020,2021_Jan_04_1406,EmoCon_Pilot_120Hz,2020.2.4,120.20531077879798,
,,,,1,0,1,0,82,0,82,0,,,,,,,,,,,,,,,,,,,,,,,,,,,,,,,,,,,,,,,,,,,,,,82,9.0,f,021_o_f_h_a.jpg,happy,d,17,2,677.1376742001157,677.4348621801007,677.6509438001085,677.8187075801659,677.8233535999898,677.8643247801344,677.8686659999657,678.2347930799704,d,1,0.34926519985310733,349.26519985310733,677.8686659999657,678.2347930799704,678.246164600132,680.0182783801108,EMOCONPILOT020,2021_Jan_04_1406,EmoCon_Pilot_120Hz,2020.2.4,120.20531077879798,
,,,,1,0,1,0,83,0,83,0,,,,,,,,,,,,,,,,,,,,,,,,,,,,,,,,,,,,,,,,,,,,,,83,6.0,m,033_o_m_h_a.jpg,happy,d,17,2,680.0237094000913,680.3183786801062,680.339706200175,680.4699135801754,680.4735094001517,680.5124864801298,680.5176635000389,680.8024509800132,d,1,0.2683151999954134,268.3151999954134,680.5176635000389,680.8024509800132,680.8137374999933,682.4267064800486,EMOCONPILOT020,2021_Jan_04_1406,EmoCon_Pilot_120Hz,2020.2.4,120.20531077879798,
,,,,1,0,1,0,84,0,84,0,,,,,,,,,,,,,,,,,,,,,,,,,,,,,,,,,,,,,,,,,,,,,,84,2.0,m,008_y_m_n_a.jpg,neutral,s,17,2,682.4320865999907,682.7267784801777,682.9789949001279,683.1372324800584,683.1416776000988,683.1824548800475,683.1876732001547,683.6153793800156,s,1,0.4143407999072224,414.3407999072224,683.1876732001547,683.6153793800156,683.6266801999882,685.5351422801148,EMOCONPILOT020,2021_Jan_04_1406,EmoCon_Pilot_120Hz,2020.2.4,120.20531077879798,
,,,,1,0,1,0,85,0,85,0,,,,,,,,,,,,,,,,,,,,,,,,,,,,,,,,,,,,,,,,,,,,,,85,10.0,f,028_y_f_n_a.jpg,neutral,s,17,2,685.5384695001412,685.8349629800766,686.0577414999716,686.2159356800373,686.2208672000561,686.2616465801373,686.2668224000372,686.6724626800976,s,1,0.39099320000968874,390.99320000968874,686.2668224000372,686.6724626800976,686.6819721001666,687.8184878800064,EMOCONPILOT020,2021_Jan_04_1406,EmoCon_Pilot_120Hz,2020.2.4,120.20531077879798,
,,,,1,0,1,0,86,0,86,0,,,,,,,,,,,,,,,,,,,,,,,,,,,,,,,,,,,,,,,,,,,,,,86,6.0,m,033_o_m_h_a.jpg,happy,d,17,2,687.8224822001066,688.1184079800266,688.1427992000245,688.2784720800817,688.2818638000172,688.3196524800267,688.3228104000445,688.7539177799597,d,1,0.4149044998921454,414.9044998921454,688.3228104000445,688.7539177799597,688.7621734000277,690.4101663801819,EMOCONPILOT020,2021_Jan_04_1406,EmoCon_Pilot_120Hz,2020.2.4,120.20531077879798,
,,,,1,0,1,0,87,0,87,0,,,,,,,,,,,,,,,,,,,,,,,,,,,,,,,,,,,,,,,,,,,,,,87,5.0,m,027_o_m_s_a.jpg,sad,a,17,2,690.4158385000192,690.7101346801035,690.732236900134,690.8701410800684,690.8738471001852,690.9113261801656,690.9144199001603,692.4910770800896,a,1,1.5675138998776674,1567.5138998776674,690.9144199001603,692.4910770800896,692.4997899001464,694.3935627801809,EMOCONPILOT020,2021_Jan_04_1406,EmoCon_Pilot_120Hz,2020.2.4,120.20531077879798,
,,,,1,0,1,0,88,0,88,0,,,,,,,,,,,,,,,,,,,,,,,,,,,,,,,,,,,,,,,,,,,,,,88,7.0,f,012_o_f_s_a.jpg,sad,a,2,2,694.3977547001559,694.6935381800402,694.7165616001002,694.7314734800718,694.7325230001006,694.7697315800003,694.769772300031,695.5533717800397,d,0,0.7760056999977678,776.0056999977678,694.769772300031,695.5533717800397,695.5623002001084,697.0519571799784,EMOCONPILOT020,2021_Jan_04_1406,EmoCon_Pilot_120Hz,2020.2.4,120.20531077879798,
,,,,1,0,1,0,89,0,89,0,,,,,,,,,,,,,,,,,,,,,,,,,,,,,,,,,,,,,,,,,,,,,,89,2.0,m,008_y_m_h_a.jpg,happy,d,2,2,697.0560381000396,697.3519443801604,697.3726530000567,697.388345680153,697.3889778000303,697.4237783799879,697.4241386000067,698.2400889801327,d,1,0.8017472000792623,801.7472000792623,697.4241386000067,698.2400889801327,698.2478005001321,699.5603155800607,EMOCONPILOT020,2021_Jan_04_1406,EmoCon_Pilot_120Hz,2020.2.4,120.20531077879798,
,,,,1,0,1,0,90,0,90,0,,,,,,,,,,,,,,,,,,,,,,,,,,,,,,,,,,,,,,,,,,,,,,90,7.0,f,012_o_f_h_a.jpg,happy,d,2,2,699.5645359000191,699.8603021800052,699.8814378001262,699.8968881801236,699.897679900052,699.9326712800655,699.9326208999846,700.4396514801308,d,1,0.4931656999979168,493.1656999979168,699.9326208999846,700.4396514801308,700.4463553000242,702.2354128800332,EMOCONPILOT020,2021_Jan_04_1406,EmoCon_Pilot_120Hz,2020.2.4,120.20531077879798,
,,,,1,0,1,0,91,0,91,0,,,,,,,,,,,,,,,,,,,,,,,,,,,,,,,,,,,,,,,,,,,,,,91,10.0,f,028_y_f_s_a.jpg,sad,a,2,2,702.2408082999755,702.5355386801064,702.5576103001367,702.5725027799606,702.5736918000039,702.6115786800626,702.6117259999737,703.328936880175,s,0,0.7100801998749375,710.0801998749375,702.6117259999737,703.328936880175,703.3362212001812,704.610476180166,EMOCONPILOT020,2021_Jan_04_1406,EmoCon_Pilot_120Hz,2020.2.4,120.20531077879798,
,,,,1,0,1,0,92,0,92,0,,,,,,,,,,,,,,,,,,,,,,,,,,,,,,,,,,,,,,,,,,,,,,92,12.0,f,040_y_f_s_a.jpg,sad,a,17,2,704.6158690000884,704.9104707801714,704.9265858000144,705.0620985801331,705.065648100106,705.1066776799969,705.1119534999598,705.579261680087,a,1,0.45800399989821017,458.00399989821017,705.1119534999598,705.579261680087,705.5897805001587,707.3272038800176,EMOCONPILOT020,2021_Jan_04_1406,EmoCon_Pilot_120Hz,2020.2.4,120.20531077879798,
,,,,1,0,1,0,93,0,93,0,,,,,,,,,,,,,,,,,,,,,,,,,,,,,,,,,,,,,,,,,,,,,,93,2.0,m,008_y_m_n_a.jpg,neutral,s,17,2,707.3313681001309,707.6272052800748,707.876764500048,708.0380718800704,708.0426615001634,708.0835647801403,708.0883987001143,708.5139200801029,s,1,0.4176899001467973,417.6899001467973,708.0883987001143,708.5139200801029,708.5259692000691,709.9688730800524,EMOCONPILOT020,2021_Jan_04_1406,EmoCon_Pilot_120Hz,2020.2.4,120.20531077879798,
