trials_example.thisRepN,trials_example.thisTrialN,trials_example.thisN,trials_example.thisIndex,block.thisRepN,block.thisTrialN,block.thisN,block.thisIndex,trials_study.thisRepN,trials_study.thisTrialN,trials_study.thisN,trials_study.thisIndex,text_welcome.started,text_welcome.stopped,text_intro.started,text_intro.stopped,key_resp_intro.keys,key_resp_intro.started,key_resp_intro.stopped,text_intro2.started,text_intro2.stopped,key_resp_intro2.keys,key_resp_intro2.rt,key_resp_intro2.started,key_resp_intro2.stopped,example trial,personPrimeExample,genderPrimeExample,primeExample,emotionPrimeExample,corrAnsPrimeExample,example mask time,fix300_example.started,fix300_example.stopped,image_primer_example.started,image_primer_example.stopped,scrambled.started,scrambled.stopped,text_response_example.started,text_response_example.stopped,key_resp_example.keys,key_resp_example.corr,key_resp_example.started,key_resp_example.stopped,Jitter_example.started,Jitter_example.stopped,key_resp_example.rt,key_resp_example.rt in ms,text_start.started,text_start.stopped,text_pause.started,text_pause.stopped,key_resp_pause.keys,key_resp_pause.rt,key_resp_pause.rt in ms,key_resp_pause.started,key_resp_pause.stopped,study trial,personPrimeStudy,genderPrimeStudy,primeStudy,emotionPrimeStudy,corrAnsPrimeStudy,study mask time,Block,fix300_study.started,fix300_study.stopped,image_primer_study.started,image_primer_study.stopped,scrambled_study.started,scrambled_study.stopped,text_response_study.started,text_response_study.stopped,key_resp_study.keys,key_resp_study.corr,key_resp_study.started,key_resp_study.stopped,Jitter_study.started,Jitter_study.stopped,key_resp_study.rt,key_resp_study.rt in ms,participant,date,expName,psychopyVersion,frameRate,
,,,,,,,,,,,,21.108151799999177,24.092619879999255,24.096139499997662,29.79248357999895,None,24.096139499997662,29.79248357999895,,,,,,,,,,,,,,,,,,,,,,,,,,,,,,,,,,,,,,,,,,,,,,,,,,,,,,,,,,,,,,,EMOCONPILOT015,2021_Feb_18_1629,EmoCon_Pilot_120Hz,2020.2.4,119.98809718266654,
,,,,,,,,,,,,,,,,,,,29.795926799997687,34.05189617999931,a,4.2485063999993145,29.795926799997687,34.05189617999931,,,,,,,,,,,,,,,,,,,,,,,,,,,,,,,,,,,,,,,,,,,,,,,,,,,,,,,,,EMOCONPILOT015,2021_Feb_18_1629,EmoCon_Pilot_120Hz,2020.2.4,119.98809718266654,
0,0,0,0,,,,,,,,,,,,,,,,,,,,,,0,3.0,f,1113_y_f_s_a.jpg,sad,a,17,34.05928069999936,34.35103757999823,35.18541120000009,35.35497587999853,35.37705659999847,35.41330907999727,35.414432300000044,37.01490377999871,None,0,35.414432300000044,37.01490377999871,37.015787999996974,38.16799997999842,,,,,,,,,,,,,,,,,,,,,,,,,,,,,,,,,,,,EMOCONPILOT015,2021_Feb_18_1629,EmoCon_Pilot_120Hz,2020.2.4,119.98809718266654,
1,0,1,0,,,,,,,,,,,,,,,,,,,,,,1,1.0,m,1111_m_m_s_a.jpg,sad,a,3,38.17006609999953,38.46790487999751,38.67998279999665,38.70677097999796,38.70864399999846,38.748494379999464,38.75164849999783,39.564444579997506,d,0,38.75164849999783,39.564444579997506,39.564930199998344,41.29304057999834,0.8047640999975556,804.7640999975556,,,,,,,,,,,,,,,,,,,,,,,,,,,,,,,,,,EMOCONPILOT015,2021_Feb_18_1629,EmoCon_Pilot_120Hz,2020.2.4,119.98809718266654,
2,0,2,0,,,,,,,,,,,,,,,,,,,,,,2,3.0,f,1113_y_f_n_a.jpg,neutral,s,3,41.29454699999769,41.5929588799976,41.80597329999728,41.8319065799973,41.832080499996664,41.86916307999709,41.8692947999989,43.44103647999727,None,0,41.8692947999989,43.44103647999727,43.44372909999947,44.75973597999691,,,,,,,,,,,,,,,,,,,,,,,,,,,,,,,,,,,,EMOCONPILOT015,2021_Feb_18_1629,EmoCon_Pilot_120Hz,2020.2.4,119.98809718266654,
3,0,3,0,,,,,,,,,,,,,,,,,,,,,,3,2.0,f,1112_m_f_h_a.jpg,happy,d,3,44.76243819999945,45.05967197999998,45.2743109999974,45.30290217999791,45.3038704999999,45.33984917999842,45.33998249999786,46.965488879998155,None,0,45.33998249999786,46.965488879998155,46.966533299997536,48.50962537999876,,,,,,,,,,,,,,,,,,,,,,,,,,,,,,,,,,,,EMOCONPILOT015,2021_Feb_18_1629,EmoCon_Pilot_120Hz,2020.2.4,119.98809718266654,
4,0,4,0,,,,,,,,,,,,,,,,,,,,,,4,2.0,f,1112_m_f_n_a.jpg,neutral,s,17,48.510712799998146,48.809697779999986,49.00973499999964,49.17379107999877,49.17680130000008,49.217335179999644,49.220431999998254,50.92382697999928,None,0,49.220431999998254,50.92382697999928,50.926138699996955,52.4098038799988,,,,,,,,,,,,,,,,,,,,,,,,,,,,,,,,,,,,EMOCONPILOT015,2021_Feb_18_1629,EmoCon_Pilot_120Hz,2020.2.4,119.98809718266654,
,,,,0,0,0,0,0,0,0,0,,,,,,,,,,,,,,,,,,,,,,,,,,,,,,,,,,,,,52.464967899999465,55.46000787999801,55.46293589999914,59.10890197999688,s,3.6374071999998705,3637.4071999998705,55.46293589999914,59.10890197999688,0,8.0,f,019_m_f_s_a.jpg,sad,a,3,1,59.11406530000022,59.401522380000095,60.35711539999829,60.38294797999915,60.38381329999902,60.41920517999679,60.42082819999996,61.918379479999565,None,0,60.42082819999996,61.918379479999565,61.91823049999948,63.259902879998116,,,EMOCONPILOT015,2021_Feb_18_1629,EmoCon_Pilot_120Hz,2020.2.4,119.98809718266654,
,,,,0,0,0,0,1,0,1,0,,,,,,,,,,,,,,,,,,,,,,,,,,,,,,,,,,,,,,,,,,,,,,1,6.0,m,033_o_m_n_a.jpg,neutral,s,3,1,63.25983339999948,63.55974457999982,63.76069179999831,63.78731837999876,63.79018939999878,63.82908817999705,63.83450919999814,65.43159677999793,None,0,63.83450919999814,65.43159677999793,65.43532779999805,66.57686867999874,,,EMOCONPILOT015,2021_Feb_18_1629,EmoCon_Pilot_120Hz,2020.2.4,119.98809718266654,
,,,,0,0,0,0,2,0,2,0,,,,,,,,,,,,,,,,,,,,,,,,,,,,,,,,,,,,,,,,,,,,,,2,2.0,m,008_y_m_s_a.jpg,sad,a,17,1,66.58235489999788,66.87679527999936,67.11306839999816,67.2797148800004,67.28245029999744,67.3194661799993,67.31943129999854,68.5456720799979,a,1,67.31943129999854,68.5456720799979,68.54848809999748,70.06855297999792,1.212821499997517,1212.821499997517,EMOCONPILOT015,2021_Feb_18_1629,EmoCon_Pilot_120Hz,2020.2.4,119.98809718266654,
,,,,0,0,0,0,3,0,3,0,,,,,,,,,,,,,,,,,,,,,,,,,,,,,,,,,,,,,,,,,,,,,,3,11.0,f,030_o_f_h_a.jpg,happy,d,17,1,70.0744601999977,70.36855357999812,70.57138609999674,70.72393637999849,70.72585149999941,70.76277107999923,70.76554389999728,71.7216754799978,a,0,70.76554389999728,71.7216754799978,71.72678739999901,72.74355037999922,0.9429699000029359,942.9699000029359,EMOCONPILOT015,2021_Feb_18_1629,EmoCon_Pilot_120Hz,2020.2.4,119.98809718266654,
,,,,0,0,0,0,4,0,4,0,,,,,,,,,,,,,,,,,,,,,,,,,,,,,,,,,,,,,,,,,,,,,,4,11.0,f,030_o_f_s_a.jpg,sad,a,3,1,72.74639279999974,73.04356967999993,73.24369779999688,73.26923997999839,73.2699208999984,73.30953147999972,73.31466199999704,74.34027078,a,1,73.31466199999704,74.34027078,74.34882519999883,75.5685213799974,1.0097296999992977,1009.7296999992977,EMOCONPILOT015,2021_Feb_18_1629,EmoCon_Pilot_120Hz,2020.2.4,119.98809718266654,
,,,,0,0,0,0,5,0,5,0,,,,,,,,,,,,,,,,,,,,,,,,,,,,,,,,,,,,,,,,,,,,,,5,11.0,f,030_o_f_s_a.jpg,sad,a,3,1,75.57138499999928,75.86860947999813,76.06960079999772,76.0962859799969,76.09644829999888,76.1320635799988,76.13198559999728,77.16387848000014,a,1,76.13198559999728,77.16387848000014,77.16642419999698,78.54363667999715,1.024385100001382,1024.385100001382,EMOCONPILOT015,2021_Feb_18_1629,EmoCon_Pilot_120Hz,2020.2.4,119.98809718266654,
,,,,0,0,0,0,6,0,6,0,,,,,,,,,,,,,,,,,,,,,,,,,,,,,,,,,,,,,,,,,,,,,,6,5.0,m,027_o_m_n_a.jpg,neutral,s,3,1,78.54652499999793,78.8435771799981,79.05036409999957,79.07646607999996,79.07647399999769,79.1114329799988,79.1111192999997,80.71064737999987,None,0,79.1111192999997,80.71064737999987,80.71550599999682,82.31869568000039,,,EMOCONPILOT015,2021_Feb_18_1629,EmoCon_Pilot_120Hz,2020.2.4,119.98809718266654,
,,,,0,0,0,0,7,0,7,0,,,,,,,,,,,,,,,,,,,,,,,,,,,,,,,,,,,,,,,,,,,,,,7,8.0,f,019_m_f_n_a.jpg,neutral,s,3,1,82.32032529999924,82.61841528000005,82.85976619999929,82.88579807999704,82.88896479999676,82.92913157999865,82.93398129999696,84.63796287999722,None,0,82.93398129999696,84.63796287999722,84.64552649999678,86.57703577999783,,,EMOCONPILOT015,2021_Feb_18_1629,EmoCon_Pilot_120Hz,2020.2.4,119.98809718266654,
,,,,0,0,0,0,8,0,8,0,,,,,,,,,,,,,,,,,,,,,,,,,,,,,,,,,,,,,,,,,,,,,,8,5.0,m,027_o_m_h_a.jpg,happy,d,17,1,86.57986919999894,86.8771155799972,87.09551279999869,87.25595767999985,87.26000659999772,87.29836748000017,87.29972099999941,88.13265947999972,d,1,87.29972099999941,88.13265947999972,88.14094839999962,89.93562787999909,0.8167203000011796,816.7203000011796,EMOCONPILOT015,2021_Feb_18_1629,EmoCon_Pilot_120Hz,2020.2.4,119.98809718266654,
,,,,0,0,0,0,9,0,9,0,,,,,,,,,,,,,,,,,,,,,,,,,,,,,,,,,,,,,,,,,,,,,,9,8.0,f,019_m_f_n_a.jpg,neutral,s,17,1,89.94000669999878,90.23559687999878,90.48401159999776,90.64402327999997,90.64863919999698,90.68987027999756,90.69425409999894,91.3239235799978,s,1,90.69425409999894,91.3239235799978,91.33666269999958,93.05228347999801,0.6221772999997484,622.1772999997484,EMOCONPILOT015,2021_Feb_18_1629,EmoCon_Pilot_120Hz,2020.2.4,119.98809718266654,
,,,,0,0,0,0,10,0,10,0,,,,,,,,,,,,,,,,,,,,,,,,,,,,,,,,,,,,,,,,,,,,,,10,11.0,f,030_o_f_h_a.jpg,happy,d,17,1,93.05658419999963,93.35227577999686,93.55684649999966,93.71330227999934,93.71694959999877,93.75350737999761,93.75629219999973,94.48722647999821,d,1,93.75629219999973,94.48722647999821,94.49562209999931,95.69386497999804,0.7200860999982979,720.0860999982979,EMOCONPILOT015,2021_Feb_18_1629,EmoCon_Pilot_120Hz,2020.2.4,119.98809718266654,
,,,,0,0,0,0,11,0,11,0,,,,,,,,,,,,,,,,,,,,,,,,,,,,,,,,,,,,,,,,,,,,,,11,3.0,m,013_y_m_s_a.jpg,sad,a,17,1,95.69671499999822,95.99388907999892,96.11095439999917,96.24566457999973,96.24871979999807,96.28697737999974,96.2909316999976,97.05533897999922,a,1,96.2909316999976,97.05533897999922,97.06116139999722,98.46895787999748,0.7533765000007406,753.3765000007406,EMOCONPILOT015,2021_Feb_18_1629,EmoCon_Pilot_120Hz,2020.2.4,119.98809718266654,
,,,,0,0,0,0,12,0,12,0,,,,,,,,,,,,,,,,,,,,,,,,,,,,,,,,,,,,,,,,,,,,,,12,12.0,f,040_y_f_n_a.jpg,neutral,s,3,1,98.47195029999784,98.76900067999887,98.99227659999815,99.0178917799989,99.01801129999876,99.0535669799996,99.05504389999987,100.03643457999934,s,1,99.05504389999987,100.03643457999934,100.04800839999734,101.49407197999827,0.9736773999975412,973.6773999975412,EMOCONPILOT015,2021_Feb_18_1629,EmoCon_Pilot_120Hz,2020.2.4,119.98809718266654,
,,,,0,0,0,0,13,0,13,0,,,,,,,,,,,,,,,,,,,,,,,,,,,,,,,,,,,,,,,,,,,,,,13,12.0,f,040_y_f_h_a.jpg,happy,d,3,1,101.4945243000002,101.79400247999948,101.81643789999725,101.83916537999758,101.84096849999696,101.87868077999738,101.88036469999861,102.8481236799984,d,1,101.88036469999861,102.8481236799984,102.85138779999761,104.59420567999987,0.9558450000004086,955.8450000004086,EMOCONPILOT015,2021_Feb_18_1629,EmoCon_Pilot_120Hz,2020.2.4,119.98809718266654,
,,,,0,0,0,0,14,0,14,0,,,,,,,,,,,,,,,,,,,,,,,,,,,,,,,,,,,,,,,,,,,,,,14,7.0,f,012_o_f_h_a.jpg,happy,d,3,1,104.59968019999724,104.89421077999796,104.91384279999693,104.93691407999941,104.93737139999939,104.97224927999778,104.97339389999979,105.58824667999798,d,1,104.97339389999979,105.58824667999798,105.5917664999979,107.5358621799991,0.6067430000002787,606.7430000002787,EMOCONPILOT015,2021_Feb_18_1629,EmoCon_Pilot_120Hz,2020.2.4,119.98809718266654,
,,,,0,0,0,0,15,0,15,0,,,,,,,,,,,,,,,,,,,,,,,,,,,,,,,,,,,,,,,,,,,,,,15,9.0,f,021_o_f_n_a.jpg,neutral,s,17,1,107.53997589999926,107.83588967999677,108.33835959999851,108.50762857999726,108.51231809999808,108.55338617999806,108.55824709999797,109.17003807999791,s,1,108.55824709999797,109.17003807999791,109.17894759999763,110.57768747999799,0.5981466000012006,598.1466000012006,EMOCONPILOT015,2021_Feb_18_1629,EmoCon_Pilot_120Hz,2020.2.4,119.98809718266654,
,,,,0,0,0,0,16,0,16,0,,,,,,,,,,,,,,,,,,,,,,,,,,,,,,,,,,,,,,,,,,,,,,16,10.0,f,028_y_f_s_a.jpg,sad,a,3,1,110.58334560000003,110.87768797999743,110.90643319999799,110.929410379997,110.93123389999892,110.96628327999716,110.96612719999757,112.1210903799969,a,1,110.96612719999757,112.1210903799969,112.12665519999791,113.95269957999918,1.1421785999991698,1142.1785999991698,EMOCONPILOT015,2021_Feb_18_1629,EmoCon_Pilot_120Hz,2020.2.4,119.98809718266654,
,,,,0,0,0,0,17,0,17,0,,,,,,,,,,,,,,,,,,,,,,,,,,,,,,,,,,,,,,,,,,,,,,17,10.0,f,028_y_f_h_a.jpg,happy,d,3,1,113.95681689999765,114.25274877999837,114.27274089999992,114.2959634799976,114.29677639999863,114.33229977999727,114.33333700000003,115.13167537999689,d,1,114.33333700000003,115.13167537999689,115.14120659999753,116.29451287999692,0.7911104000013438,791.1104000013438,EMOCONPILOT015,2021_Feb_18_1629,EmoCon_Pilot_120Hz,2020.2.4,119.98809718266654,
,,,,0,0,0,0,18,0,18,0,,,,,,,,,,,,,,,,,,,,,,,,,,,,,,,,,,,,,,,,,,,,,,18,9.0,f,021_o_f_h_a.jpg,happy,d,3,1,116.29880299999786,116.5943672799971,116.82650309999735,116.85213227999921,116.85227509999822,116.88927037999966,116.88940789999833,117.52810917999741,d,1,116.88940789999833,117.52810917999741,117.53758959999686,118.91948507999987,0.6269389000008232,626.9389000008232,EMOCONPILOT015,2021_Feb_18_1629,EmoCon_Pilot_120Hz,2020.2.4,119.98809718266654,
,,,,0,0,0,0,19,0,19,0,,,,,,,,,,,,,,,,,,,,,,,,,,,,,,,,,,,,,,,,,,,,,,19,6.0,m,033_o_m_h_a.jpg,happy,d,17,1,118.92481279999993,119.21958028000009,119.24017259999891,119.37106877999977,119.37411609999981,119.41234777999708,119.41550899999856,119.88289617999763,d,1,119.41550899999856,119.88289617999763,119.89150689999951,120.89437657999807,0.4529012999992119,452.9012999992119,EMOCONPILOT015,2021_Feb_18_1629,EmoCon_Pilot_120Hz,2020.2.4,119.98809718266654,
,,,,0,0,0,0,20,0,20,0,,,,,,,,,,,,,,,,,,,,,,,,,,,,,,,,,,,,,,,,,,,,,,20,1.0,m,004_o_m_h_a.jpg,happy,d,3,1,120.89742479999768,121.1945102800004,121.48636549999719,121.51394097999801,121.5173627999975,121.55649267999834,121.56193089999942,122.122678979997,d,1,121.56193089999942,122.122678979997,122.12852989999737,123.79466057999744,0.5462898000005225,546.2898000005225,EMOCONPILOT015,2021_Feb_18_1629,EmoCon_Pilot_120Hz,2020.2.4,119.98809718266654,
,,,,0,0,0,0,21,0,21,0,,,,,,,,,,,,,,,,,,,,,,,,,,,,,,,,,,,,,,,,,,,,,,21,2.0,m,008_y_m_s_a.jpg,sad,a,3,1,123.80001909999919,124.09454497999687,124.33433719999812,124.35979457999784,124.36064339999939,124.39643297999865,124.39793779999673,125.34034857999941,a,1,124.39793779999673,125.34034857999941,125.34775269999955,127.11950737999942,0.9263998999995238,926.3998999995238,EMOCONPILOT015,2021_Feb_18_1629,EmoCon_Pilot_120Hz,2020.2.4,119.98809718266654,
,,,,0,0,0,0,22,0,22,0,,,,,,,,,,,,,,,,,,,,,,,,,,,,,,,,,,,,,,,,,,,,,,22,4.0,m,016_y_m_s_a.jpg,sad,a,17,1,127.12235809999765,127.41957007999954,127.44247529999848,127.57962178000017,127.58273499999996,127.62097857999689,127.62414530000024,128.4916090799983,a,1,127.62414530000024,128.4916090799983,128.49638349999805,129.54467007999702,0.8599897999993118,859.9897999993118,EMOCONPILOT015,2021_Feb_18_1629,EmoCon_Pilot_120Hz,2020.2.4,119.98809718266654,
,,,,0,0,0,0,23,0,23,0,,,,,,,,,,,,,,,,,,,,,,,,,,,,,,,,,,,,,,,,,,,,,,23,8.0,f,019_m_f_h_a.jpg,happy,d,17,1,129.5475727999983,129.84454977999704,129.86075979999805,129.99636627999863,129.99933999999848,130.03752787999693,130.04113229999712,130.57874817999837,d,1,130.04113229999712,130.57874817999837,130.58888189999925,131.67804058000038,0.5232548000021779,523.254800002178,EMOCONPILOT015,2021_Feb_18_1629,EmoCon_Pilot_120Hz,2020.2.4,119.98809718266654,
,,,,0,0,0,0,24,0,24,0,,,,,,,,,,,,,,,,,,,,,,,,,,,,,,,,,,,,,,,,,,,,,,24,8.0,f,019_m_f_h_a.jpg,happy,d,3,1,131.68341409999994,131.97802767999966,132.00425019999966,132.0277958799983,132.02833459999965,132.06525238000032,132.0657042999992,132.62553567999785,d,1,132.0657042999992,132.62553567999785,132.63102819999767,133.88630047999905,0.5465236999989429,546.5236999989429,EMOCONPILOT015,2021_Feb_18_1629,EmoCon_Pilot_120Hz,2020.2.4,119.98809718266654,
,,,,0,0,0,0,25,0,25,0,,,,,,,,,,,,,,,,,,,,,,,,,,,,,,,,,,,,,,,,,,,,,,25,4.0,m,016_y_m_n_a.jpg,neutral,s,3,1,133.88908739999897,134.18634387999774,134.4320364999985,134.4580044799972,134.45854059999692,134.49596537999824,134.4959863999975,135.25287178,a,0,134.4959863999975,135.25287178,135.25622250000015,136.96993908000005,0.7483089000015752,748.3089000015752,EMOCONPILOT015,2021_Feb_18_1629,EmoCon_Pilot_120Hz,2020.2.4,119.98809718266654,
,,,,0,0,0,0,26,0,26,0,,,,,,,,,,,,,,,,,,,,,,,,,,,,,,,,,,,,,,,,,,,,,,26,4.0,m,016_y_m_h_a.jpg,happy,d,17,1,136.97522939999908,137.26969487999887,137.28448339999886,137.42148137999757,137.42345719999867,137.46269608000003,137.4652834999979,138.1297084799975,d,1,137.4652834999979,138.1297084799975,138.13613039999836,139.67830757999982,0.6511266000015894,651.1266000015894,EMOCONPILOT015,2021_Feb_18_1629,EmoCon_Pilot_120Hz,2020.2.4,119.98809718266654,
,,,,0,0,0,0,27,0,27,0,,,,,,,,,,,,,,,,,,,,,,,,,,,,,,,,,,,,,,,,,,,,,,27,8.0,f,019_m_f_h_a.jpg,happy,d,3,1,139.6838863999983,139.97827577999706,140.0054801999977,140.02732337999842,140.02780249999705,140.06324927999813,140.06308119999812,140.60379297999899,d,1,140.06308119999812,140.60379297999899,140.61118960000022,142.3866026799973,0.533305000000837,533.305000000837,EMOCONPILOT015,2021_Feb_18_1629,EmoCon_Pilot_120Hz,2020.2.4,119.98809718266654,
,,,,0,0,0,0,28,0,28,0,,,,,,,,,,,,,,,,,,,,,,,,,,,,,,,,,,,,,,,,,,,,,,28,8.0,f,019_m_f_s_a.jpg,sad,a,17,1,142.3921859000002,142.68669997999896,142.94156589999693,143.0991114800003,143.10300689999713,143.14327567999717,143.14819299999726,143.8194973800004,a,1,143.14819299999726,143.8194973800004,143.82813319999696,145.19505847999827,0.656277099998988,656.277099998988,EMOCONPILOT015,2021_Feb_18_1629,EmoCon_Pilot_120Hz,2020.2.4,119.98809718266654,
,,,,0,0,0,0,29,0,29,0,,,,,,,,,,,,,,,,,,,,,,,,,,,,,,,,,,,,,,,,,,,,,,29,10.0,f,028_y_f_n_a.jpg,neutral,s,3,1,145.2002760999967,145.49507007999856,145.71295029999965,145.73827177999775,145.7387174999967,145.77408107999727,145.7744485999974,146.71164007999906,s,1,145.7744485999974,146.71164007999906,146.72045459999936,147.7115769799988,0.9258058999985224,925.8058999985224,EMOCONPILOT015,2021_Feb_18_1629,EmoCon_Pilot_120Hz,2020.2.4,119.98809718266654,
,,,,0,0,0,0,30,0,30,0,,,,,,,,,,,,,,,,,,,,,,,,,,,,,,,,,,,,,,,,,,,,,,30,12.0,f,040_y_f_n_a.jpg,neutral,s,3,1,147.7142148999992,148.01164467999698,148.23032819999935,148.25595847999867,148.25624259999677,148.29265007999712,148.2927830999979,148.82255837999983,s,1,148.2927830999979,148.82255837999983,148.83195059999707,150.1784544799979,0.5195547000002989,519.5547000002989,EMOCONPILOT015,2021_Feb_18_1629,EmoCon_Pilot_120Hz,2020.2.4,119.98809718266654,
,,,,0,0,0,0,31,0,31,0,,,,,,,,,,,,,,,,,,,,,,,,,,,,,,,,,,,,,,,,,,,,,,31,5.0,m,027_o_m_n_a.jpg,neutral,s,17,1,150.18062739999732,150.47829557999867,150.6876433999969,150.84531757999721,150.85001569999804,150.890837379999,150.89536039999803,151.6928743800003,s,1,150.89536039999803,151.6928743800003,151.70476639999833,152.9869131799991,0.7892921999991813,789.2921999991813,EMOCONPILOT015,2021_Feb_18_1629,EmoCon_Pilot_120Hz,2020.2.4,119.98809718266654,
,,,,0,0,0,0,32,0,32,0,,,,,,,,,,,,,,,,,,,,,,,,,,,,,,,,,,,,,,,,,,,,,,32,8.0,f,019_m_f_n_a.jpg,neutral,s,3,1,152.99211819999982,153.28691868000024,153.52868200000012,153.55410537999924,153.55383629999778,153.58868997999744,153.589756399997,154.2432469799991,s,1,153.589756399997,154.2432469799991,154.25497619999805,155.73679847999884,0.6467439000007289,646.7439000007289,EMOCONPILOT015,2021_Feb_18_1629,EmoCon_Pilot_120Hz,2020.2.4,119.98809718266654,
,,,,0,0,0,0,33,0,33,0,,,,,,,,,,,,,,,,,,,,,,,,,,,,,,,,,,,,,,,,,,,,,,33,4.0,m,016_y_m_n_a.jpg,neutral,s,3,1,155.74089659999663,156.0368292799998,156.2794561999981,156.3060774799982,156.30636319999758,156.3409846799972,156.34157049999703,157.03314927999818,a,0,156.34157049999703,157.03314927999818,157.03888219999862,158.1868187799977,0.6788287999988825,678.8287999988825,EMOCONPILOT015,2021_Feb_18_1629,EmoCon_Pilot_120Hz,2020.2.4,119.98809718266654,
,,,,0,0,0,0,34,0,34,0,,,,,,,,,,,,,,,,,,,,,,,,,,,,,,,,,,,,,,,,,,,,,,34,11.0,f,030_o_f_n_a.jpg,neutral,s,17,1,158.18967449999764,158.48678787999816,158.6890975999995,158.84693847999952,158.8482296000002,158.8844684799973,158.88587279999774,159.67018917999886,a,0,158.88587279999774,159.67018917999886,159.6764931999969,161.38697707999964,0.7743618999993487,774.3618999993487,EMOCONPILOT015,2021_Feb_18_1629,EmoCon_Pilot_120Hz,2020.2.4,119.98809718266654,
,,,,0,0,0,0,35,0,35,0,,,,,,,,,,,,,,,,,,,,,,,,,,,,,,,,,,,,,,,,,,,,,,35,9.0,f,021_o_f_h_a.jpg,happy,d,3,1,161.39304869999978,161.6869142799973,161.90605609999693,161.93259368,161.93372369999997,161.9714578799998,161.97155779999957,162.5845197799994,d,1,161.97155779999957,162.5845197799994,162.59186099999715,163.93686068000025,0.6007992999984708,600.7992999984708,EMOCONPILOT015,2021_Feb_18_1629,EmoCon_Pilot_120Hz,2020.2.4,119.98809718266654,
,,,,0,0,0,0,36,0,36,0,,,,,,,,,,,,,,,,,,,,,,,,,,,,,,,,,,,,,,,,,,,,,,36,11.0,f,030_o_f_s_a.jpg,sad,a,17,1,163.93975139999748,164.2370004799981,164.4331284,164.59385687999966,164.59818569999698,164.63938627999815,164.6444761999992,165.3794975799996,a,1,164.6444761999992,165.3794975799996,165.39004509999722,166.970410979999,0.7200721000008343,720.0721000008343,EMOCONPILOT015,2021_Feb_18_1629,EmoCon_Pilot_120Hz,2020.2.4,119.98809718266654,
,,,,0,0,0,0,37,0,37,0,,,,,,,,,,,,,,,,,,,,,,,,,,,,,,,,,,,,,,,,,,,,,,37,12.0,f,040_y_f_n_a.jpg,neutral,s,3,1,166.97554879999734,167.27051047999922,167.49797319999925,167.52344347999897,167.52397310000015,167.55987777999908,167.5615278999976,168.23005177999804,s,1,167.5615278999976,168.23005177999804,168.2393772999967,169.9871436799971,0.6589020999999775,658.9020999999775,EMOCONPILOT015,2021_Feb_18_1629,EmoCon_Pilot_120Hz,2020.2.4,119.98809718266654,
,,,,0,0,0,0,38,0,38,0,,,,,,,,,,,,,,,,,,,,,,,,,,,,,,,,,,,,,,,,,,,,,,38,9.0,f,021_o_f_s_a.jpg,sad,a,3,1,169.9914312999972,170.28709717999882,170.30810120000024,170.33110397999772,170.33184959999926,170.36912037999937,170.37075399999958,171.27605127999996,a,1,170.37075399999958,171.27605127999996,171.28405599999678,172.49541807999995,0.8895689999990282,889.5689999990282,EMOCONPILOT015,2021_Feb_18_1629,EmoCon_Pilot_120Hz,2020.2.4,119.98809718266654,
,,,,0,0,0,0,39,0,39,0,,,,,,,,,,,,,,,,,,,,,,,,,,,,,,,,,,,,,,,,,,,,,,39,4.0,m,016_y_m_n_a.jpg,neutral,s,17,1,172.4994048999979,172.79548437999838,173.0375591999982,173.20579287999718,173.20950629999788,173.2496093799986,173.25497639999958,174.3208575800003,s,1,173.25497639999958,174.3208575800003,174.32886089999738,175.4121957800002,1.053677299998526,1053.677299998526,EMOCONPILOT015,2021_Feb_18_1629,EmoCon_Pilot_120Hz,2020.2.4,119.98809718266654,
,,,,0,0,0,0,40,0,40,0,,,,,,,,,,,,,,,,,,,,,,,,,,,,,,,,,,,,,,,,,,,,,,40,9.0,f,021_o_f_s_a.jpg,sad,a,3,1,175.41535250000015,175.7122096799998,175.7350477,175.75758978000013,175.75865009999688,175.79678748000006,175.79792159999852,176.79184137999837,a,1,175.79792159999852,176.79184137999837,176.80348409999715,178.02051657999837,0.9824278000014601,982.4278000014601,EMOCONPILOT015,2021_Feb_18_1629,EmoCon_Pilot_120Hz,2020.2.4,119.98809718266654,
,,,,0,0,0,0,41,0,41,0,,,,,,,,,,,,,,,,,,,,,,,,,,,,,,,,,,,,,,,,,,,,,,41,11.0,f,030_o_f_h_a.jpg,happy,d,17,1,178.0234922999989,178.32053687999942,178.51656549999825,178.67581347999877,178.68092639999668,178.71841067999995,178.72016649999932,179.25862507999992,d,1,178.72016649999932,179.25862507999992,179.26880439999877,180.46221967999955,0.524169799999072,524.169799999072,EMOCONPILOT015,2021_Feb_18_1629,EmoCon_Pilot_120Hz,2020.2.4,119.98809718266654,
,,,,0,0,0,0,42,0,42,0,,,,,,,,,,,,,,,,,,,,,,,,,,,,,,,,,,,,,,,,,,,,,,42,4.0,m,016_y_m_h_a.jpg,happy,d,17,1,180.4653142999996,180.76220897999738,180.78341349999755,180.91399517999744,180.91753179999796,180.95819537999924,180.96337369999674,181.4105040799972,d,1,180.96337369999674,181.4105040799972,181.41853300000002,182.6455782799989,0.4329170000019076,432.9170000019076,EMOCONPILOT015,2021_Feb_18_1629,EmoCon_Pilot_120Hz,2020.2.4,119.98809718266654,
,,,,0,0,0,0,43,0,43,0,,,,,,,,,,,,,,,,,,,,,,,,,,,,,,,,,,,,,,,,,,,,,,43,1.0,m,004_o_m_s_a.jpg,sad,a,3,1,182.6482520999998,182.94564498000037,182.96171099999992,182.98429327999693,182.98496339999838,183.02193057999685,183.0233436999988,183.9352792800004,a,1,183.0233436999988,183.9352792800004,183.94613329999993,184.97063017999827,0.9010292999992089,901.0292999992089,EMOCONPILOT015,2021_Feb_18_1629,EmoCon_Pilot_120Hz,2020.2.4,119.98809718266654,
,,,,0,0,0,0,44,0,44,0,,,,,,,,,,,,,,,,,,,,,,,,,,,,,,,,,,,,,,,,,,,,,,44,4.0,m,016_y_m_h_a.jpg,happy,d,3,1,184.97332559999995,185.27063637999746,185.2906578000002,185.31376617999777,185.31430790000013,185.3488483799978,185.34981229999903,186.012337579998,d,1,185.34981229999903,186.012337579998,186.02038059999904,187.89576347999756,0.6464130999993358,646.4130999993358,EMOCONPILOT015,2021_Feb_18_1629,EmoCon_Pilot_120Hz,2020.2.4,119.98809718266654,
,,,,0,0,0,0,45,0,45,0,,,,,,,,,,,,,,,,,,,,,,,,,,,,,,,,,,,,,,,,,,,,,,45,7.0,f,012_o_f_s_a.jpg,sad,a,17,1,187.89991229999941,188.19587157999777,188.2193277999977,188.35572428000015,188.35737699999663,188.397166879999,188.399473999998,188.92268407999873,a,1,188.399473999998,188.92268407999873,188.9292420999991,190.59592957999703,0.5088332000013907,508.83320000139065,EMOCONPILOT015,2021_Feb_18_1629,EmoCon_Pilot_120Hz,2020.2.4,119.98809718266654,
,,,,0,0,0,0,46,0,46,0,,,,,,,,,,,,,,,,,,,,,,,,,,,,,,,,,,,,,,,,,,,,,,46,8.0,f,019_m_f_n_a.jpg,neutral,s,17,1,190.60131029999684,190.89585447999926,191.14831339999728,191.30829337999822,191.3124637999972,191.34927667999946,191.3535286999977,191.88341397999685,s,1,191.3535286999977,191.88341397999685,191.88990869999907,193.2542175799994,0.5227072000016051,522.7072000016051,EMOCONPILOT015,2021_Feb_18_1629,EmoCon_Pilot_120Hz,2020.2.4,119.98809718266654,
,,,,0,0,0,0,47,0,47,0,,,,,,,,,,,,,,,,,,,,,,,,,,,,,,,,,,,,,,,,,,,,,,47,2.0,m,008_y_m_h_a.jpg,happy,d,3,1,193.2572371999995,193.55428017999876,193.57448119999754,193.59683177999833,193.59763629999725,193.63455388000003,193.63652979999824,194.98717577999778,a,0,193.63652979999824,194.98717577999778,194.9982796999975,196.3460417800001,1.335851100000582,1335.851100000582,EMOCONPILOT015,2021_Feb_18_1629,EmoCon_Pilot_120Hz,2020.2.4,119.98809718266654,
,,,,0,0,0,0,48,0,48,0,,,,,,,,,,,,,,,,,,,,,,,,,,,,,,,,,,,,,,,,,,,,,,48,12.0,f,040_y_f_n_a.jpg,neutral,s,3,1,196.35003080000024,196.64598807999792,196.87519239999892,196.90216057999933,196.90699179999865,196.946244879999,196.95104739999806,197.61233027999916,s,1,196.95104739999806,197.61233027999916,197.62412810000023,198.71272397999783,0.653482100002293,653.482100002293,EMOCONPILOT015,2021_Feb_18_1629,EmoCon_Pilot_120Hz,2020.2.4,119.98809718266654,
,,,,0,0,0,0,49,0,49,0,,,,,,,,,,,,,,,,,,,,,,,,,,,,,,,,,,,,,,,,,,,,,,49,11.0,f,030_o_f_n_a.jpg,neutral,s,17,1,198.71726569999737,199.01259657999836,199.22020259999772,199.38133907999728,199.38551509999888,199.42252097999736,199.42659829999684,200.06598137999973,s,1,199.42659829999684,200.06598137999973,200.07620219999808,202.00442127999705,0.6258326999995916,625.8326999995916,EMOCONPILOT015,2021_Feb_18_1629,EmoCon_Pilot_120Hz,2020.2.4,119.98809718266654,
,,,,0,0,0,0,50,0,50,0,,,,,,,,,,,,,,,,,,,,,,,,,,,,,,,,,,,,,,,,,,,,,,50,8.0,f,019_m_f_h_a.jpg,happy,d,17,1,202.00702679999813,202.30429537999808,202.32633139999962,202.46444808000015,202.46830619999673,202.50575587999847,202.509017999997,202.9634853800002,d,1,202.509017999997,202.9634853800002,202.9755781999993,204.57116057999738,0.4473509000017657,447.3509000017657,EMOCONPILOT015,2021_Feb_18_1629,EmoCon_Pilot_120Hz,2020.2.4,119.98809718266654,
,,,,0,0,0,0,51,0,51,0,,,,,,,,,,,,,,,,,,,,,,,,,,,,,,,,,,,,,,,,,,,,,,51,8.0,f,019_m_f_n_a.jpg,neutral,s,17,1,204.57533239999975,204.87119457999725,205.12287389999983,205.28266627999838,205.28675769999973,205.32761327999688,205.3325358999973,205.78826017999964,s,1,205.3325358999973,205.78826017999964,205.7999471999974,207.2377942799998,0.4478347999975085,447.8347999975085,EMOCONPILOT015,2021_Feb_18_1629,EmoCon_Pilot_120Hz,2020.2.4,119.98809718266654,
,,,,0,0,0,0,52,0,52,0,,,,,,,,,,,,,,,,,,,,,,,,,,,,,,,,,,,,,,,,,,,,,,52,12.0,f,040_y_f_n_a.jpg,neutral,s,3,1,207.2418833999982,207.53779477999925,207.76090320000003,207.7862524799988,207.78670429999693,207.82281827999978,207.8235328999981,208.3931771800002,s,1,207.8235328999981,208.3931771800002,208.39968509999744,209.9711333799991,0.5566588000001502,556.6588000001502,EMOCONPILOT015,2021_Feb_18_1629,EmoCon_Pilot_120Hz,2020.2.4,119.98809718266654,
,,,,0,0,0,0,53,0,53,0,,,,,,,,,,,,,,,,,,,,,,,,,,,,,,,,,,,,,,,,,,,,,,53,9.0,f,021_o_f_h_a.jpg,happy,d,17,1,209.97409689999768,210.27114938000014,210.48502369999915,210.64554517999787,210.65023239999937,210.6915736799987,210.69574189999912,211.0618671799988,d,1,210.69574189999912,211.0618671799988,211.07057229999918,213.03806678000038,0.34860330000083195,348.60330000083195,EMOCONPILOT015,2021_Feb_18_1629,EmoCon_Pilot_120Hz,2020.2.4,119.98809718266654,
,,,,0,0,0,0,54,0,54,0,,,,,,,,,,,,,,,,,,,,,,,,,,,,,,,,,,,,,,,,,,,,,,54,2.0,m,008_y_m_n_a.jpg,neutral,s,3,1,213.04366939999818,213.3379954799988,213.5819651999991,213.60758527999715,213.60842099999718,213.64432437999713,213.64457059999768,214.97518937999703,s,1,213.64457059999768,214.97518937999703,214.98337909999827,216.17125098000034,1.3199071000017284,1319.9071000017284,EMOCONPILOT015,2021_Feb_18_1629,EmoCon_Pilot_120Hz,2020.2.4,119.98809718266654,
,,,,0,0,0,0,55,0,55,0,,,,,,,,,,,,,,,,,,,,,,,,,,,,,,,,,,,,,,,,,,,,,,55,10.0,f,028_y_f_n_a.jpg,neutral,s,3,1,216.174160999999,216.47134987999962,216.67771849999917,216.7033573799985,216.7039552999995,216.73914517999802,216.74069959999906,217.31518387999895,s,1,216.74069959999906,217.31518387999895,217.32189559999824,218.879737079997,0.5596499999992375,559.6499999992375,EMOCONPILOT015,2021_Feb_18_1629,EmoCon_Pilot_120Hz,2020.2.4,119.98809718266654,
,,,,0,0,0,0,56,0,56,0,,,,,,,,,,,,,,,,,,,,,,,,,,,,,,,,,,,,,,,,,,,,,,56,12.0,f,040_y_f_h_a.jpg,happy,d,3,1,218.88395870000022,219.17977527999975,219.20664209999813,219.22919177999793,219.23007239999788,219.26493707999762,219.26539389999743,219.72449128000008,d,1,219.26539389999743,219.72449128000008,219.73188019999725,221.51311948000003,0.4507612000015797,450.7612000015797,EMOCONPILOT015,2021_Feb_18_1629,EmoCon_Pilot_120Hz,2020.2.4,119.98809718266654,
,,,,0,0,0,0,57,0,57,0,,,,,,,,,,,,,,,,,,,,,,,,,,,,,,,,,,,,,,,,,,,,,,57,2.0,m,008_y_m_n_a.jpg,neutral,s,3,1,221.51612059999752,221.81305078000005,222.0441495999985,222.06978928000026,222.07047389999934,222.1059849799989,222.10724370000025,223.10724537999923,a,0,222.10724370000025,223.10724537999923,223.11731419999705,224.16304077999885,0.9930225999996765,993.0225999996765,EMOCONPILOT015,2021_Feb_18_1629,EmoCon_Pilot_120Hz,2020.2.4,119.98809718266654,
,,,,0,0,0,0,58,0,58,0,,,,,,,,,,,,,,,,,,,,,,,,,,,,,,,,,,,,,,,,,,,,,,58,9.0,f,021_o_f_n_a.jpg,neutral,s,17,1,224.16589639999802,224.46316627999695,224.6812637999974,224.84195837999724,224.84330399999817,224.88104257999876,224.8823596000002,225.47975387999978,s,1,224.8823596000002,225.47975387999978,225.4916560999991,227.41328447999913,0.5860265000010259,586.0265000010259,EMOCONPILOT015,2021_Feb_18_1629,EmoCon_Pilot_120Hz,2020.2.4,119.98809718266654,
,,,,0,0,0,0,59,0,59,0,,,,,,,,,,,,,,,,,,,,,,,,,,,,,,,,,,,,,,,,,,,,,,59,4.0,m,016_y_m_n_a.jpg,neutral,s,17,1,227.41859759999716,227.71325387999823,227.95215949999692,228.1202647799968,228.12509189999764,228.1653886799999,228.17052249999688,228.62901117999937,s,1,228.17052249999688,228.62901117999937,228.63958569999886,230.61330987999682,0.44974549999824376,449.74549999824376,EMOCONPILOT015,2021_Feb_18_1629,EmoCon_Pilot_120Hz,2020.2.4,119.98809718266654,
,,,,0,0,0,0,60,0,60,0,,,,,,,,,,,,,,,,,,,,,,,,,,,,,,,,,,,,,,,,,,,,,,60,6.0,m,033_o_m_s_a.jpg,sad,a,3,1,230.61877549999917,230.91333288000024,230.943477599998,230.96645677999769,230.96724029999677,231.00622387999684,231.00613319999684,232.0979300799976,a,1,231.00613319999684,232.0979300799976,232.10280259999854,234.03837327999864,1.0780692000007548,1078.0692000007548,EMOCONPILOT015,2021_Feb_18_1629,EmoCon_Pilot_120Hz,2020.2.4,119.98809718266654,
,,,,0,0,0,0,61,0,61,0,,,,,,,,,,,,,,,,,,,,,,,,,,,,,,,,,,,,,,,,,,,,,,61,7.0,f,012_o_f_n_a.jpg,neutral,s,3,1,234.04282019999664,234.33836487999943,234.56090439999753,234.5886627799977,234.59332869999707,234.63194307999802,234.6370657999978,235.19859827999827,s,1,234.6370657999978,235.19859827999827,235.20484919999944,236.72179647999874,0.551111699998728,551.111699998728,EMOCONPILOT015,2021_Feb_18_1629,EmoCon_Pilot_120Hz,2020.2.4,119.98809718266654,
,,,,0,0,0,0,62,0,62,0,,,,,,,,,,,,,,,,,,,,,,,,,,,,,,,,,,,,,,,,,,,,,,62,2.0,m,008_y_m_h_a.jpg,happy,d,3,1,236.72588109999924,237.0217980799993,237.04350679999698,237.0663585799979,237.0663031999975,237.10638598000006,237.1078250999999,237.93096237999853,d,1,237.1078250999999,237.93096237999853,237.93934089999675,238.98012507999957,0.8084792999979982,808.4792999979982,EMOCONPILOT015,2021_Feb_18_1629,EmoCon_Pilot_120Hz,2020.2.4,119.98809718266654,
,,,,0,0,0,0,63,0,63,0,,,,,,,,,,,,,,,,,,,,,,,,,,,,,,,,,,,,,,,,,,,,,,63,10.0,f,028_y_f_h_a.jpg,happy,d,3,1,238.9842011999972,239.28012437999715,239.30444489999718,239.3268848799984,239.32748749999882,239.3645878800002,239.3646907000002,239.93970927999763,d,1,239.3646907000002,239.93970927999763,239.94450789999973,241.24719337999923,0.5596559000005072,559.6559000005072,EMOCONPILOT015,2021_Feb_18_1629,EmoCon_Pilot_120Hz,2020.2.4,119.98809718266654,
,,,,0,0,0,0,64,0,64,0,,,,,,,,,,,,,,,,,,,,,,,,,,,,,,,,,,,,,,,,,,,,,,64,4.0,m,016_y_m_h_a.jpg,happy,d,17,1,241.2475020999991,241.54676507999685,241.56005829999776,241.6984327799968,241.70158529999753,241.739715979997,241.74251240000012,242.15864617999833,d,1,241.74251240000012,242.15864617999833,242.1671196999996,243.33852007999886,0.4056547000000137,405.6547000000137,EMOCONPILOT015,2021_Feb_18_1629,EmoCon_Pilot_120Hz,2020.2.4,119.98809718266654,
,,,,0,0,0,0,65,0,65,0,,,,,,,,,,,,,,,,,,,,,,,,,,,,,,,,,,,,,,,,,,,,,,65,9.0,f,021_o_f_s_a.jpg,sad,a,3,1,243.34377979999772,243.6385287799989,243.65972639999745,243.68273207999883,243.68354259999978,243.7199096799981,243.72024880000026,245.00457177999706,a,1,243.72024880000026,245.00457177999706,245.01292239999748,246.66349768,1.275952399999369,1275.952399999369,EMOCONPILOT015,2021_Feb_18_1629,EmoCon_Pilot_120Hz,2020.2.4,119.98809718266654,
,,,,0,0,0,0,66,0,66,0,,,,,,,,,,,,,,,,,,,,,,,,,,,,,,,,,,,,,,,,,,,,,,66,7.0,f,012_o_f_h_a.jpg,happy,d,3,1,246.666557499997,246.9635640799992,246.98593869999968,247.0082028799974,247.00994649999848,247.04821028000006,247.04941709999912,247.68144787999918,d,1,247.04941709999912,247.68144787999918,247.68957339999906,249.30521867999997,0.6189878999975917,618.9878999975917,EMOCONPILOT015,2021_Feb_18_1629,EmoCon_Pilot_120Hz,2020.2.4,119.98809718266654,
,,,,0,0,0,0,67,0,67,0,,,,,,,,,,,,,,,,,,,,,,,,,,,,,,,,,,,,,,,,,,,,,,67,9.0,f,021_o_f_h_a.jpg,happy,d,17,1,249.30818889999864,249.6052137799983,249.8962526999967,250.05576507999868,250.06038519999856,250.09806127999983,250.10249249999833,250.61504657999686,d,1,250.10249249999833,250.61504657999686,250.61897429999954,251.87192978000022,0.501612700001715,501.612700001715,EMOCONPILOT015,2021_Feb_18_1629,EmoCon_Pilot_120Hz,2020.2.4,119.98809718266654,
,,,,0,0,0,0,68,0,68,0,,,,,,,,,,,,,,,,,,,,,,,,,,,,,,,,,,,,,,,,,,,,,,68,8.0,f,019_m_f_h_a.jpg,happy,d,3,1,251.874553499998,252.1720439799996,252.19732139999905,252.21967407999765,252.22038859999884,252.2565340799978,252.2567945999981,252.75739397999715,d,1,252.2567945999981,252.75739397999715,252.76638629999798,254.36379428,0.49137880000125733,491.37880000125733,EMOCONPILOT015,2021_Feb_18_1629,EmoCon_Pilot_120Hz,2020.2.4,119.98809718266654,
,,,,0,0,0,0,69,0,69,0,,,,,,,,,,,,,,,,,,,,,,,,,,,,,,,,,,,,,,,,,,,,,,69,9.0,f,021_o_f_s_a.jpg,sad,a,3,1,254.36910419999913,254.66359577999756,254.6761544000001,254.69908177999824,254.69997019999937,254.73520187999966,254.7371717999995,255.58015777999972,a,1,254.7371717999995,255.58015777999972,255.58846579999954,256.7304098799999,0.826998000000458,826.998000000458,EMOCONPILOT015,2021_Feb_18_1629,EmoCon_Pilot_120Hz,2020.2.4,119.98809718266654,
,,,,0,0,0,0,70,0,70,0,,,,,,,,,,,,,,,,,,,,,,,,,,,,,,,,,,,,,,,,,,,,,,70,2.0,m,008_y_m_h_a.jpg,happy,d,17,1,256.7331231999997,257.0304304799996,257.05220949999784,257.19047087999786,257.193314199998,257.23180498,257.2348267999987,257.81692037999744,d,1,257.2348267999987,257.81692037999744,257.8195786999968,259.76383808000026,0.5692768000008073,569.2768000008073,EMOCONPILOT015,2021_Feb_18_1629,EmoCon_Pilot_120Hz,2020.2.4,119.98809718266654,
,,,,0,0,0,0,71,0,71,0,,,,,,,,,,,,,,,,,,,,,,,,,,,,,,,,,,,,,,,,,,,,,,71,1.0,m,004_o_m_h_a.jpg,happy,d,17,1,259.7676350999973,260.0638068799984,260.3055511999992,260.46707767999976,260.47183329999825,260.51292817999854,260.5183391999999,260.86371577999887,d,1,260.5183391999999,260.86371577999887,260.87538549999954,262.8471577799995,0.3340195999990101,334.0195999990101,EMOCONPILOT015,2021_Feb_18_1629,EmoCon_Pilot_120Hz,2020.2.4,119.98809718266654,
,,,,0,0,0,0,72,0,72,0,,,,,,,,,,,,,,,,,,,,,,,,,,,,,,,,,,,,,,,,,,,,,,72,11.0,f,030_o_f_h_a.jpg,happy,d,3,1,262.84996449999744,263.14714477999803,263.3469404999996,263.3721219799976,263.37213169999814,263.408300579997,263.409148499999,263.8629797799971,d,1,263.409148499999,263.8629797799971,263.8704211999975,265.1306540799982,0.4430729000014253,443.0729000014253,EMOCONPILOT015,2021_Feb_18_1629,EmoCon_Pilot_120Hz,2020.2.4,119.98809718266654,
,,,,0,0,0,0,73,0,73,0,,,,,,,,,,,,,,,,,,,,,,,,,,,,,,,,,,,,,,,,,,,,,,73,8.0,f,019_m_f_s_a.jpg,sad,a,3,1,265.1360688999994,265.4307312799996,265.6725654999973,265.698499479999,265.69857989999946,265.73319317999847,265.7335688999992,266.4209694799996,d,0,265.7335688999992,266.4209694799996,266.43237039999804,267.44728807999707,0.6787943999988784,678.7943999988784,EMOCONPILOT015,2021_Feb_18_1629,EmoCon_Pilot_120Hz,2020.2.4,119.98809718266654,
,,,,0,0,0,0,74,0,74,0,,,,,,,,,,,,,,,,,,,,,,,,,,,,,,,,,,,,,,,,,,,,,,74,5.0,m,027_o_m_h_a.jpg,happy,d,17,1,267.44991479999953,267.74725387999786,267.95052419999774,268.1131861799971,268.1177390999983,268.1557771799984,268.1608476000001,268.49147067999945,d,1,268.1608476000001,268.49147067999945,268.49813339999673,270.0057742800003,0.32332599999790546,323.32599999790546,EMOCONPILOT015,2021_Feb_18_1629,EmoCon_Pilot_120Hz,2020.2.4,119.98809718266654,
,,,,0,0,0,0,75,0,75,0,,,,,,,,,,,,,,,,,,,,,,,,,,,,,,,,,,,,,,,,,,,,,,75,8.0,f,019_m_f_s_a.jpg,sad,a,17,1,270.01098490000004,270.30572397999856,270.55159029999777,270.7197338799982,270.7247172999996,270.76470367999934,270.76973649999854,271.45257177999736,a,1,270.76973649999854,271.45257177999736,271.46255409999867,273.0808325799975,0.6665983999992022,666.5983999992022,EMOCONPILOT015,2021_Feb_18_1629,EmoCon_Pilot_120Hz,2020.2.4,119.98809718266654,
,,,,0,0,0,0,76,0,76,0,,,,,,,,,,,,,,,,,,,,,,,,,,,,,,,,,,,,,,,,,,,,,,76,7.0,f,012_o_f_n_a.jpg,neutral,s,3,1,273.08477700000003,273.3808069799983,273.59391069999765,273.6205809799998,273.6236871999972,273.66244468,273.6663000999979,275.3231366799977,s,1,273.6663000999979,275.3231366799977,275.3343630999989,276.5225450799975,1.6419968000009248,1641.9968000009248,EMOCONPILOT015,2021_Feb_18_1629,EmoCon_Pilot_120Hz,2020.2.4,119.98809718266654,
,,,,0,0,0,0,77,0,77,0,,,,,,,,,,,,,,,,,,,,,,,,,,,,,,,,,,,,,,,,,,,,,,77,6.0,m,033_o_m_s_a.jpg,sad,a,17,1,276.52790229999664,276.82241787999953,276.8434514999972,276.9742122800002,276.97734019999916,277.01542568,277.01881899999717,278.02900877999707,a,1,277.01881899999717,278.02900877999707,278.03828090000025,279.8308865799976,0.9935208999995666,993.5208999995666,EMOCONPILOT015,2021_Feb_18_1629,EmoCon_Pilot_120Hz,2020.2.4,119.98809718266654,
,,,,0,0,0,0,78,0,78,0,,,,,,,,,,,,,,,,,,,,,,,,,,,,,,,,,,,,,,,,,,,,,,78,1.0,m,004_o_m_h_a.jpg,happy,d,3,1,279.8337670000001,280.1308052799999,280.3422694000001,280.3679487799985,280.36876499999926,280.4028807799972,280.4042174999995,280.96682127999736,d,1,280.4042174999995,280.96682127999736,280.9765335999982,282.68111067999996,0.5519903000022168,551.9903000022168,EMOCONPILOT015,2021_Feb_18_1629,EmoCon_Pilot_120Hz,2020.2.4,119.98809718266654,
,,,,0,0,0,0,79,0,79,0,,,,,,,,,,,,,,,,,,,,,,,,,,,,,,,,,,,,,,,,,,,,,,79,5.0,m,027_o_m_s_a.jpg,sad,a,3,1,282.6818181999988,282.98088007999684,283.00739429999885,283.0302295799978,283.0305168999985,283.065532879997,283.06552329999977,283.7475203799971,a,1,283.06552329999977,283.7475203799971,283.75966609999887,285.53099917999714,0.6749296000016329,674.9296000016329,EMOCONPILOT015,2021_Feb_18_1629,EmoCon_Pilot_120Hz,2020.2.4,119.98809718266654,
,,,,0,0,0,0,80,0,80,0,,,,,,,,,,,,,,,,,,,,,,,,,,,,,,,,,,,,,,,,,,,,,,80,9.0,f,021_o_f_s_a.jpg,sad,a,17,1,285.53431929999715,285.83087697999724,285.84140750000006,285.9743431800001,285.97700939999777,286.0156097799976,286.0184524999968,286.8443276799975,a,1,286.0184524999968,286.8443276799975,286.8555839999972,287.98105317999796,0.8098013999988325,809.8013999988325,EMOCONPILOT015,2021_Feb_18_1629,EmoCon_Pilot_120Hz,2020.2.4,119.98809718266654,
,,,,0,0,0,0,81,0,81,0,,,,,,,,,,,,,,,,,,,,,,,,,,,,,,,,,,,,,,,,,,,,,,81,5.0,m,027_o_m_s_a.jpg,sad,a,3,1,287.98632609999913,288.2810426799973,288.3038641999992,288.32645527999773,288.3269890999982,288.3654900799978,288.3666207999995,288.91665877999765,a,1,288.3666207999995,288.91665877999765,288.92828259999806,290.4477633800001,0.5417419000004884,541.7419000004884,EMOCONPILOT015,2021_Feb_18_1629,EmoCon_Pilot_120Hz,2020.2.4,119.98809718266654,
,,,,0,0,0,0,82,0,82,0,,,,,,,,,,,,,,,,,,,,,,,,,,,,,,,,,,,,,,,,,,,,,,82,7.0,f,012_o_f_h_a.jpg,happy,d,17,1,290.45152869999947,290.74786527999674,290.7703103999993,290.90774517999887,290.9108032999975,290.9490346799997,290.95191799999884,291.5083322799968,d,1,290.95191799999884,291.5083322799968,291.51498849999916,292.96444998000004,0.54026089999752,540.26089999752,EMOCONPILOT015,2021_Feb_18_1629,EmoCon_Pilot_120Hz,2020.2.4,119.98809718266654,
,,,,0,0,0,0,83,0,83,0,,,,,,,,,,,,,,,,,,,,,,,,,,,,,,,,,,,,,,,,,,,,,,83,3.0,m,013_y_m_s_a.jpg,sad,a,17,1,292.9673612999977,293.2645033799985,293.28545499999746,293.416144879999,293.4205562999996,293.45965988000023,293.4630976999979,294.010000679997,a,1,293.4630976999979,294.010000679997,294.02135389999967,295.4645033799992,0.5331349000007322,533.1349000007322,EMOCONPILOT015,2021_Feb_18_1629,EmoCon_Pilot_120Hz,2020.2.4,119.98809718266654,
,,,,0,0,0,0,84,0,84,0,,,,,,,,,,,,,,,,,,,,,,,,,,,,,,,,,,,,,,,,,,,,,,84,5.0,m,027_o_m_s_a.jpg,sad,a,17,1,295.46742989999984,295.764663979999,295.78365759999724,295.9162333799999,295.92056089999824,295.9614525799974,295.9664376999972,296.5058467799994,a,1,295.9664376999972,296.5058467799994,296.51711559999967,298.1562260799968,0.525725000003149,525.725000003149,EMOCONPILOT015,2021_Feb_18_1629,EmoCon_Pilot_120Hz,2020.2.4,119.98809718266654,
,,,,0,0,0,0,85,0,85,0,,,,,,,,,,,,,,,,,,,,,,,,,,,,,,,,,,,,,,,,,,,,,,85,4.0,m,016_y_m_s_a.jpg,sad,a,17,1,298.1602381999983,298.4563701799983,298.4830547999991,298.6162241799997,298.61915149999913,298.6575943800002,298.66071159999774,299.0735564800001,a,1,298.66071159999774,299.0735564800001,299.0825253999974,300.54797687999815,0.39949129999877186,399.49129999877186,EMOCONPILOT015,2021_Feb_18_1629,EmoCon_Pilot_120Hz,2020.2.4,119.98809718266654,
,,,,0,0,0,0,86,0,86,0,,,,,,,,,,,,,,,,,,,,,,,,,,,,,,,,,,,,,,,,,,,,,,86,5.0,m,027_o_m_n_a.jpg,neutral,s,3,1,300.55227549999836,300.8479894799988,301.07324439999866,301.09921147999773,301.09977239999716,301.13503887999684,301.13535059999776,301.7304722799985,a,0,301.13535059999776,301.7304722799985,301.7386020999984,302.78140927999846,0.580858299999818,580.858299999818,EMOCONPILOT015,2021_Feb_18_1629,EmoCon_Pilot_120Hz,2020.2.4,119.98809718266654,
,,,,0,0,0,0,87,0,87,0,,,,,,,,,,,,,,,,,,,,,,,,,,,,,,,,,,,,,,,,,,,,,,87,3.0,m,013_y_m_h_a.jpg,happy,d,17,1,302.7861918999988,303.0813897799984,303.31857149999996,303.4798002800002,303.48469719999775,303.5257342799981,303.5308727999982,304.01986067999894,d,1,303.5308727999982,304.01986067999894,304.0312969999977,305.7147254799987,0.47338440000021365,473.38440000021365,EMOCONPILOT015,2021_Feb_18_1629,EmoCon_Pilot_120Hz,2020.2.4,119.98809718266654,
,,,,0,0,0,0,88,0,88,0,,,,,,,,,,,,,,,,,,,,,,,,,,,,,,,,,,,,,,,,,,,,,,88,5.0,m,027_o_m_s_a.jpg,sad,a,17,1,305.71790879999753,306.014782679997,306.03507349999927,306.1664629799983,306.1696492999981,306.20768967999754,306.2111773999968,306.6552342799972,a,1,306.2111773999968,306.6552342799972,306.6660492999981,307.7647484799985,0.43303829999786103,433.03829999786103,EMOCONPILOT015,2021_Feb_18_1629,EmoCon_Pilot_120Hz,2020.2.4,119.98809718266654,
,,,,0,0,0,0,89,0,89,0,,,,,,,,,,,,,,,,,,,,,,,,,,,,,,,,,,,,,,,,,,,,,,89,5.0,m,027_o_m_s_a.jpg,sad,a,17,1,307.7692885999968,308.06474657999786,308.0850228999989,308.21641337999824,308.2185471999983,308.25771907999876,308.25990679999813,308.60422627999867,a,1,308.25990679999813,308.60422627999867,308.6107301999982,310.41483987999743,0.33653770000091754,336.53770000091754,EMOCONPILOT015,2021_Feb_18_1629,EmoCon_Pilot_120Hz,2020.2.4,119.98809718266654,
,,,,0,0,0,0,90,0,90,0,,,,,,,,,,,,,,,,,,,,,,,,,,,,,,,,,,,,,,,,,,,,,,90,12.0,f,040_y_f_s_a.jpg,sad,a,17,1,310.4190230999993,310.7147470799995,310.74209859999974,310.8748034799995,310.87680869999895,310.9160584799996,310.91941219999717,312.0485158799987,a,1,310.91941219999717,312.0485158799987,312.05422589999944,313.26477867999927,1.1166019999982382,1116.6019999982382,EMOCONPILOT015,2021_Feb_18_1629,EmoCon_Pilot_120Hz,2020.2.4,119.98809718266654,
,,,,0,0,0,0,91,0,91,0,,,,,,,,,,,,,,,,,,,,,,,,,,,,,,,,,,,,,,,,,,,,,,91,3.0,m,013_y_m_n_a.jpg,neutral,s,3,1,313.26775009999983,313.5648111799986,313.9884929,314.01452407999966,314.01470469999913,314.05057327999964,314.05142759999944,314.81196397999736,a,0,314.05142759999944,314.81196397999736,314.81840589999774,316.37329288000035,0.7525820000009844,752.5820000009844,EMOCONPILOT015,2021_Feb_18_1629,EmoCon_Pilot_120Hz,2020.2.4,119.98809718266654,
,,,,0,0,0,0,92,0,92,0,,,,,,,,,,,,,,,,,,,,,,,,,,,,,,,,,,,,,,,,,,,,,,92,12.0,f,040_y_f_s_a.jpg,sad,a,3,1,316.3786074999989,316.6732632799998,316.6974240999989,316.7198751799973,316.7206237999999,316.75770448000037,316.7576700999998,317.3796707799978,a,1,316.7576700999998,317.3796707799978,317.3887810999986,318.7817337799992,0.6065732999995816,606.5732999995816,EMOCONPILOT015,2021_Feb_18_1629,EmoCon_Pilot_120Hz,2020.2.4,119.98809718266654,
,,,,0,0,0,0,93,0,93,0,,,,,,,,,,,,,,,,,,,,,,,,,,,,,,,,,,,,,,,,,,,,,,93,6.0,m,033_o_m_s_a.jpg,sad,a,3,1,318.7876378999972,319.0816925799976,319.101602499999,319.12479517999816,319.12544499999785,319.16042007999783,319.16006039999775,319.70578017999867,a,1,319.16006039999775,319.70578017999867,319.7150292999977,321.206747579998,0.5324103000020841,532.4103000020841,EMOCONPILOT015,2021_Feb_18_1629,EmoCon_Pilot_120Hz,2020.2.4,119.98809718266654,
,,,,0,0,0,0,94,0,94,0,,,,,,,,,,,,,,,,,,,,,,,,,,,,,,,,,,,,,,,,,,,,,,94,2.0,m,008_y_m_s_a.jpg,sad,a,3,1,321.2132614999973,321.50673117999975,321.74700870000015,321.77303437999797,321.77774789999967,321.8186975800003,321.82396799999697,322.37400637999815,a,1,321.82396799999697,322.37400637999815,322.3855001999982,323.7151573799987,0.5402071999997133,540.2071999997133,EMOCONPILOT015,2021_Feb_18_1629,EmoCon_Pilot_120Hz,2020.2.4,119.98809718266654,
,,,,0,0,0,0,95,0,95,0,,,,,,,,,,,,,,,,,,,,,,,,,,,,,,,,,,,,,,,,,,,,,,95,8.0,f,019_m_f_s_a.jpg,sad,a,3,1,323.71960129999934,324.0151609799999,324.2597921999986,324.2868793799993,324.28732829999717,324.3246488799981,324.32600399999865,324.7637708799979,a,1,324.32600399999865,324.7637708799979,324.7711675999999,325.765181879999,0.43018149999988964,430.18149999988964,EMOCONPILOT015,2021_Feb_18_1629,EmoCon_Pilot_120Hz,2020.2.4,119.98809718266654,
,,,,0,0,0,0,96,0,96,0,,,,,,,,,,,,,,,,,,,,,,,,,,,,,,,,,,,,,,,,,,,,,,96,9.0,f,021_o_f_n_a.jpg,neutral,s,3,1,325.77148959999977,326.0651800799991,326.2722915999984,326.2993199799988,326.3022412999999,326.34276927999815,326.3477871999967,327.13177667999696,a,0,326.3477871999967,327.13177667999696,327.1423039000001,328.81524317999936,0.7684516999979678,768.4516999979678,EMOCONPILOT015,2021_Feb_18_1629,EmoCon_Pilot_120Hz,2020.2.4,119.98809718266654,
,,,,0,0,0,0,97,0,97,0,,,,,,,,,,,,,,,,,,,,,,,,,,,,,,,,,,,,,,,,,,,,,,97,11.0,f,030_o_f_h_a.jpg,happy,d,3,1,328.81945209999685,329.11518938000006,329.31299819999913,329.33925137999756,329.33962729999985,329.3754398799996,329.3761259999992,330.0194357799977,d,1,329.3761259999992,330.0194357799977,330.0296118999977,331.7070178799971,0.635948200000712,635.948200000712,EMOCONPILOT015,2021_Feb_18_1629,EmoCon_Pilot_120Hz,2020.2.4,119.98809718266654,
,,,,0,0,0,0,98,0,98,0,,,,,,,,,,,,,,,,,,,,,,,,,,,,,,,,,,,,,,,,,,,,,,98,12.0,f,040_y_f_n_a.jpg,neutral,s,3,1,331.7113264999971,332.00700168000037,332.23442189999696,332.25967377999984,332.2600434999986,332.29399837999733,332.294342899997,333.77922647999947,s,1,332.294342899997,333.77922647999947,333.7894779999988,335.40707917999896,1.4700106999989657,1470.0106999989657,EMOCONPILOT015,2021_Feb_18_1629,EmoCon_Pilot_120Hz,2020.2.4,119.98809718266654,
,,,,0,0,0,0,99,0,99,0,,,,,,,,,,,,,,,,,,,,,,,,,,,,,,,,,,,,,,,,,,,,,,99,12.0,f,040_y_f_s_a.jpg,sad,a,3,1,335.4111970999984,335.70698257999754,335.72392169999875,335.7455363799985,335.7460761000002,335.7832851799998,335.78334600000017,336.9404873799998,a,1,335.78334600000017,336.9404873799998,336.94890999999916,338.92361688000017,1.1488048999999592,1148.8048999999592,EMOCONPILOT015,2021_Feb_18_1629,EmoCon_Pilot_120Hz,2020.2.4,119.98809718266654,
,,,,0,0,0,0,100,0,100,0,,,,,,,,,,,,,,,,,,,,,,,,,,,,,,,,,,,,,,,,,,,,,,100,4.0,m,016_y_m_n_a.jpg,neutral,s,3,1,338.92658219999794,339.22363807999716,339.60238879999815,339.62813547999974,339.63159129999985,339.6725842799991,339.6778403999997,341.3323975799998,None,0,339.6778403999997,341.3323975799998,341.3374526999978,342.6572514799976,,,EMOCONPILOT015,2021_Feb_18_1629,EmoCon_Pilot_120Hz,2020.2.4,119.98809718266654,
,,,,0,0,0,0,101,0,101,0,,,,,,,,,,,,,,,,,,,,,,,,,,,,,,,,,,,,,,,,,,,,,,101,11.0,f,030_o_f_s_a.jpg,sad,a,17,1,342.6636901999991,342.95724998000003,343.15996339999765,343.33119318000024,343.3347999999969,343.3749040799979,343.3798076999992,344.0310269799978,a,1,343.3798076999992,344.0310269799978,344.0392060999984,345.39057117999835,0.6402999999991152,640.2999999991152,EMOCONPILOT015,2021_Feb_18_1629,EmoCon_Pilot_120Hz,2020.2.4,119.98809718266654,
,,,,0,0,0,0,102,0,102,0,,,,,,,,,,,,,,,,,,,,,,,,,,,,,,,,,,,,,,,,,,,,,,102,3.0,m,013_y_m_h_a.jpg,happy,d,17,1,345.3959176999997,345.6905288799993,345.9350658999974,346.09770927999705,346.1018449999974,346.14295647999677,346.1480475999997,346.5296792799985,d,1,346.1480475999997,346.5296792799985,346.5330748999986,348.1657018799982,0.36788940000042203,367.88940000042203,EMOCONPILOT015,2021_Feb_18_1629,EmoCon_Pilot_120Hz,2020.2.4,119.98809718266654,
,,,,0,0,0,0,103,0,103,0,,,,,,,,,,,,,,,,,,,,,,,,,,,,,,,,,,,,,,,,,,,,,,103,2.0,m,008_y_m_s_a.jpg,sad,a,3,1,348.17223269999886,348.4657170799968,348.7010812999979,348.7268569799984,348.7275152000002,348.7622224799983,348.76270959999965,350.0076929800001,a,1,348.76270959999965,350.0076929800001,350.01904529999956,351.88228857999854,1.2336031000013463,1233.6031000013463,EMOCONPILOT015,2021_Feb_18_1629,EmoCon_Pilot_120Hz,2020.2.4,119.98809718266654,
,,,,0,0,0,0,104,0,104,0,,,,,,,,,,,,,,,,,,,,,,,,,,,,,,,,,,,,,,,,,,,,,,104,11.0,f,030_o_f_s_a.jpg,sad,a,17,1,351.88649019999866,352.1824011800003,352.3893363999996,352.54986547999795,352.55457489999753,352.59373597999945,352.5982546999985,353.2287855799972,a,1,352.5982546999985,353.2287855799972,353.2405497999971,354.4991696799974,0.6219759999985399,621.9759999985399,EMOCONPILOT015,2021_Feb_18_1629,EmoCon_Pilot_120Hz,2020.2.4,119.98809718266654,
,,,,0,0,0,0,105,0,105,0,,,,,,,,,,,,,,,,,,,,,,,,,,,,,,,,,,,,,,,,,,,,,,105,4.0,m,016_y_m_h_a.jpg,happy,d,17,1,354.50484890000007,354.7990550799972,354.8142744999968,354.95070218000035,354.95324979999714,354.9919610799974,354.9947160999982,355.457975579999,d,1,354.9947160999982,355.457975579999,355.4662787999987,356.9907376799987,0.44933840000157943,449.33840000157943,EMOCONPILOT015,2021_Feb_18_1629,EmoCon_Pilot_120Hz,2020.2.4,119.98809718266654,
,,,,0,0,0,0,106,0,106,0,,,,,,,,,,,,,,,,,,,,,,,,,,,,,,,,,,,,,,,,,,,,,,106,7.0,f,012_o_f_n_a.jpg,neutral,s,17,1,356.99362889999975,357.2907734799977,357.5100749999983,357.67393067999944,357.6784419999967,357.718545979997,357.7236539999976,358.710813879998,s,1,357.7236539999976,358.710813879998,358.7181677999979,360.0157023799969,0.9764332999984617,976.4332999984617,EMOCONPILOT015,2021_Feb_18_1629,EmoCon_Pilot_120Hz,2020.2.4,119.98809718266654,
,,,,0,0,0,0,107,0,107,0,,,,,,,,,,,,,,,,,,,,,,,,,,,,,,,,,,,,,,,,,,,,,,107,11.0,f,030_o_f_h_a.jpg,happy,d,17,1,360.01870829999825,360.3157065799991,360.51557749999847,360.68592618000037,360.6902270999999,360.7313851799976,360.7360762999997,361.17418588,d,1,360.7360762999997,361.17418588,361.17682189999687,362.34910327999967,0.42800870000064606,428.00870000064606,EMOCONPILOT015,2021_Feb_18_1629,EmoCon_Pilot_120Hz,2020.2.4,119.98809718266654,
,,,,0,0,0,0,108,0,108,0,,,,,,,,,,,,,,,,,,,,,,,,,,,,,,,,,,,,,,,,,,,,,,108,1.0,m,004_o_m_s_a.jpg,sad,a,17,1,362.3519621999985,362.64909267999826,362.6710534999984,362.8092894799978,362.8110659999984,362.85049857999763,362.85239009999714,363.3650974799988,a,1,362.85239009999714,363.3650974799988,363.37564349999957,365.05763087999946,0.5038324999986799,503.83249999867985,EMOCONPILOT015,2021_Feb_18_1629,EmoCon_Pilot_120Hz,2020.2.4,119.98809718266654,
,,,,0,0,0,0,109,0,109,0,,,,,,,,,,,,,,,,,,,,,,,,,,,,,,,,,,,,,,,,,,,,,,109,3.0,m,013_y_m_n_a.jpg,neutral,s,17,1,365.0606368999979,365.357613579998,365.5998323999993,365.75590017999855,365.75934899999993,365.7997750799972,365.8046723999978,366.5158802799982,s,1,365.8046723999978,366.5158802799982,366.5276701999974,367.93278917999703,0.7034025000029942,703.4025000029942,EMOCONPILOT015,2021_Feb_18_1629,EmoCon_Pilot_120Hz,2020.2.4,119.98809718266654,
,,,,0,0,0,0,110,0,110,0,,,,,,,,,,,,,,,,,,,,,,,,,,,,,,,,,,,,,,,,,,,,,,110,10.0,f,028_y_f_s_a.jpg,sad,a,17,1,367.93812009999965,368.23274227999934,368.2575233999996,368.39242817999764,368.3928343999978,368.4338793800001,368.4375525999967,369.26068427999996,a,1,368.4375525999967,369.26068427999996,369.27025429999776,371.07434148000027,0.8145318000024417,814.5318000024417,EMOCONPILOT015,2021_Feb_18_1629,EmoCon_Pilot_120Hz,2020.2.4,119.98809718266654,
,,,,0,0,0,0,111,0,111,0,,,,,,,,,,,,,,,,,,,,,,,,,,,,,,,,,,,,,,,,,,,,,,111,11.0,f,030_o_f_h_a.jpg,happy,d,17,1,371.07973389999825,371.3743628799988,371.5853192999966,371.74565857999767,371.7496168999969,371.78658697999924,371.7910043999982,372.2064144799973,d,1,371.7910043999982,372.2064144799973,372.2180281000001,373.3494003799991,0.40520830000241403,405.20830000241403,EMOCONPILOT015,2021_Feb_18_1629,EmoCon_Pilot_120Hz,2020.2.4,119.98809718266654,
,,,,0,0,0,0,112,0,112,0,,,,,,,,,,,,,,,,,,,,,,,,,,,,,,,,,,,,,,,,,,,,,,112,7.0,f,012_o_f_n_a.jpg,neutral,s,17,1,373.353749599999,373.6494370799977,373.8560421000002,374.0181906799975,374.02177129999836,374.06115757999794,374.0665343999972,375.31204268,s,1,374.0665343999972,375.31204268,375.3217850000001,376.6328138800003,1.2335189000004902,1233.5189000004902,EMOCONPILOT015,2021_Feb_18_1629,EmoCon_Pilot_120Hz,2020.2.4,119.98809718266654,
,,,,0,0,0,0,113,0,113,0,,,,,,,,,,,,,,,,,,,,,,,,,,,,,,,,,,,,,,,,,,,,,,113,2.0,m,008_y_m_s_a.jpg,sad,a,17,1,376.6366113999975,376.9328460799974,377.16794169999775,377.3270624799974,377.3316462999974,377.3727195799969,377.37756699999954,377.94598557999996,a,1,377.37756699999954,377.94598557999996,377.9574221999974,379.5411605799985,0.5545410000013362,554.5410000013362,EMOCONPILOT015,2021_Feb_18_1629,EmoCon_Pilot_120Hz,2020.2.4,119.98809718266654,
,,,,0,0,0,0,114,0,114,0,,,,,,,,,,,,,,,,,,,,,,,,,,,,,,,,,,,,,,,,,,,,,,114,11.0,f,030_o_f_h_a.jpg,happy,d,17,1,379.54630539999926,379.8412760799969,380.0389918000001,380.19712817999823,380.20186119999926,380.24294357999895,380.2479343999985,380.745675479999,d,1,380.2479343999985,380.745675479999,380.75569299999916,382.1828239800001,0.48433529999965685,484.33529999965685,EMOCONPILOT015,2021_Feb_18_1629,EmoCon_Pilot_120Hz,2020.2.4,119.98809718266654,
,,,,0,0,0,0,115,0,115,0,,,,,,,,,,,,,,,,,,,,,,,,,,,,,,,,,,,,,,,,,,,,,,115,3.0,m,013_y_m_h_a.jpg,happy,d,17,1,382.185712399998,382.4828634799982,382.7155985999998,382.8657758799985,382.86891509999987,382.9061934799996,382.9094125999982,383.3216322799984,d,1,382.9094125999982,383.3216322799984,383.33075669999744,385.19975237999677,0.3986860000004526,398.6860000004526,EMOCONPILOT015,2021_Feb_18_1629,EmoCon_Pilot_120Hz,2020.2.4,119.98809718266654,
,,,,0,0,0,0,116,0,116,0,,,,,,,,,,,,,,,,,,,,,,,,,,,,,,,,,,,,,,,,,,,,,,116,2.0,m,008_y_m_s_a.jpg,sad,a,17,1,385.205549899998,385.4997483799983,385.7291437999993,385.88381817999687,385.88882049999665,385.92974587999777,385.93476629999714,386.9894748799983,a,1,385.93476629999714,386.9894748799983,386.9976485999978,388.74971237999705,1.0454339999996591,1045.4339999996591,EMOCONPILOT015,2021_Feb_18_1629,EmoCon_Pilot_120Hz,2020.2.4,119.98809718266654,
,,,,0,0,0,0,117,0,117,0,,,,,,,,,,,,,,,,,,,,,,,,,,,,,,,,,,,,,,,,,,,,,,117,3.0,m,013_y_m_n_a.jpg,neutral,s,17,1,388.7525399999977,389.04960307999715,389.28233609999734,389.4376697799984,389.4417289999983,389.48227707999683,389.48729230000026,390.074401379998,s,1,389.48729230000026,390.074401379998,390.08272059999945,391.3496564799992,0.572871699998359,572.871699998359,EMOCONPILOT015,2021_Feb_18_1629,EmoCon_Pilot_120Hz,2020.2.4,119.98809718266654,
,,,,0,0,0,0,118,0,118,0,,,,,,,,,,,,,,,,,,,,,,,,,,,,,,,,,,,,,,,,,,,,,,118,6.0,m,033_o_m_n_a.jpg,neutral,s,17,1,391.35267999999996,391.64973207999935,391.8395031,391.9990256799996,392.0038609999974,392.0447816799991,392.05000599999767,392.7002234799969,s,1,392.05000599999767,392.7002234799969,392.70684899999833,394.2914786799978,0.6341294999983802,634.1294999983802,EMOCONPILOT015,2021_Feb_18_1629,EmoCon_Pilot_120Hz,2020.2.4,119.98809718266654,
,,,,0,0,0,0,119,0,119,0,,,,,,,,,,,,,,,,,,,,,,,,,,,,,,,,,,,,,,,,,,,,,,119,6.0,m,033_o_m_n_a.jpg,neutral,s,17,1,394.29583679999996,394.591570879997,394.78385779999735,394.94635907999907,394.9497526999985,394.98756247999916,394.99177659999987,395.4648472799985,s,1,394.99177659999987,395.4648472799985,395.4760725999986,397.4499469799979,0.46077209999930346,460.77209999930346,EMOCONPILOT015,2021_Feb_18_1629,EmoCon_Pilot_120Hz,2020.2.4,119.98809718266654,
,,,,1,0,1,0,0,0,0,0,,,,,,,,,,,,,,,,,,,,,,,,,,,,,,,,,,,,,,,397.5427301999989,410.14830257999927,s,12.597209499999735,12597.209499999735,397.5427301999989,410.14830257999927,0,1.0,m,004_o_m_s_a.jpg,sad,a,2,2,410.15360839999994,410.441855479998,410.4626962000002,410.47806477999836,410.4786781999974,410.51419027999725,410.51378079999995,412.0132619799973,a,1,410.51378079999995,412.0132619799973,412.0236045999991,413.3334002799987,1.4903174999999464,1490.3174999999464,EMOCONPILOT015,2021_Feb_18_1629,EmoCon_Pilot_120Hz,2020.2.4,119.98809718266654,
,,,,1,0,1,0,1,0,1,0,,,,,,,,,,,,,,,,,,,,,,,,,,,,,,,,,,,,,,,,,,,,,,1,9.0,f,021_o_f_n_a.jpg,neutral,s,17,2,413.3340336000001,413.6334197799973,413.8515977999996,414.0210427799997,414.0259140999988,414.06633757999805,414.0714759000002,415.0582864800002,s,1,414.0714759000002,415.0582864800002,415.0667874999999,416.2252471799969,0.9726388000017323,972.6388000017323,EMOCONPILOT015,2021_Feb_18_1629,EmoCon_Pilot_120Hz,2020.2.4,119.98809718266654,
,,,,1,0,1,0,2,0,2,0,,,,,,,,,,,,,,,,,,,,,,,,,,,,,,,,,,,,,,,,,,,,,,2,11.0,f,030_o_f_s_a.jpg,sad,a,17,2,416.23035829999935,416.52524367999865,416.71604399999705,416.87366227999735,416.87847079999847,416.91968027999826,416.92471119999755,417.6840049799997,a,1,416.92471119999755,417.6840049799997,417.69579469999735,419.10039467999957,0.751587799997651,751.587799997651,EMOCONPILOT015,2021_Feb_18_1629,EmoCon_Pilot_120Hz,2020.2.4,119.98809718266654,
,,,,1,0,1,0,3,0,3,0,,,,,,,,,,,,,,,,,,,,,,,,,,,,,,,,,,,,,,,,,,,,,,3,10.0,f,028_y_f_s_a.jpg,sad,a,2,2,419.10570529999677,419.4002900799991,419.42310689999795,419.43824037999946,419.4385822999975,419.4765425799982,419.4765275999998,420.910370279997,s,0,419.4765275999998,420.910370279997,420.91855639999994,422.67536117999987,1.4235530000005383,1423.5530000005383,EMOCONPILOT015,2021_Feb_18_1629,EmoCon_Pilot_120Hz,2020.2.4,119.98809718266654,
,,,,1,0,1,0,4,0,4,0,,,,,,,,,,,,,,,,,,,,,,,,,,,,,,,,,,,,,,,,,,,,,,4,6.0,m,033_o_m_n_a.jpg,neutral,s,2,2,422.68049229999815,422.97538437999754,423.1803433999994,423.19752787999676,423.19776339999953,423.23494737999715,423.236114299998,423.98759627999823,s,1,423.236114299998,423.98759627999823,423.9957840999996,425.3003060799987,0.7438631000004534,743.8631000004534,EMOCONPILOT015,2021_Feb_18_1629,EmoCon_Pilot_120Hz,2020.2.4,119.98809718266654,
,,,,1,0,1,0,5,0,5,0,,,,,,,,,,,,,,,,,,,,,,,,,,,,,,,,,,,,,,,,,,,,,,5,1.0,m,004_o_m_n_a.jpg,neutral,s,17,2,425.30305339999904,425.6003059799972,425.80506779999996,425.96807857999954,425.97285519999787,426.0110617799968,426.0147072,426.70318277999684,a,0,426.0147072,426.70318277999684,426.71008449999863,427.8254501799987,0.6771923000014795,677.1923000014795,EMOCONPILOT015,2021_Feb_18_1629,EmoCon_Pilot_120Hz,2020.2.4,119.98809718266654,
,,,,1,0,1,0,6,0,6,0,,,,,,,,,,,,,,,,,,,,,,,,,,,,,,,,,,,,,,,,,,,,,,6,12.0,f,040_y_f_s_a.jpg,sad,a,17,2,427.8297121999967,428.1254480800002,428.1498580999978,428.2854908799985,428.28746559999854,428.32678238000005,428.3285087999975,429.0511565799992,a,1,428.3285087999975,429.0511565799992,429.0595345999973,430.41706347999786,0.7075604999990901,707.5604999990901,EMOCONPILOT015,2021_Feb_18_1629,EmoCon_Pilot_120Hz,2020.2.4,119.98809718266654,
,,,,1,0,1,0,7,0,7,0,,,,,,,,,,,,,,,,,,,,,,,,,,,,,,,,,,,,,,,,,,,,,,7,9.0,f,021_o_f_n_a.jpg,neutral,s,17,2,430.41982639999696,430.717250879998,431.0452536999983,431.20368237999935,431.2072761999989,431.2444273799978,431.2475849000002,431.8179563799989,s,1,431.2475849000002,431.8179563799989,431.8279539999967,433.3922372799992,0.5569031000013638,556.9031000013638,EMOCONPILOT015,2021_Feb_18_1629,EmoCon_Pilot_120Hz,2020.2.4,119.98809718266654,
,,,,1,0,1,0,8,0,8,0,,,,,,,,,,,,,,,,,,,,,,,,,,,,,,,,,,,,,,,,,,,,,,8,9.0,f,021_o_f_s_a.jpg,sad,a,17,2,433.3963408999989,433.6922424799981,433.71559530000013,433.85222787999953,433.85536659999707,433.8934764799982,433.8967158999985,434.4914761799977,a,1,433.8967158999985,434.4914761799977,434.4998768999976,436.4753867799976,0.5872750000016822,587.2750000016822,EMOCONPILOT015,2021_Feb_18_1629,EmoCon_Pilot_120Hz,2020.2.4,119.98809718266654,
,,,,1,0,1,0,9,0,9,0,,,,,,,,,,,,,,,,,,,,,,,,,,,,,,,,,,,,,,,,,,,,,,9,4.0,m,016_y_m_s_a.jpg,sad,a,17,2,436.4755570999987,436.7757009799992,436.79324389999965,436.9273442799989,436.93239449999965,436.9731074799987,436.9782477999979,437.6385766799998,a,1,436.9782477999979,437.6385766799998,437.65108279999913,439.47568997999986,0.649879399999918,649.879399999918,EMOCONPILOT015,2021_Feb_18_1629,EmoCon_Pilot_120Hz,2020.2.4,119.98809718266654,
,,,,1,0,1,0,10,0,10,0,,,,,,,,,,,,,,,,,,,,,,,,,,,,,,,,,,,,,,,,,,,,,,10,7.0,f,012_o_f_n_a.jpg,neutral,s,2,2,439.4815806999977,439.7756799799994,440.00187939999887,440.01970237999774,440.0204378999988,440.05437107999967,440.0540559000001,441.78181527999766,None,0,440.0540559000001,441.78181527999766,441.78804209999726,443.4090515800002,,,EMOCONPILOT015,2021_Feb_18_1629,EmoCon_Pilot_120Hz,2020.2.4,119.98809718266654,
,,,,1,0,1,0,11,0,11,0,,,,,,,,,,,,,,,,,,,,,,,,,,,,,,,,,,,,,,,,,,,,,,11,2.0,m,008_y_m_n_a.jpg,neutral,s,17,2,443.4120820999997,443.70908407999957,443.9434283999981,444.11077087999945,444.1152836000001,444.1560927799968,444.1613058999974,444.647682879999,s,1,444.1613058999974,444.647682879999,444.66025289999743,445.7342263799968,0.4749111000019184,474.9111000019184,EMOCONPILOT015,2021_Feb_18_1629,EmoCon_Pilot_120Hz,2020.2.4,119.98809718266654,
,,,,1,0,1,0,12,0,12,0,,,,,,,,,,,,,,,,,,,,,,,,,,,,,,,,,,,,,,,,,,,,,,12,1.0,m,004_o_m_s_a.jpg,sad,a,17,2,445.738223999997,446.03418087999887,446.0505710999969,446.1858316799975,446.1902338999971,446.2312687799989,446.2362312999976,446.81605907999835,a,1,446.2362312999976,446.81605907999835,446.82774829999835,448.3843301799992,0.5678602000007231,567.8602000007231,EMOCONPILOT015,2021_Feb_18_1629,EmoCon_Pilot_120Hz,2020.2.4,119.98809718266654,
,,,,1,0,1,0,13,0,13,0,,,,,,,,,,,,,,,,,,,,,,,,,,,,,,,,,,,,,,,,,,,,,,13,7.0,f,012_o_f_h_a.jpg,happy,d,2,2,448.3898616999977,448.68422617999965,448.70041989999663,448.7151287799992,448.7152486999985,448.7520610799969,448.75272929999846,449.9154156799981,s,0,448.75272929999846,449.9154156799981,449.9229403999998,451.44252297999844,1.1552260999997088,1155.2260999997088,EMOCONPILOT015,2021_Feb_18_1629,EmoCon_Pilot_120Hz,2020.2.4,119.98809718266654,
,,,,1,0,1,0,14,0,14,0,,,,,,,,,,,,,,,,,,,,,,,,,,,,,,,,,,,,,,,,,,,,,,14,3.0,m,013_y_m_h_a.jpg,happy,d,2,2,451.44662529999914,451.74253177999924,451.9969769999989,452.0143665799973,452.0144982999991,452.05200307999837,452.0533445000001,452.72193207999806,d,1,452.0533445000001,452.72193207999806,452.7286118999982,454.4259771799974,0.6546918999993068,654.6918999993068,EMOCONPILOT015,2021_Feb_18_1629,EmoCon_Pilot_120Hz,2020.2.4,119.98809718266654,
,,,,1,0,1,0,15,0,15,0,,,,,,,,,,,,,,,,,,,,,,,,,,,,,,,,,,,,,,,,,,,,,,15,11.0,f,030_o_f_n_a.jpg,neutral,s,2,2,454.43141619999733,454.72599487999685,454.92563399999926,454.94291887999714,454.94327879999764,454.97840307999866,454.97978229999717,456.61078307999776,None,0,454.97978229999717,456.61078307999776,456.61499249999906,457.94276857999864,,,EMOCONPILOT015,2021_Feb_18_1629,EmoCon_Pilot_120Hz,2020.2.4,119.98809718266654,
,,,,1,0,1,0,16,0,16,0,,,,,,,,,,,,,,,,,,,,,,,,,,,,,,,,,,,,,,,,,,,,,,16,3.0,m,013_y_m_n_a.jpg,neutral,s,17,2,457.94591749999745,458.2426103799975,458.4802396999985,458.6357526799969,458.6372354999985,458.67458587999715,458.676161899999,459.13764727999876,s,1,458.676161899999,459.13764727999876,459.14331630000015,461.05120617999853,0.44780509999691276,447.80509999691276,EMOCONPILOT015,2021_Feb_18_1629,EmoCon_Pilot_120Hz,2020.2.4,119.98809718266654,
,,,,1,0,1,0,17,0,17,0,,,,,,,,,,,,,,,,,,,,,,,,,,,,,,,,,,,,,,,,,,,,,,17,9.0,f,021_o_f_h_a.jpg,happy,d,2,2,461.05674519999957,461.351236779998,461.56209279999894,461.5797650799999,461.580631599998,461.6169546799996,461.6174508999975,462.24304788000006,d,1,461.6174508999975,462.24304788000006,462.2485760999989,463.5428141799988,0.6186114999982237,618.6114999982237,EMOCONPILOT015,2021_Feb_18_1629,EmoCon_Pilot_120Hz,2020.2.4,119.98809718266654,
,,,,1,0,1,0,18,0,18,0,,,,,,,,,,,,,,,,,,,,,,,,,,,,,,,,,,,,,,,,,,,,,,18,3.0,m,013_y_m_s_a.jpg,sad,a,2,2,463.5469250999995,463.8428292800003,463.85979069999667,463.87512787999947,463.8760512999979,463.911005979999,463.91243939999913,464.67567318,a,1,463.91243939999913,464.67567318,464.6834861999996,466.12621867999985,0.747595699998783,747.595699998783,EMOCONPILOT015,2021_Feb_18_1629,EmoCon_Pilot_120Hz,2020.2.4,119.98809718266654,
,,,,1,0,1,0,19,0,19,0,,,,,,,,,,,,,,,,,,,,,,,,,,,,,,,,,,,,,,,,,,,,,,19,10.0,f,028_y_f_h_a.jpg,happy,d,2,2,466.1290881999994,466.4261135799992,466.44044289999874,466.4552618799993,466.4556714999999,466.4939766800002,466.4951925999994,467.25082147999854,d,1,466.4951925999994,467.25082147999854,467.2620941999994,468.6262669800002,0.740992399998504,740.992399998504,EMOCONPILOT015,2021_Feb_18_1629,EmoCon_Pilot_120Hz,2020.2.4,119.98809718266654,
,,,,1,0,1,0,20,0,20,0,,,,,,,,,,,,,,,,,,,,,,,,,,,,,,,,,,,,,,,,,,,,,,20,4.0,m,016_y_m_h_a.jpg,happy,d,2,2,468.63152919999993,468.9262415799989,468.9575929999992,468.97340027999815,468.97509139999966,469.0122832799992,469.0139468999987,469.6315777799995,d,1,469.0139468999987,469.6315777799995,469.6389154999997,471.39294707999795,0.605999299998075,605.999299998075,EMOCONPILOT015,2021_Feb_18_1629,EmoCon_Pilot_120Hz,2020.2.4,119.98809718266654,
,,,,1,0,1,0,21,0,21,0,,,,,,,,,,,,,,,,,,,,,,,,,,,,,,,,,,,,,,,,,,,,,,21,6.0,m,033_o_m_h_a.jpg,happy,d,17,2,471.39710419999756,471.6929822799997,471.71329759999935,471.8445343799998,471.84759510000004,471.88583437999694,471.8886018999983,472.3023008799995,d,1,471.8886018999983,472.3023008799995,472.3107732999997,473.82632387999763,0.40337970000109635,403.37970000109635,EMOCONPILOT015,2021_Feb_18_1629,EmoCon_Pilot_120Hz,2020.2.4,119.98809718266654,
,,,,1,0,1,0,22,0,22,0,,,,,,,,,,,,,,,,,,,,,,,,,,,,,,,,,,,,,,,,,,,,,,22,5.0,m,027_o_m_s_a.jpg,sad,a,2,2,473.8304610999985,474.12640037999734,474.1477036999968,474.16293447999703,474.16381519999777,474.1994146799974,474.1996110999971,475.85883317999685,None,0,474.1996110999971,475.85883317999685,475.86539309999716,477.75978767999766,,,EMOCONPILOT015,2021_Feb_18_1629,EmoCon_Pilot_120Hz,2020.2.4,119.98809718266654,
,,,,1,0,1,0,23,0,23,0,,,,,,,,,,,,,,,,,,,,,,,,,,,,,,,,,,,,,,,,,,,,,,23,10.0,f,028_y_f_n_a.jpg,neutral,s,17,2,477.7646539999987,478.0597858799978,478.2792429000001,478.43207198000016,478.43534779999754,478.4726709800001,478.4756434999981,479.3196310799998,s,1,478.4756434999981,479.3196310799998,479.3259823999979,481.259834679999,0.832221099997696,832.221099997696,EMOCONPILOT015,2021_Feb_18_1629,EmoCon_Pilot_120Hz,2020.2.4,119.98809718266654,
,,,,1,0,1,0,24,0,24,0,,,,,,,,,,,,,,,,,,,,,,,,,,,,,,,,,,,,,,,,,,,,,,24,9.0,f,021_o_f_n_a.jpg,neutral,s,2,2,481.26272609999796,481.55978977999837,481.7757739999979,481.7927921799986,481.79658559999734,481.83731247999674,481.8422658999989,483.60328387999687,None,0,481.8422658999989,483.60328387999687,483.60620299999937,485.1931543799968,,,EMOCONPILOT015,2021_Feb_18_1629,EmoCon_Pilot_120Hz,2020.2.4,119.98809718266654,
,,,,1,0,1,0,25,0,25,0,,,,,,,,,,,,,,,,,,,,,,,,,,,,,,,,,,,,,,,,,,,,,,25,8.0,f,019_m_f_h_a.jpg,happy,d,2,2,485.19592959999864,485.49314438,485.5148991999995,485.53024367999967,485.53215779999664,485.569425879998,485.57071359999827,486.16284397999914,d,1,485.57071359999827,486.16284397999914,486.17139769999994,487.2182493799977,0.5852720000002591,585.2720000002591,EMOCONPILOT015,2021_Feb_18_1629,EmoCon_Pilot_120Hz,2020.2.4,119.98809718266654,
,,,,1,0,1,0,26,0,26,0,,,,,,,,,,,,,,,,,,,,,,,,,,,,,,,,,,,,,,,,,,,,,,26,4.0,m,016_y_m_n_a.jpg,neutral,s,2,2,487.2224294999978,487.51825827999926,487.7583173999992,487.7749274799993,487.7758161999991,487.81125087999897,487.8111054999972,488.9178502799972,s,1,487.8111054999972,488.9178502799972,488.92597749999914,490.01822277999815,1.096855300002062,1096.855300002062,EMOCONPILOT015,2021_Feb_18_1629,EmoCon_Pilot_120Hz,2020.2.4,119.98809718266654,
,,,,1,0,1,0,27,0,27,0,,,,,,,,,,,,,,,,,,,,,,,,,,,,,,,,,,,,,,,,,,,,,,27,1.0,m,004_o_m_h_a.jpg,happy,d,2,2,490.0209130999974,490.3182557799977,490.5180565999981,490.53528547999883,490.5355187999994,490.57074818000035,490.5702377999987,491.1080287799981,d,1,490.5702377999987,491.1080287799981,491.1162136999992,492.7349679799976,0.5216782000024978,521.6782000024978,EMOCONPILOT015,2021_Feb_18_1629,EmoCon_Pilot_120Hz,2020.2.4,119.98809718266654,
,,,,1,0,1,0,28,0,28,0,,,,,,,,,,,,,,,,,,,,,,,,,,,,,,,,,,,,,,,,,,,,,,28,10.0,f,028_y_f_s_a.jpg,sad,a,2,2,492.737817199999,493.03497447999905,493.0473516999991,493.06281098000034,493.06351619999987,493.0994523799985,493.1011187999975,493.84502497999927,a,1,493.1011187999975,493.84502497999927,493.85138339999685,495.7435401799979,0.7347613999991154,734.7613999991154,EMOCONPILOT015,2021_Feb_18_1629,EmoCon_Pilot_120Hz,2020.2.4,119.98809718266654,
,,,,1,0,1,0,29,0,29,0,,,,,,,,,,,,,,,,,,,,,,,,,,,,,,,,,,,,,,,,,,,,,,29,5.0,m,027_o_m_h_a.jpg,happy,d,17,2,495.74949379999816,496.04346207999913,496.26271559999805,496.4318474799969,496.43612459999713,496.4767575799982,496.4815813999994,496.8673462799983,d,1,496.4815813999994,496.8673462799983,496.87785280000026,497.8935886799976,0.3705832999985432,370.5832999985432,EMOCONPILOT015,2021_Feb_18_1629,EmoCon_Pilot_120Hz,2020.2.4,119.98809718266654,
,,,,1,0,1,0,30,0,30,0,,,,,,,,,,,,,,,,,,,,,,,,,,,,,,,,,,,,,,,,,,,,,,30,10.0,f,028_y_f_h_a.jpg,happy,d,17,2,497.8989260999988,498.1935219799983,498.21373069999754,498.3452172799974,498.34828579999885,498.38642667999954,498.38964139999734,498.88892218000035,d,1,498.38964139999734,498.88892218000035,498.89629429999695,500.7602514799968,0.48621799999818904,486.21799999818904,EMOCONPILOT015,2021_Feb_18_1629,EmoCon_Pilot_120Hz,2020.2.4,119.98809718266654,
,,,,1,0,1,0,31,0,31,0,,,,,,,,,,,,,,,,,,,,,,,,,,,,,,,,,,,,,,,,,,,,,,31,5.0,m,027_o_m_h_a.jpg,happy,d,17,2,500.7661722999983,501.0602759799971,501.27272809999704,501.43361477999713,501.4382501999971,501.48087917999726,501.48610479999843,501.79126997999845,d,1,501.48610479999843,501.79126997999845,501.8028508999996,503.20203907999746,0.29393939999863505,293.93939999863505,EMOCONPILOT015,2021_Feb_18_1629,EmoCon_Pilot_120Hz,2020.2.4,119.98809718266654,
,,,,1,0,1,0,32,0,32,0,,,,,,,,,,,,,,,,,,,,,,,,,,,,,,,,,,,,,,,,,,,,,,32,9.0,f,021_o_f_n_a.jpg,neutral,s,2,2,503.20742119999704,503.50205477999987,503.7168533999975,503.7338098799977,503.7345443999984,503.76974127999927,503.77104009999675,505.32907697999906,s,1,503.77104009999675,505.32907697999906,505.33737069999916,506.91032967999706,1.5448228000022937,1544.8228000022937,EMOCONPILOT015,2021_Feb_18_1629,EmoCon_Pilot_120Hz,2020.2.4,119.98809718266654,
,,,,1,0,1,0,33,0,33,0,,,,,,,,,,,,,,,,,,,,,,,,,,,,,,,,,,,,,,,,,,,,,,33,3.0,m,013_y_m_s_a.jpg,sad,a,2,2,506.91420409999773,507.2103229799999,507.2321400999972,507.24732187999905,507.2475336999996,507.28654357999983,507.28800959999717,507.9003447799972,a,1,507.28800959999717,507.9003447799972,507.9095944999972,509.55194118,0.5959965999973065,595.9965999973065,EMOCONPILOT015,2021_Feb_18_1629,EmoCon_Pilot_120Hz,2020.2.4,119.98809718266654,
,,,,1,0,1,0,34,0,34,0,,,,,,,,,,,,,,,,,,,,,,,,,,,,,,,,,,,,,,,,,,,,,,34,1.0,m,004_o_m_n_a.jpg,neutral,s,2,2,509.5548036,509.85196237999696,510.0565482999991,510.0750059799997,510.07851969999683,510.11895217999916,510.123892399999,511.55636267999796,a,0,510.123892399999,511.55636267999796,511.56463209999856,513.152176779999,1.4160792000002402,1416.0792000002402,EMOCONPILOT015,2021_Feb_18_1629,EmoCon_Pilot_120Hz,2020.2.4,119.98809718266654,
,,,,1,0,1,0,35,0,35,0,,,,,,,,,,,,,,,,,,,,,,,,,,,,,,,,,,,,,,,,,,,,,,35,12.0,f,040_y_f_h_a.jpg,happy,d,17,2,513.1579576999975,513.4522268799977,513.4687436999993,513.6036870800002,513.6064432999992,513.6449508799982,513.648366999998,514.1391840799973,d,1,513.648366999998,514.1391840799973,514.1484776999969,515.9104027799971,0.475610699999379,475.610699999379,EMOCONPILOT015,2021_Feb_18_1629,EmoCon_Pilot_120Hz,2020.2.4,119.98809718266654,
,,,,1,0,1,0,36,0,36,0,,,,,,,,,,,,,,,,,,,,,,,,,,,,,,,,,,,,,,,,,,,,,,36,10.0,f,028_y_f_n_a.jpg,neutral,s,2,2,515.9132950999992,516.2104198799992,516.407494799998,516.4241741799982,516.4247407999974,516.461659879997,516.4618598999987,517.2896683799976,s,1,516.4618598999987,517.2896683799976,517.2963105999988,518.8438812799999,0.8139798000011069,813.9798000011069,EMOCONPILOT015,2021_Feb_18_1629,EmoCon_Pilot_120Hz,2020.2.4,119.98809718266654,
,,,,1,0,1,0,37,0,37,0,,,,,,,,,,,,,,,,,,,,,,,,,,,,,,,,,,,,,,,,,,,,,,37,11.0,f,030_o_f_n_a.jpg,neutral,s,2,2,518.846744399998,519.1439184799987,519.3419091999967,519.3589682799997,519.3592899999967,519.3951485799975,519.3965777999983,520.5910495800002,s,1,519.3965777999983,520.5910495800002,520.6003832999995,522.335643179997,1.183334899997135,1183.334899997135,EMOCONPILOT015,2021_Feb_18_1629,EmoCon_Pilot_120Hz,2020.2.4,119.98809718266654,
,,,,1,0,1,0,38,0,38,0,,,,,,,,,,,,,,,,,,,,,,,,,,,,,,,,,,,,,,,,,,,,,,38,1.0,m,004_o_m_h_a.jpg,happy,d,17,2,522.3385882999974,522.6355376799969,522.8273792999971,522.9888438799993,522.9934840999995,523.0344457799969,523.0392793999999,523.4327671799969,d,1,523.0392793999999,523.4327671799969,523.4360181999982,524.5022878799995,0.3804541999998037,380.4541999998037,EMOCONPILOT015,2021_Feb_18_1629,EmoCon_Pilot_120Hz,2020.2.4,119.98809718266654,
,,,,1,0,1,0,39,0,39,0,,,,,,,,,,,,,,,,,,,,,,,,,,,,,,,,,,,,,,,,,,,,,,39,6.0,m,033_o_m_h_a.jpg,happy,d,17,2,524.5050922999981,524.802357879997,524.8224300999973,524.9540030800002,524.9571810999987,524.995297779997,524.998320499999,525.4203226800004,d,1,524.998320499999,525.4203226800004,525.4321048999991,526.7023476799972,0.413788800000475,413.788800000475,EMOCONPILOT015,2021_Feb_18_1629,EmoCon_Pilot_120Hz,2020.2.4,119.98809718266654,
,,,,1,0,1,0,40,0,40,0,,,,,,,,,,,,,,,,,,,,,,,,,,,,,,,,,,,,,,,,,,,,,,40,7.0,f,012_o_f_h_a.jpg,happy,d,17,2,526.7064111,527.0023266800002,527.0177214999967,527.1540732799971,527.1576196999995,527.195088679999,527.1950129999968,527.6763171799997,d,1,527.1950129999968,527.6763171799997,527.6830173999988,529.6692353799975,0.47301969999898574,473.01969999898574,EMOCONPILOT015,2021_Feb_18_1629,EmoCon_Pilot_120Hz,2020.2.4,119.98809718266654,
,,,,1,0,1,0,41,0,41,0,,,,,,,,,,,,,,,,,,,,,,,,,,,,,,,,,,,,,,,,,,,,,,41,6.0,m,033_o_m_n_a.jpg,neutral,s,17,2,529.6744823999979,529.9691955799993,530.1801543999973,530.3448456799982,530.349687599999,530.3904388799987,530.3957610999969,531.5955452799993,s,1,530.3957610999969,531.5955452799993,531.607045599998,532.8442770799978,1.1842944000018178,1184.2944000018178,EMOCONPILOT015,2021_Feb_18_1629,EmoCon_Pilot_120Hz,2020.2.4,119.98809718266654,
,,,,1,0,1,0,42,0,42,0,,,,,,,,,,,,,,,,,,,,,,,,,,,,,,,,,,,,,,,,,,,,,,42,7.0,f,012_o_f_h_a.jpg,happy,d,17,2,532.8471275999982,533.1442322799979,533.1642302,533.295885179998,533.3002035999998,533.3413095799973,533.3466354999982,533.7424302799976,d,1,533.3466354999982,533.7424302799976,533.7505549999987,535.7026516799982,0.38521209999817074,385.21209999817074,EMOCONPILOT015,2021_Feb_18_1629,EmoCon_Pilot_120Hz,2020.2.4,119.98809718266654,
,,,,1,0,1,0,43,0,43,0,,,,,,,,,,,,,,,,,,,,,,,,,,,,,,,,,,,,,,,,,,,,,,43,5.0,m,027_o_m_h_a.jpg,happy,d,17,2,535.7083925999978,536.0024632799999,536.2119203999973,536.37110178,536.375595999998,536.4163502799987,536.4215772999996,536.8289096799984,d,1,536.4215772999996,536.8289096799984,536.8327014999995,537.8693683799996,0.3982237000018358,398.2237000018358,EMOCONPILOT015,2021_Feb_18_1629,EmoCon_Pilot_120Hz,2020.2.4,119.98809718266654,
,,,,1,0,1,0,44,0,44,0,,,,,,,,,,,,,,,,,,,,,,,,,,,,,,,,,,,,,,,,,,,,,,44,10.0,f,028_y_f_s_a.jpg,sad,a,17,2,537.8736723000002,538.1692640799978,538.1816566999987,538.3125842799985,538.3156023999982,538.3539169799973,538.3582773999988,539.0173802800003,a,1,538.3582773999988,539.0173802800003,539.027825899997,540.5442152799973,0.6458057000018016,645.8057000018016,EMOCONPILOT015,2021_Feb_18_1629,EmoCon_Pilot_120Hz,2020.2.4,119.98809718266654,
,,,,1,0,1,0,45,0,45,0,,,,,,,,,,,,,,,,,,,,,,,,,,,,,,,,,,,,,,,,,,,,,,45,7.0,f,012_o_f_n_a.jpg,neutral,s,17,2,540.5469354999987,540.8442206799976,541.062136499997,541.2265473799984,541.2310464999973,541.270679579999,541.2756870999983,541.9044165799991,s,1,541.2756870999983,541.9044165799991,541.9066071999987,543.0360180800002,0.6159998000002815,615.9998000002815,EMOCONPILOT015,2021_Feb_18_1629,EmoCon_Pilot_120Hz,2020.2.4,119.98809718266654,
,,,,1,0,1,0,46,0,46,0,,,,,,,,,,,,,,,,,,,,,,,,,,,,,,,,,,,,,,,,,,,,,,46,1.0,m,004_o_m_n_a.jpg,neutral,s,2,2,543.0411416999996,543.3360148799969,543.5307808999969,543.547622479999,543.5478324999967,543.5827166799994,543.5829789999989,545.4021700799989,None,0,543.5829789999989,545.4021700799989,545.4100307999979,547.027863679998,,,EMOCONPILOT015,2021_Feb_18_1629,EmoCon_Pilot_120Hz,2020.2.4,119.98809718266654,
,,,,1,0,1,0,47,0,47,0,,,,,,,,,,,,,,,,,,,,,,,,,,,,,,,,,,,,,,,,,,,,,,47,9.0,f,021_o_f_h_a.jpg,happy,d,17,2,547.033144099998,547.327780779999,547.5308138,547.6892143799981,547.6928846999981,547.730216479997,547.7334873,548.1166176799983,d,1,547.7334873,548.1166176799983,548.1259493999969,550.0028624799983,0.3664291000022786,366.4291000022786,EMOCONPILOT015,2021_Feb_18_1629,EmoCon_Pilot_120Hz,2020.2.4,119.98809718266654,
,,,,1,0,1,0,48,0,48,0,,,,,,,,,,,,,,,,,,,,,,,,,,,,,,,,,,,,,,,,,,,,,,48,10.0,f,028_y_f_n_a.jpg,neutral,s,2,2,550.0073725000002,550.3028613800001,550.5030612999981,550.5196715799997,550.5199632999975,550.5561367799986,550.5559326000002,552.2090816799995,None,0,550.5559326000002,552.2090816799995,552.214012299999,553.7946615799978,,,EMOCONPILOT015,2021_Feb_18_1629,EmoCon_Pilot_120Hz,2020.2.4,119.98809718266654,
,,,,1,0,1,0,49,0,49,0,,,,,,,,,,,,,,,,,,,,,,,,,,,,,,,,,,,,,,,,,,,,,,49,7.0,f,012_o_f_h_a.jpg,happy,d,17,2,553.8007796999991,554.0947134799993,554.1186608999997,554.2545549800001,554.2575862999984,554.2957715799988,554.298377199997,554.681328279998,d,1,554.298377199997,554.681328279998,554.690591999999,556.0861815800002,0.3697738000009849,369.7738000009849,EMOCONPILOT015,2021_Feb_18_1629,EmoCon_Pilot_120Hz,2020.2.4,119.98809718266654,
,,,,1,0,1,0,50,0,50,0,,,,,,,,,,,,,,,,,,,,,,,,,,,,,,,,,,,,,,,,,,,,,,50,5.0,m,027_o_m_h_a.jpg,happy,d,17,2,556.0889647999975,556.3861879799973,556.5894937999983,556.7496109799998,556.7540781999996,556.7950910799976,556.7999942999995,557.0851152799972,d,1,556.7999942999995,557.0851152799972,557.0965880999975,558.9363449799988,0.27607829999760725,276.07829999760725,EMOCONPILOT015,2021_Feb_18_1629,EmoCon_Pilot_120Hz,2020.2.4,119.98809718266654,
,,,,1,0,1,0,51,0,51,0,,,,,,,,,,,,,,,,,,,,,,,,,,,,,,,,,,,,,,,,,,,,,,51,12.0,f,040_y_f_n_a.jpg,neutral,s,2,2,558.9404002999981,559.236328379999,559.4575919999988,559.4745944800001,559.4753790999966,559.512539079997,559.5141585999991,560.1102625799998,s,1,559.5141585999991,560.1102625799998,560.1175212999988,561.1698152800003,0.5856320999992022,585.6320999992022,EMOCONPILOT015,2021_Feb_18_1629,EmoCon_Pilot_120Hz,2020.2.4,119.98809718266654,
,,,,1,0,1,0,52,0,52,0,,,,,,,,,,,,,,,,,,,,,,,,,,,,,,,,,,,,,,,,,,,,,,52,2.0,m,008_y_m_h_a.jpg,happy,d,17,2,561.1755911,561.4697074799973,561.4830110000003,561.6215342799973,561.6249979999993,561.6626386800002,561.6657737999994,562.1798042799986,d,1,561.6657737999994,562.1798042799986,562.1903747999968,563.3030463799972,0.49821419999716454,498.21419999716454,EMOCONPILOT015,2021_Feb_18_1629,EmoCon_Pilot_120Hz,2020.2.4,119.98809718266654,
,,,,1,0,1,0,53,0,53,0,,,,,,,,,,,,,,,,,,,,,,,,,,,,,,,,,,,,,,,,,,,,,,53,6.0,m,033_o_m_h_a.jpg,happy,d,17,2,563.3070571999997,563.6031313799998,563.6238009999979,563.7548587799996,563.7586664999981,563.7973401799994,563.8004437999989,564.1408563799981,d,1,563.8004437999989,564.1408563799981,564.1509154999985,565.8698515799973,0.33154300000023795,331.54300000023795,EMOCONPILOT015,2021_Feb_18_1629,EmoCon_Pilot_120Hz,2020.2.4,119.98809718266654,
,,,,1,0,1,0,54,0,54,0,,,,,,,,,,,,,,,,,,,,,,,,,,,,,,,,,,,,,,,,,,,,,,54,2.0,m,008_y_m_h_a.jpg,happy,d,17,2,565.8751663999974,566.1699090799979,566.193946899999,566.3297729799982,566.3329194999969,566.3710945799997,566.3740526000001,566.6638252799988,d,1,566.3740526000001,566.6638252799988,566.6735941999978,568.4449102799975,0.27781509999840637,277.81509999840637,EMOCONPILOT015,2021_Feb_18_1629,EmoCon_Pilot_120Hz,2020.2.4,119.98809718266654,
,,,,1,0,1,0,55,0,55,0,,,,,,,,,,,,,,,,,,,,,,,,,,,,,,,,,,,,,,,,,,,,,,55,12.0,f,040_y_f_h_a.jpg,happy,d,17,2,568.4507964999975,568.7448568799977,568.7671795999995,568.9048478799981,568.9077279999983,568.9460871799987,568.9495997999984,569.2124025799989,d,1,568.9495997999984,569.2124025799989,569.2214544999988,570.8866051799981,0.24624989999938407,246.24989999938407,EMOCONPILOT015,2021_Feb_18_1629,EmoCon_Pilot_120Hz,2020.2.4,119.98809718266654,
,,,,1,0,1,0,56,0,56,0,,,,,,,,,,,,,,,,,,,,,,,,,,,,,,,,,,,,,,,,,,,,,,56,10.0,f,028_y_f_n_a.jpg,neutral,s,2,2,570.8920956000002,571.1866126799999,571.4050951999998,571.4221757799991,571.4231259999979,571.4586290799983,571.4583900999969,572.1115400799994,s,1,571.4583900999969,572.1115400799994,572.1197425999999,573.9365651799984,0.6414393999984895,641.4393999984895,EMOCONPILOT015,2021_Feb_18_1629,EmoCon_Pilot_120Hz,2020.2.4,119.98809718266654,
,,,,1,0,1,0,57,0,57,0,,,,,,,,,,,,,,,,,,,,,,,,,,,,,,,,,,,,,,,,,,,,,,57,12.0,f,040_y_f_s_a.jpg,sad,a,2,2,573.9394737000002,574.2365364799974,574.258479199998,574.2737041799977,574.2743438999969,574.3128105799973,574.314044499999,575.3285734799996,a,1,574.314044499999,575.3285734799996,575.3415499000002,576.8117924799975,1.0022295999988273,1002.2295999988273,EMOCONPILOT015,2021_Feb_18_1629,EmoCon_Pilot_120Hz,2020.2.4,119.98809718266654,
,,,,1,0,1,0,58,0,58,0,,,,,,,,,,,,,,,,,,,,,,,,,,,,,,,,,,,,,,,,,,,,,,58,5.0,m,027_o_m_n_a.jpg,neutral,s,2,2,576.8176505999982,577.1117233799981,577.3318365999985,577.3493760799996,577.3500133999987,577.3878918799986,577.3891282999975,578.6986984799972,s,1,577.3891282999975,578.6986984799972,578.7043960999981,580.3785512799972,1.2946941000009247,1294.6941000009247,EMOCONPILOT015,2021_Feb_18_1629,EmoCon_Pilot_120Hz,2020.2.4,119.98809718266654,
,,,,1,0,1,0,59,0,59,0,,,,,,,,,,,,,,,,,,,,,,,,,,,,,,,,,,,,,,,,,,,,,,59,4.0,m,016_y_m_s_a.jpg,sad,a,17,2,580.3839469999984,580.6785228799985,580.7002477999995,580.8384789799987,580.8415714999974,580.8796997800004,580.8831159000001,581.6514507799969,a,1,580.8831159000001,581.6514507799969,581.6599128999987,582.7785358799978,0.7528692000014416,752.8692000014416,EMOCONPILOT015,2021_Feb_18_1629,EmoCon_Pilot_120Hz,2020.2.4,119.98809718266654,
,,,,1,0,1,0,60,0,60,0,,,,,,,,,,,,,,,,,,,,,,,,,,,,,,,,,,,,,,,,,,,,,,60,5.0,m,027_o_m_n_a.jpg,neutral,s,17,2,582.7802659999979,583.0783781799968,583.3214393999988,583.4752820799971,583.4787361999988,583.5183232799994,583.5218129999994,584.2851207799998,s,1,583.5218129999994,584.2851207799998,584.2948395999992,585.8700928799975,0.7539794999975129,753.9794999975129,EMOCONPILOT015,2021_Feb_18_1629,EmoCon_Pilot_120Hz,2020.2.4,119.98809718266654,
,,,,1,0,1,0,61,0,61,0,,,,,,,,,,,,,,,,,,,,,,,,,,,,,,,,,,,,,,,,,,,,,,61,10.0,f,028_y_f_s_a.jpg,sad,a,17,2,585.8728558000003,586.1701168799976,586.1900155999974,586.3220112799994,586.3250264999988,586.3631385799985,586.3658286999998,586.9407771799982,a,1,586.3658286999998,586.9407771799982,586.9509053000002,588.5036978800002,0.5660040000002482,566.0040000002482,EMOCONPILOT015,2021_Feb_18_1629,EmoCon_Pilot_120Hz,2020.2.4,119.98809718266654,
,,,,1,0,1,0,62,0,62,0,,,,,,,,,,,,,,,,,,,,,,,,,,,,,,,,,,,,,,,,,,,,,,62,3.0,m,013_y_m_n_a.jpg,neutral,s,2,2,588.5094413999977,588.8036233799997,589.0450536999997,589.0620951799996,589.0627045999972,589.0988094799999,589.0985127999993,589.8178791799968,a,0,589.0985127999993,589.8178791799968,589.8251859999982,590.995423079998,0.7053706000006059,705.3706000006059,EMOCONPILOT015,2021_Feb_18_1629,EmoCon_Pilot_120Hz,2020.2.4,119.98809718266654,
,,,,1,0,1,0,63,0,63,0,,,,,,,,,,,,,,,,,,,,,,,,,,,,,,,,,,,,,,,,,,,,,,63,4.0,m,016_y_m_s_a.jpg,sad,a,2,2,591.0007988999969,591.2953297799999,591.3185348999978,591.3335860799983,591.3340799999969,591.3713731800002,591.3714034999975,591.9653624799997,a,1,591.3714034999975,591.9653624799997,591.9748411,593.1702920800002,0.584449099998892,584.449099998892,EMOCONPILOT015,2021_Feb_18_1629,EmoCon_Pilot_120Hz,2020.2.4,119.98809718266654,
,,,,1,0,1,0,64,0,64,0,,,,,,,,,,,,,,,,,,,,,,,,,,,,,,,,,,,,,,,,,,,,,,64,12.0,f,040_y_f_h_a.jpg,happy,d,17,2,593.1742949,593.4703517799993,593.482725599999,593.6136965799982,593.6171153999967,593.6548443799969,593.6582393999997,594.1233888800001,d,1,593.6582393999997,594.1233888800001,594.131814299999,595.6203868799988,0.45751880000170786,457.51880000170786,EMOCONPILOT015,2021_Feb_18_1629,EmoCon_Pilot_120Hz,2020.2.4,119.98809718266654,
,,,,1,0,1,0,65,0,65,0,,,,,,,,,,,,,,,,,,,,,,,,,,,,,,,,,,,,,,,,,,,,,,65,5.0,m,027_o_m_n_a.jpg,neutral,s,2,2,595.6257192999983,595.9203938799968,596.1423069999983,596.1589655800002,596.1633800999989,596.2040593799996,596.2080991000003,597.1534984799968,d,0,596.2080991000003,597.1534984799968,597.1635513000001,598.7872033799998,0.9320742999989307,932.0742999989307,EMOCONPILOT015,2021_Feb_18_1629,EmoCon_Pilot_120Hz,2020.2.4,119.98809718266654,
,,,,1,0,1,0,66,0,66,0,,,,,,,,,,,,,,,,,,,,,,,,,,,,,,,,,,,,,,,,,,,,,,66,6.0,m,033_o_m_s_a.jpg,sad,a,2,2,598.791385499997,599.0871021799998,599.1080869999969,599.1239922799999,599.124747599999,599.1591018799976,599.1590058000002,599.9074735799971,a,1,599.1590058000002,599.9074735799971,599.9148322999972,601.4789381799986,0.7407655000024533,740.7655000024533,EMOCONPILOT015,2021_Feb_18_1629,EmoCon_Pilot_120Hz,2020.2.4,119.98809718266654,
,,,,1,0,1,0,67,0,67,0,,,,,,,,,,,,,,,,,,,,,,,,,,,,,,,,,,,,,,,,,,,,,,67,6.0,m,033_o_m_h_a.jpg,happy,d,2,2,601.4843643999993,601.7789144799993,601.8038583999987,601.819132179999,601.8200013999995,601.8549124799996,601.8549934999974,602.5950768799979,d,1,601.8549934999974,602.5950768799979,602.5986432999998,603.7622918799992,0.7326837999971758,732.6837999971758,EMOCONPILOT015,2021_Feb_18_1629,EmoCon_Pilot_120Hz,2020.2.4,119.98809718266654,
,,,,1,0,1,0,68,0,68,0,,,,,,,,,,,,,,,,,,,,,,,,,,,,,,,,,,,,,,,,,,,,,,68,2.0,m,008_y_m_s_a.jpg,sad,a,17,2,603.765564399997,604.0621149799975,604.3034145999991,604.4586552799977,604.4631680999992,604.504356779997,604.5092751999982,604.966825179998,a,1,604.5092751999982,604.966825179998,604.9783860999996,606.11210058,0.44660840000142343,446.60840000142343,EMOCONPILOT015,2021_Feb_18_1629,EmoCon_Pilot_120Hz,2020.2.4,119.98809718266654,
,,,,1,0,1,0,69,0,69,0,,,,,,,,,,,,,,,,,,,,,,,,,,,,,,,,,,,,,,,,,,,,,,69,1.0,m,004_o_m_n_a.jpg,neutral,s,2,2,606.112503999997,606.412266079997,606.6159847999988,606.6328082799977,606.6335726999969,606.6687600799982,606.6690297999994,607.4540097800003,s,1,606.6690297999994,607.4540097800003,607.4635420999984,608.9372677799969,0.774780899999314,774.780899999314,EMOCONPILOT015,2021_Feb_18_1629,EmoCon_Pilot_120Hz,2020.2.4,119.98809718266654,
,,,,1,0,1,0,70,0,70,0,,,,,,,,,,,,,,,,,,,,,,,,,,,,,,,,,,,,,,,,,,,,,,70,2.0,m,008_y_m_s_a.jpg,sad,a,17,2,608.9399124999982,609.2371911799986,609.4646844999988,609.6219423799979,609.6268885999998,609.6674078799973,609.6726464999992,610.2718341799977,a,1,609.6726464999992,610.2718341799977,610.2833065999985,611.9039616799986,0.5873597000027075,587.3597000027075,EMOCONPILOT015,2021_Feb_18_1629,EmoCon_Pilot_120Hz,2020.2.4,119.98809718266654,
,,,,1,0,1,0,71,0,71,0,,,,,,,,,,,,,,,,,,,,,,,,,,,,,,,,,,,,,,,,,,,,,,71,11.0,f,030_o_f_n_a.jpg,neutral,s,17,2,611.9043415999986,612.2041563799997,612.4082045999967,612.5669824799974,612.5716442999983,612.6126514800002,612.6177542999976,613.398965079998,a,0,612.6177542999976,613.398965079998,613.4062189999968,614.587530979998,0.769972099998995,769.972099998995,EMOCONPILOT015,2021_Feb_18_1629,EmoCon_Pilot_120Hz,2020.2.4,119.98809718266654,
,,,,1,0,1,0,72,0,72,0,,,,,,,,,,,,,,,,,,,,,,,,,,,,,,,,,,,,,,,,,,,,,,72,11.0,f,030_o_f_n_a.jpg,neutral,s,17,2,614.5928766999969,614.8874387799973,615.0942428999988,615.2548616799999,615.2585981999982,615.2995809799999,615.3041303999998,615.8848922799974,a,0,615.3041303999998,615.8848922799974,615.895138099997,617.0875006800001,0.5637311999998929,563.7311999998929,EMOCONPILOT015,2021_Feb_18_1629,EmoCon_Pilot_120Hz,2020.2.4,119.98809718266654,
,,,,1,0,1,0,73,0,73,0,,,,,,,,,,,,,,,,,,,,,,,,,,,,,,,,,,,,,,,,,,,,,,73,2.0,m,008_y_m_s_a.jpg,sad,a,17,2,617.0928723999968,617.3874819799988,617.6340464999994,617.7927054799969,617.7975608999986,617.8385657799976,617.8426594999983,618.2510572799969,a,1,617.8426594999983,618.2510572799969,618.2594368999999,620.2208589799978,0.4011897999989742,401.1897999989742,EMOCONPILOT015,2021_Feb_18_1629,EmoCon_Pilot_120Hz,2020.2.4,119.98809718266654,
,,,,1,0,1,0,74,0,74,0,,,,,,,,,,,,,,,,,,,,,,,,,,,,,,,,,,,,,,,,,,,,,,74,11.0,f,030_o_f_n_a.jpg,neutral,s,2,2,620.2250318999977,620.5208474799969,620.7256025999995,620.743363279997,620.7440691999982,620.7810084799988,620.780468099998,621.697525779999,a,0,620.780468099998,621.697525779999,621.7041456999978,622.9959558799986,0.9032838000021002,903.2838000021002,EMOCONPILOT015,2021_Feb_18_1629,EmoCon_Pilot_120Hz,2020.2.4,119.98809718266654,
,,,,1,0,1,0,75,0,75,0,,,,,,,,,,,,,,,,,,,,,,,,,,,,,,,,,,,,,,,,,,,,,,75,1.0,m,004_o_m_s_a.jpg,sad,a,2,2,623.0011269999995,623.2959661799999,623.3208521999986,623.3363213799988,623.3369819,623.3720499799987,623.3721158999979,623.9598434799976,a,1,623.3721158999979,623.9598434799976,623.9716266999967,625.8208779799992,0.5757713000020885,575.7713000020885,EMOCONPILOT015,2021_Feb_18_1629,EmoCon_Pilot_120Hz,2020.2.4,119.98809718266654,
,,,,1,0,1,0,76,0,76,0,,,,,,,,,,,,,,,,,,,,,,,,,,,,,,,,,,,,,,,,,,,,,,76,3.0,m,013_y_m_n_a.jpg,neutral,s,17,2,625.8237300000001,626.1208871799994,626.3516402999994,626.5078018799999,626.5117777999985,626.5519611799995,626.5572986999978,627.0851739799967,s,1,626.5572986999978,627.0851739799967,627.0965294999987,628.2710611799979,0.5184721000005084,518.4721000005084,EMOCONPILOT015,2021_Feb_18_1629,EmoCon_Pilot_120Hz,2020.2.4,119.98809718266654,
,,,,1,0,1,0,77,0,77,0,,,,,,,,,,,,,,,,,,,,,,,,,,,,,,,,,,,,,,,,,,,,,,77,7.0,f,012_o_f_s_a.jpg,sad,a,2,2,628.2763983999976,628.5710799799984,628.5950516999983,628.6102788800002,628.6119515999999,628.6486534799973,628.6495751000002,629.313170779997,s,0,628.6495751000002,629.313170779997,629.3231237999971,630.9544651799973,0.6502421000004688,650.2421000004688,EMOCONPILOT015,2021_Feb_18_1629,EmoCon_Pilot_120Hz,2020.2.4,119.98809718266654,
,,,,1,0,1,0,78,0,78,0,,,,,,,,,,,,,,,,,,,,,,,,,,,,,,,,,,,,,,,,,,,,,,78,12.0,f,040_y_f_n_a.jpg,neutral,s,17,2,630.958551599997,631.2541098799978,631.4611555999982,631.6239725799991,631.6285495999982,631.6692949800002,631.6743492999994,632.2335672799985,s,1,631.6743492999994,632.2335672799985,632.241137099998,633.6378219799975,0.5454874999995809,545.4874999995809,EMOCONPILOT015,2021_Feb_18_1629,EmoCon_Pilot_120Hz,2020.2.4,119.98809718266654,
,,,,1,0,1,0,79,0,79,0,,,,,,,,,,,,,,,,,,,,,,,,,,,,,,,,,,,,,,,,,,,,,,79,6.0,m,033_o_m_h_a.jpg,happy,d,2,2,633.6442572999986,633.9379562799971,633.9582284999997,633.9734400799992,633.9742385999998,634.0106503800001,634.0111188999981,634.629936579999,d,1,634.0111188999981,634.629936579999,634.6395807999979,635.6461162799991,0.6086797999996634,608.6797999996634,EMOCONPILOT015,2021_Feb_18_1629,EmoCon_Pilot_120Hz,2020.2.4,119.98809718266654,
,,,,1,0,1,0,80,0,80,0,,,,,,,,,,,,,,,,,,,,,,,,,,,,,,,,,,,,,,,,,,,,,,80,2.0,m,008_y_m_n_a.jpg,neutral,s,2,2,635.6501374999971,635.946107279999,636.1812389999977,636.1980631799983,636.2016939999994,636.2395401799971,636.2447925999986,636.9258407799992,s,1,636.2447925999986,636.9258407799992,636.9375661999984,638.0545358799994,0.6711891000013566,671.1891000013566,EMOCONPILOT015,2021_Feb_18_1629,EmoCon_Pilot_120Hz,2020.2.4,119.98809718266654,
,,,,1,0,1,0,81,0,81,0,,,,,,,,,,,,,,,,,,,,,,,,,,,,,,,,,,,,,,,,,,,,,,81,12.0,f,040_y_f_h_a.jpg,happy,d,17,2,638.0599074999991,638.354543079999,638.379834299998,638.5145537800003,638.5181089999969,638.5580167799984,638.5623665999992,639.3437084799974,d,1,638.5623665999992,639.3437084799974,639.351164599997,641.287963279998,0.7695118000010552,769.5118000010552,EMOCONPILOT015,2021_Feb_18_1629,EmoCon_Pilot_120Hz,2020.2.4,119.98809718266654,
,,,,1,0,1,0,82,0,82,0,,,,,,,,,,,,,,,,,,,,,,,,,,,,,,,,,,,,,,,,,,,,,,82,9.0,f,021_o_f_h_a.jpg,happy,d,17,2,641.293475399998,641.5880412799983,641.8116188999993,641.9689154799984,641.9718337999984,642.0090841799996,642.0128807000001,642.4230100799999,d,1,642.0128807000001,642.4230100799999,642.4325982999981,644.3296763799975,0.39899420000074315,398.99420000074315,EMOCONPILOT015,2021_Feb_18_1629,EmoCon_Pilot_120Hz,2020.2.4,119.98809718266654,
,,,,1,0,1,0,83,0,83,0,,,,,,,,,,,,,,,,,,,,,,,,,,,,,,,,,,,,,,,,,,,,,,83,6.0,m,033_o_m_h_a.jpg,happy,d,17,2,644.3340347999983,644.6296877799999,644.6515069999987,644.7898552799983,644.7932744999998,644.8309341799999,644.8344907999999,645.2047450799968,d,1,644.8344907999999,645.2047450799968,645.2154156999968,646.9297576800003,0.36135360000116634,361.35360000116634,EMOCONPILOT015,2021_Feb_18_1629,EmoCon_Pilot_120Hz,2020.2.4,119.98809718266654,
,,,,1,0,1,0,84,0,84,0,,,,,,,,,,,,,,,,,,,,,,,,,,,,,,,,,,,,,,,,,,,,,,84,2.0,m,008_y_m_n_a.jpg,neutral,s,2,2,646.9336623999989,647.2296775799972,647.4648584999995,647.4818024799991,647.4820365999985,647.5178675800001,647.5176528999982,648.9907043799998,s,1,647.5176528999982,648.9907043799998,649.0031890999999,650.9881786799982,1.462237499999901,1462.237499999901,EMOCONPILOT015,2021_Feb_18_1629,EmoCon_Pilot_120Hz,2020.2.4,119.98809718266654,
,,,,1,0,1,0,85,0,85,0,,,,,,,,,,,,,,,,,,,,,,,,,,,,,,,,,,,,,,,,,,,,,,85,10.0,f,028_y_f_n_a.jpg,neutral,s,2,2,650.9936606999981,651.2881097800004,651.4959308999969,651.5124890799983,651.5132594999995,651.5480093799982,651.5484799999977,652.2635688799986,s,1,651.5484799999977,652.2635688799986,652.2681949999969,653.4047430799968,0.703154099999665,703.154099999665,EMOCONPILOT015,2021_Feb_18_1629,EmoCon_Pilot_120Hz,2020.2.4,119.98809718266654,
,,,,1,0,1,0,86,0,86,0,,,,,,,,,,,,,,,,,,,,,,,,,,,,,,,,,,,,,,,,,,,,,,86,6.0,m,033_o_m_h_a.jpg,happy,d,2,2,653.4073372999992,653.7047744799987,653.7248124999969,653.7403812799988,653.741016,653.7753443799978,653.7755875000003,654.4278949799976,d,1,653.7755875000003,654.4278949799976,654.4368521999968,656.3965997799991,0.636309400000755,636.309400000755,EMOCONPILOT015,2021_Feb_18_1629,EmoCon_Pilot_120Hz,2020.2.4,119.98809718266654,
,,,,1,0,1,0,87,0,87,0,,,,,,,,,,,,,,,,,,,,,,,,,,,,,,,,,,,,,,,,,,,,,,87,5.0,m,027_o_m_s_a.jpg,sad,a,2,2,656.4019131999994,656.6966052800002,656.7218914999976,656.7370411799988,656.7376915999994,656.7737105799991,656.7750589999996,658.3683437799976,None,0,656.7750589999996,658.3683437799976,658.3724998999969,659.638266979999,,,EMOCONPILOT015,2021_Feb_18_1629,EmoCon_Pilot_120Hz,2020.2.4,119.98809718266654,
,,,,1,0,1,0,88,0,88,0,,,,,,,,,,,,,,,,,,,,,,,,,,,,,,,,,,,,,,,,,,,,,,88,7.0,f,012_o_f_s_a.jpg,sad,a,17,2,659.6410765,659.9382935799971,659.9586466999972,660.0899277800003,660.0929559999968,660.1312417799985,660.1349593999985,660.7056794799995,a,1,660.1349593999985,660.7056794799995,660.7147941999974,662.5133117799982,0.5568564000022889,556.8564000022889,EMOCONPILOT015,2021_Feb_18_1629,EmoCon_Pilot_120Hz,2020.2.4,119.98809718266654,
,,,,1,0,1,0,89,0,89,0,,,,,,,,,,,,,,,,,,,,,,,,,,,,,,,,,,,,,,,,,,,,,,89,2.0,m,008_y_m_h_a.jpg,happy,d,17,2,662.5167623999987,662.8132704799995,662.8254372999982,662.9569775799995,662.9605639000001,663.0015178799971,663.0056471999997,663.71622298,d,1,663.0056471999997,663.71622298,663.7212224999967,665.2301778799978,0.701996899999358,701.996899999358,EMOCONPILOT015,2021_Feb_18_1629,EmoCon_Pilot_120Hz,2020.2.4,119.98809718266654,
,,,,1,0,1,0,90,0,90,0,,,,,,,,,,,,,,,,,,,,,,,,,,,,,,,,,,,,,,,,,,,,,,90,7.0,f,012_o_f_h_a.jpg,happy,d,2,2,665.2356137999996,665.5300869799997,665.552568799998,665.5673954799989,665.5676320999992,665.6063532799984,665.6073618999981,666.3450765799993,d,1,665.6073618999981,666.3450765799993,666.3524814999982,668.33014778,0.7244544999994105,724.4544999994105,EMOCONPILOT015,2021_Feb_18_1629,EmoCon_Pilot_120Hz,2020.2.4,119.98809718266654,
,,,,1,0,1,0,91,0,91,0,,,,,,,,,,,,,,,,,,,,,,,,,,,,,,,,,,,,,,,,,,,,,,91,10.0,f,028_y_f_s_a.jpg,sad,a,2,2,668.3356892999982,668.6301837799969,668.6511580999977,668.6666484799993,668.6670715999971,668.7025081799969,668.7025280999987,670.0926308799993,d,0,668.7025280999987,670.0926308799993,670.1043168999968,671.446861079998,1.3734915999993973,1373.4915999993973,EMOCONPILOT015,2021_Feb_18_1629,EmoCon_Pilot_120Hz,2020.2.4,119.98809718266654,
,,,,1,0,1,0,92,0,92,0,,,,,,,,,,,,,,,,,,,,,,,,,,,,,,,,,,,,,,,,,,,,,,92,12.0,f,040_y_f_s_a.jpg,sad,a,2,2,671.4511042999984,671.7469745799993,671.7679064999975,671.7836607800003,671.7844209999967,671.8208244799993,671.8209964999987,672.4561056799997,a,1,671.8209964999987,672.4561056799997,672.4655290999981,674.4468718800002,0.6227395000023535,622.7395000023535,EMOCONPILOT015,2021_Feb_18_1629,EmoCon_Pilot_120Hz,2020.2.4,119.98809718266654,
,,,,1,0,1,0,93,0,93,0,,,,,,,,,,,,,,,,,,,,,,,,,,,,,,,,,,,,,,,,,,,,,,93,2.0,m,008_y_m_n_a.jpg,neutral,s,2,2,674.4508932999997,674.7468967799999,674.9972542999967,675.0140309799993,675.0144562999994,675.0495920799971,675.0494930999994,676.209230679999,a,0,675.0494930999994,676.209230679999,676.2205069999982,677.9637283799988,1.1464398999996774,1146.4398999996774,EMOCONPILOT015,2021_Feb_18_1629,EmoCon_Pilot_120Hz,2020.2.4,119.98809718266654,
,,,,1,0,1,0,94,0,94,0,,,,,,,,,,,,,,,,,,,,,,,,,,,,,,,,,,,,,,,,,,,,,,94,11.0,f,030_o_f_s_a.jpg,sad,a,2,2,677.9692851,678.2636676799979,678.4666211999975,678.4841650799993,678.4870784999985,678.5242338800002,678.5269504999997,680.2069781799968,None,0,678.5269504999997,680.2069781799968,680.2136984999997,682.1054071799975,,,EMOCONPILOT015,2021_Feb_18_1629,EmoCon_Pilot_120Hz,2020.2.4,119.98809718266654,
