trials_example.thisRepN,trials_example.thisTrialN,trials_example.thisN,trials_example.thisIndex,block.thisRepN,block.thisTrialN,block.thisN,block.thisIndex,trials_study.thisRepN,trials_study.thisTrialN,trials_study.thisN,trials_study.thisIndex,text_welcome.started,text_welcome.stopped,text_intro.started,text_intro.stopped,key_resp_intro.keys,key_resp_intro.started,key_resp_intro.stopped,text_intro2.started,text_intro2.stopped,key_resp_intro2.keys,key_resp_intro2.rt,key_resp_intro2.started,key_resp_intro2.stopped,example trial,personPrimeExample,genderPrimeExample,primeExample,emotionPrimeExample,corrAnsPrimeExample,example mask time,fix300_example.started,fix300_example.stopped,image_primer_example.started,image_primer_example.stopped,scrambled.started,scrambled.stopped,text_response_example.started,text_response_example.stopped,key_resp_example.keys,key_resp_example.corr,key_resp_example.started,key_resp_example.stopped,Jitter_example.started,Jitter_example.stopped,key_resp_example.rt,key_resp_example.rt in ms,text_start.started,text_start.stopped,text_pause.started,text_pause.stopped,key_resp_pause.keys,key_resp_pause.rt,key_resp_pause.rt in ms,key_resp_pause.started,key_resp_pause.stopped,study trial,personPrimeStudy,genderPrimeStudy,primeStudy,emotionPrimeStudy,corrAnsPrimeStudy,study mask time,Block,fix300_study.started,fix300_study.stopped,image_primer_study.started,image_primer_study.stopped,scrambled_study.started,scrambled_study.stopped,text_response_study.started,text_response_study.stopped,key_resp_study.keys,key_resp_study.corr,key_resp_study.rt,key_resp_study.rt in ms,key_resp_study.started,key_resp_study.stopped,Jitter_study.started,Jitter_study.stopped,participant,date,expName,psychopyVersion,frameRate,
,,,,,,,,,,,,15.951041399966925,18.937524929986104,18.939204399997834,24.724886829958997,None,18.939204399997834,24.724886829958997,,,,,,,,,,,,,,,,,,,,,,,,,,,,,,,,,,,,,,,,,,,,,,,,,,,,,,,,,,,,,,,EMOCONPILOT004,2020_Dec_15_1203,EmoCon_Pilot_120Hz,2020.2.4,119.99990405522507,
,,,,,,,,,,,,,,,,,,,24.72840029996587,27.3280754300009,a,2.5847391999559477,24.72840029996587,27.3280754300009,,,,,,,,,,,,,,,,,,,,,,,,,,,,,,,,,,,,,,,,,,,,,,,,,,,,,,,,,EMOCONPILOT004,2020_Dec_15_1203,EmoCon_Pilot_120Hz,2020.2.4,119.99990405522507,
0,0,0,0,,,,,,,,,,,,,,,,,,,,,,0,3.0,f,1113_y_f_s_a.jpg,sad,a,17,27.337358099990524,27.629439229954734,27.882636499998625,28.053382729989245,28.06157689995598,28.09709842997254,28.09837319998769,29.706932729977417,None,0,28.09837319998769,29.706932729977417,29.709845699951984,31.02957932999707,,,,,,,,,,,,,,,,,,,,,,,,,,,,,,,,,,,,EMOCONPILOT004,2020_Dec_15_1203,EmoCon_Pilot_120Hz,2020.2.4,119.99990405522507,
1,0,1,0,,,,,,,,,,,,,,,,,,,,,,1,1.0,m,1111_m_m_s_a.jpg,sad,a,17,31.0319011999527,31.329485129966635,31.543357499991544,31.70328822999145,31.706318699987605,31.747115229949124,31.75025529996492,32.475883329979844,a,1,31.75025529996492,32.475883329979844,32.479451399995014,33.896258929971374,0.7148218000074849,714.8218000074849,,,,,,,,,,,,,,,,,,,,,,,,,,,,,,,,,,EMOCONPILOT004,2020_Dec_15_1203,EmoCon_Pilot_120Hz,2020.2.4,119.99990405522507,
2,0,2,0,,,,,,,,,,,,,,,,,,,,,,2,3.0,f,1113_y_f_n_a.jpg,neutral,s,3,33.899230299983174,34.19626272998867,34.40338959998917,34.430002329981654,34.43218689999776,34.472184629988625,34.47518599999603,36.03178282995359,s,1,34.47518599999603,36.03178282995359,36.03463029995328,37.72123702999088,1.5418599999975413,1541.8599999975413,,,,,,,,,,,,,,,,,,,,,,,,,,,,,,,,,,EMOCONPILOT004,2020_Dec_15_1203,EmoCon_Pilot_120Hz,2020.2.4,119.99990405522507,
3,0,3,0,,,,,,,,,,,,,,,,,,,,,,3,2.0,f,1112_m_f_h_a.jpg,happy,d,17,37.72250329999952,38.02123102999176,38.22345920000225,38.38808382994612,38.39075939997565,38.43000822996837,38.43285990000004,39.11482923000003,d,1,38.43285990000004,39.11482923000003,39.1196207999601,40.73810512996861,0.664434699981939,664.434699981939,,,,,,,,,,,,,,,,,,,,,,,,,,,,,,,,,,EMOCONPILOT004,2020_Dec_15_1203,EmoCon_Pilot_120Hz,2020.2.4,119.99990405522507,
4,0,4,0,,,,,,,,,,,,,,,,,,,,,,4,2.0,f,1112_m_f_n_a.jpg,neutral,s,17,40.73958059999859,41.03808182995417,41.252920099999756,41.41405342996004,41.41643459995976,41.456607529945906,41.459597899985965,42.22156542998855,s,1,41.459597899985965,42.22156542998855,42.22268789994996,43.86315632995102,0.7493055000086315,749.3055000086315,,,,,,,,,,,,,,,,,,,,,,,,,,,,,,,,,,EMOCONPILOT004,2020_Dec_15_1203,EmoCon_Pilot_120Hz,2020.2.4,119.99990405522507,
,,,,0,0,0,0,0,0,0,0,,,,,,,,,,,,,,,,,,,,,,,,,,,,,,,,,,,,,43.90188489999855,46.89655062998063,46.89795519999461,50.30239092994598,a,3.391107900009956,3391.107900009956,46.89795519999461,50.30239092994598,0,8.0,f,019_m_f_s_a.jpg,sad,a,3,1,50.308339899987914,50.596448029967725,50.858537399966735,50.885438330000035,50.88693419995252,50.92391512996401,50.92843410000205,52.45252852996928,s,0,1.5128684000228532,1512.8684000228532,50.92843410000205,52.45252852996928,52.46503500000108,53.47140712994733,EMOCONPILOT004,2020_Dec_15_1203,EmoCon_Pilot_120Hz,2020.2.4,119.99990405522507,
,,,,0,0,0,0,1,0,1,0,,,,,,,,,,,,,,,,,,,,,,,,,,,,,,,,,,,,,,,,,,,,,,1,6.0,m,033_o_m_n_a.jpg,neutral,s,3,1,53.473215199948754,53.7715918299451,53.977896699972916,54.00384782999172,54.004482099961024,54.03951532998472,54.0406207999913,55.59308143000235,None,0,,,54.0406207999913,55.59308143000235,55.598006599990185,56.888325629982866,EMOCONPILOT004,2020_Dec_15_1203,EmoCon_Pilot_120Hz,2020.2.4,119.99990405522507,
,,,,0,0,0,0,2,0,2,0,,,,,,,,,,,,,,,,,,,,,,,,,,,,,,,,,,,,,,,,,,,,,,2,2.0,m,008_y_m_s_a.jpg,sad,a,17,1,56.893695699982345,57.18842002999154,57.43818709999323,57.607618129980985,57.61203319998458,57.65317372994614,57.65804809995461,58.38329472997575,a,1,0.711024499963969,711.024499963969,57.65804809995461,58.38329472997575,58.389913899998646,59.563412929995685,EMOCONPILOT004,2020_Dec_15_1203,EmoCon_Pilot_120Hz,2020.2.4,119.99990405522507,
,,,,0,0,0,0,3,0,3,0,,,,,,,,,,,,,,,,,,,,,,,,,,,,,,,,,,,,,,,,,,,,,,3,11.0,f,030_o_f_h_a.jpg,happy,d,3,1,59.56944489997113,59.863408929953586,60.08468669996364,60.11187172994833,60.115312799985986,60.151598929945614,60.15459950000513,61.123990429966945,d,1,0.9584476000163704,958.4476000163704,60.15459950000513,61.123990429966945,61.131555299973115,62.48842822998413,EMOCONPILOT004,2020_Dec_15_1203,EmoCon_Pilot_120Hz,2020.2.4,119.99990405522507,
,,,,0,0,0,0,4,0,4,0,,,,,,,,,,,,,,,,,,,,,,,,,,,,,,,,,,,,,,,,,,,,,,4,11.0,f,030_o_f_s_a.jpg,sad,a,3,1,62.49322489998303,62.7884393299988,63.007597899995744,63.033371029997944,63.03368989995215,63.0686694299744,63.06871789996512,64.01353382999659,s,0,0.9324923999956809,932.4923999956809,63.06871789996512,64.01353382999659,64.02058849995956,65.8052482299914,EMOCONPILOT004,2020_Dec_15_1203,EmoCon_Pilot_120Hz,2020.2.4,119.99990405522507,
,,,,0,0,0,0,5,0,5,0,,,,,,,,,,,,,,,,,,,,,,,,,,,,,,,,,,,,,,,,,,,,,,5,11.0,f,030_o_f_s_a.jpg,sad,a,3,1,65.80922019999707,66.10515562997315,66.30416269996203,66.32986152998055,66.33034739998402,66.36476053000078,66.36629269999685,68.07932072999537,None,0,,,66.36629269999685,68.07932072999537,68.08672500000102,69.58010472996975,EMOCONPILOT004,2020_Dec_15_1203,EmoCon_Pilot_120Hz,2020.2.4,119.99990405522507,
,,,,0,0,0,0,6,0,6,0,,,,,,,,,,,,,,,,,,,,,,,,,,,,,,,,,,,,,,,,,,,,,,6,5.0,m,027_o_m_n_a.jpg,neutral,s,17,1,69.58006959996419,69.88034012994612,70.11030800000299,70.28011432999628,70.28479579999112,70.32590482994564,70.33129469997948,71.70458602997823,a,0,1.3577244999469258,1357.7244999469258,70.33129469997948,71.70458602997823,71.71120039996458,73.213700529997,EMOCONPILOT004,2020_Dec_15_1203,EmoCon_Pilot_120Hz,2020.2.4,119.99990405522507,
,,,,0,0,0,0,7,0,7,0,,,,,,,,,,,,,,,,,,,,,,,,,,,,,,,,,,,,,,,,,,,,,,7,8.0,f,019_m_f_n_a.jpg,neutral,s,3,1,73.21923119999701,73.51376642996328,73.7738824999542,73.80007792997057,73.80082589999074,73.83656572998152,73.83597539999755,75.07291272997972,s,1,1.229079799959436,1229.079799959436,73.83597539999755,75.07291272997972,75.07864209997933,76.64705822994583,EMOCONPILOT004,2020_Dec_15_1203,EmoCon_Pilot_120Hz,2020.2.4,119.99990405522507,
,,,,0,0,0,0,8,0,8,0,,,,,,,,,,,,,,,,,,,,,,,,,,,,,,,,,,,,,,,,,,,,,,8,5.0,m,027_o_m_h_a.jpg,happy,d,17,1,76.65184089995455,76.94720002996618,77.17016909999074,77.32946852995664,77.33431479998399,77.37508652998949,77.38008109998191,77.92828782996511,d,1,0.5333255000296049,533.3255000296049,77.38008109998191,77.92828782996511,77.93997269996908,79.37222112999879,EMOCONPILOT004,2020_Dec_15_1203,EmoCon_Pilot_120Hz,2020.2.4,119.99990405522507,
,,,,0,0,0,0,9,0,9,0,,,,,,,,,,,,,,,,,,,,,,,,,,,,,,,,,,,,,,,,,,,,,,9,8.0,f,019_m_f_n_a.jpg,neutral,s,17,1,79.3777693999582,79.67226133000221,79.91072230000282,80.0692960299726,80.07428509998135,80.11508072999422,80.12023509998107,80.53603482996695,s,1,0.40083890000823885,400.83890000823885,80.12023509998107,80.53603482996695,80.5465577999712,81.95554982998291,EMOCONPILOT004,2020_Dec_15_1203,EmoCon_Pilot_120Hz,2020.2.4,119.99990405522507,
,,,,0,0,0,0,10,0,10,0,,,,,,,,,,,,,,,,,,,,,,,,,,,,,,,,,,,,,,,,,,,,,,10,11.0,f,030_o_f_h_a.jpg,happy,d,3,1,81.96090579999145,82.25565202999277,82.45230730000185,82.4788572299818,82.48246689996449,82.52171202998724,82.52667669998482,83.1080025299976,s,0,0.5706290999660268,570.6290999660268,82.52667669998482,83.1080025299976,83.11960479995469,85.00563572998507,EMOCONPILOT004,2020_Dec_15_1203,EmoCon_Pilot_120Hz,2020.2.4,119.99990405522507,
,,,,0,0,0,0,11,0,11,0,,,,,,,,,,,,,,,,,,,,,,,,,,,,,,,,,,,,,,,,,,,,,,11,3.0,m,013_y_m_s_a.jpg,sad,a,3,1,85.01137839996954,85.30558182997046,85.4124676999636,85.43394132999819,85.43470309994882,85.47344682999537,85.47476109996205,86.88994942994904,a,1,1.406390400021337,1406.390400021337,85.47476109996205,86.88994942994904,86.89817329996731,88.1306139299937,EMOCONPILOT004,2020_Dec_15_1203,EmoCon_Pilot_120Hz,2020.2.4,119.99990405522507,
,,,,0,0,0,0,12,0,12,0,,,,,,,,,,,,,,,,,,,,,,,,,,,,,,,,,,,,,,,,,,,,,,12,12.0,f,040_y_f_n_a.jpg,neutral,s,17,1,88.13451139995595,88.43062612995854,88.66833389998646,88.82765222997986,88.83265439997194,88.8736896299466,88.87856089998968,89.46442892995546,s,1,0.5703991000191309,570.3991000191309,88.87856089998968,89.46442892995546,89.46812459995272,90.51413302996079,EMOCONPILOT004,2020_Dec_15_1203,EmoCon_Pilot_120Hz,2020.2.4,119.99990405522507,
,,,,0,0,0,0,13,0,13,0,,,,,,,,,,,,,,,,,,,,,,,,,,,,,,,,,,,,,,,,,,,,,,13,12.0,f,040_y_f_h_a.jpg,happy,d,3,1,90.51987349998672,90.81406132998526,90.85334629996214,90.87580992996809,90.87674409995088,90.91524822997744,90.9166965999757,91.66059832996106,d,1,0.7324785999953747,732.4785999953747,90.9166965999757,91.66059832996106,91.67235289997188,93.53076612995355,EMOCONPILOT004,2020_Dec_15_1203,EmoCon_Pilot_120Hz,2020.2.4,119.99990405522507,
,,,,0,0,0,0,14,0,14,0,,,,,,,,,,,,,,,,,,,,,,,,,,,,,,,,,,,,,,,,,,,,,,14,7.0,f,012_o_f_h_a.jpg,happy,d,3,1,93.53473059996031,93.83075982995214,93.86921739997342,93.89086252997512,93.89162379998015,93.9318306299916,93.93160009995336,94.57461022998322,d,1,0.6297944000107236,629.7944000107236,93.93160009995336,94.57461022998322,94.58242639998207,95.99751772998715,EMOCONPILOT004,2020_Dec_15_1203,EmoCon_Pilot_120Hz,2020.2.4,119.99990405522507,
,,,,0,0,0,0,15,0,15,0,,,,,,,,,,,,,,,,,,,,,,,,,,,,,,,,,,,,,,,,,,,,,,15,9.0,f,021_o_f_n_a.jpg,neutral,s,17,1,96.00137640000321,96.29748612996772,96.5233960999758,96.68395072995335,96.68837789999088,96.72944902994786,96.73444390000077,97.13098892999696,s,1,0.3865732999984175,386.5732999984175,96.73444390000077,97.13098892999696,97.13845849997597,98.63086182996048,EMOCONPILOT004,2020_Dec_15_1203,EmoCon_Pilot_120Hz,2020.2.4,119.99990405522507,
,,,,0,0,0,0,16,0,16,0,,,,,,,,,,,,,,,,,,,,,,,,,,,,,,,,,,,,,,,,,,,,,,16,10.0,f,028_y_f_s_a.jpg,sad,a,17,1,98.63562049996108,98.93096912995097,98.96518089994788,99.0991595299507,99.10371939995093,99.14464022998581,99.14990469999611,99.52459622994647,s,0,0.36322559998370707,363.22559998370707,99.14990469999611,99.52459622994647,99.53497039998183,101.07260223000193,EMOCONPILOT004,2020_Dec_15_1203,EmoCon_Pilot_120Hz,2020.2.4,119.99990405522507,
,,,,0,0,0,0,17,0,17,0,,,,,,,,,,,,,,,,,,,,,,,,,,,,,,,,,,,,,,,,,,,,,,17,10.0,f,028_y_f_h_a.jpg,happy,d,3,1,101.07812409999315,101.37267732998006,101.40820239996538,101.43070552998105,101.43128689995501,101.46665432996232,101.46695919998456,102.19601902999565,d,1,0.7181138999876566,718.1138999876566,101.46695919998456,102.19601902999565,102.19933759997366,103.64758782996213,EMOCONPILOT004,2020_Dec_15_1203,EmoCon_Pilot_120Hz,2020.2.4,119.99990405522507,
,,,,0,0,0,0,18,0,18,0,,,,,,,,,,,,,,,,,,,,,,,,,,,,,,,,,,,,,,,,,,,,,,18,9.0,f,021_o_f_h_a.jpg,happy,d,17,1,103.65166309999768,103.94763692997512,104.17354379995959,104.3439829299983,104.34773169999244,104.38869872997165,104.39386039995588,104.88192532996763,d,1,0.47143179998965934,471.43179998965934,104.39386039995588,104.88192532996763,104.89494299999205,106.01431032997206,EMOCONPILOT004,2020_Dec_15_1203,EmoCon_Pilot_120Hz,2020.2.4,119.99990405522507,
,,,,0,0,0,0,19,0,19,0,,,,,,,,,,,,,,,,,,,,,,,,,,,,,,,,,,,,,,,,,,,,,,19,6.0,m,033_o_m_h_a.jpg,happy,d,3,1,106.01835849997588,106.31432132998597,106.35000939999009,106.37221692996681,106.37299049994908,106.40784962998586,106.40736979997018,107.22654632996418,d,1,0.8096998000401072,809.6998000401072,106.40736979997018,107.22654632996418,107.23401189997094,108.57276702997623,EMOCONPILOT004,2020_Dec_15_1203,EmoCon_Pilot_120Hz,2020.2.4,119.99990405522507,
,,,,0,0,0,0,20,0,20,0,,,,,,,,,,,,,,,,,,,,,,,,,,,,,,,,,,,,,,,,,,,,,,20,1.0,m,004_o_m_h_a.jpg,happy,d,17,1,108.57824020000407,108.8728314299893,109.10372889996506,109.2655389299558,109.27044309995836,109.31110493000014,109.31636279996019,109.64206992997205,d,1,0.3167838999652304,316.7838999652304,109.31636279996019,109.64206992997205,109.65361609996762,111.41453002998023,EMOCONPILOT004,2020_Dec_15_1203,EmoCon_Pilot_120Hz,2020.2.4,119.99990405522507,
,,,,0,0,0,0,21,0,21,0,,,,,,,,,,,,,,,,,,,,,,,,,,,,,,,,,,,,,,,,,,,,,,21,2.0,m,008_y_m_s_a.jpg,sad,a,3,1,111.42061440000543,111.7144733300025,111.955882499984,111.98100352996843,111.98157929995796,112.01640832999837,112.01636839995626,112.88704862997983,a,1,0.8567617000080645,856.7617000080645,112.01636839995626,112.88704862997983,112.8936326999683,113.90615102997398,EMOCONPILOT004,2020_Dec_15_1203,EmoCon_Pilot_120Hz,2020.2.4,119.99990405522507,
,,,,0,0,0,0,22,0,22,0,,,,,,,,,,,,,,,,,,,,,,,,,,,,,,,,,,,,,,,,,,,,,,22,4.0,m,016_y_m_s_a.jpg,sad,a,17,1,113.91024409997044,114.20616972998832,114.24258769996231,114.37448892997926,114.3780231999699,114.41629672998678,114.41920849995222,115.07953322998364,a,1,0.645959599991329,645.959599991329,114.41920849995222,115.07953322998364,115.0885487999767,117.03126002998906,EMOCONPILOT004,2020_Dec_15_1203,EmoCon_Pilot_120Hz,2020.2.4,119.99990405522507,
,,,,0,0,0,0,23,0,23,0,,,,,,,,,,,,,,,,,,,,,,,,,,,,,,,,,,,,,,,,,,,,,,23,8.0,f,019_m_f_h_a.jpg,happy,d,17,1,117.03538309998112,117.3311568299483,117.36839249997865,117.4995579299808,117.50296329997946,117.54298982995678,117.54835629998706,118.3910869299958,d,1,0.8285025000222959,828.5025000222959,117.54835629998706,118.3910869299958,118.39348749996861,119.89796812994754,EMOCONPILOT004,2020_Dec_15_1203,EmoCon_Pilot_120Hz,2020.2.4,119.99990405522507,
,,,,0,0,0,0,24,0,24,0,,,,,,,,,,,,,,,,,,,,,,,,,,,,,,,,,,,,,,,,,,,,,,24,8.0,f,019_m_f_h_a.jpg,happy,d,17,1,119.90230159997009,120.19798112997668,120.219099799986,120.34958802995388,120.35309299995424,120.39135232997941,120.39414190000389,120.82341402995516,d,1,0.41505559999495745,415.05559999495745,120.39414190000389,120.82341402995516,120.83175779995508,122.61468212998588,EMOCONPILOT004,2020_Dec_15_1203,EmoCon_Pilot_120Hz,2020.2.4,119.99990405522507,
,,,,0,0,0,0,25,0,25,0,,,,,,,,,,,,,,,,,,,,,,,,,,,,,,,,,,,,,,,,,,,,,,25,4.0,m,016_y_m_n_a.jpg,neutral,s,17,1,122.61999109998578,122.91455832996289,123.15875999996206,123.31754072999465,123.32209659996442,123.3626707299787,123.36766409996198,123.9800494299794,s,1,0.6013753999723122,601.3753999723122,123.36766409996198,123.9800494299794,123.98340379999718,125.78152913000085,EMOCONPILOT004,2020_Dec_15_1203,EmoCon_Pilot_120Hz,2020.2.4,119.99990405522507,
,,,,0,0,0,0,26,0,26,0,,,,,,,,,,,,,,,,,,,,,,,,,,,,,,,,,,,,,,,,,,,,,,26,4.0,m,016_y_m_h_a.jpg,happy,d,17,1,125.7857313999557,126.08140112994587,126.11485279997578,126.24974812997388,126.25241889996687,126.29103012999403,126.29447009996511,126.77634962996817,d,1,0.4746550000272691,474.6550000272691,126.29447009996511,126.77634962996817,126.7847106999834,128.76482372998143,EMOCONPILOT004,2020_Dec_15_1203,EmoCon_Pilot_120Hz,2020.2.4,119.99990405522507,
,,,,0,0,0,0,27,0,27,0,,,,,,,,,,,,,,,,,,,,,,,,,,,,,,,,,,,,,,,,,,,,,,27,8.0,f,019_m_f_h_a.jpg,happy,d,17,1,128.76911019999534,129.06490612995694,129.07832069997676,129.21647212997195,129.21999839995988,129.25772522994666,129.26079339999706,129.631530629989,d,1,0.35654809995321557,356.54809995321557,129.26079339999706,129.631530629989,129.6399843999534,131.5232207299501,EMOCONPILOT004,2020_Dec_15_1203,EmoCon_Pilot_120Hz,2020.2.4,119.99990405522507,
,,,,0,0,0,0,28,0,28,0,,,,,,,,,,,,,,,,,,,,,,,,,,,,,,,,,,,,,,,,,,,,,,28,8.0,f,019_m_f_s_a.jpg,sad,a,17,1,131.5285137000028,131.82321092998026,132.0769342999556,132.23887912998325,132.24343049997697,132.28432342997402,132.28956059995107,132.9599215299764,a,1,0.6636024999897927,663.6024999897927,132.28956059995107,132.9599215299764,132.9717364999815,134.00672112998436,EMOCONPILOT004,2020_Dec_15_1203,EmoCon_Pilot_120Hz,2020.2.4,119.99990405522507,
,,,,0,0,0,0,29,0,29,0,,,,,,,,,,,,,,,,,,,,,,,,,,,,,,,,,,,,,,,,,,,,,,29,10.0,f,028_y_f_n_a.jpg,neutral,s,3,1,134.01221359998453,134.30655732994782,134.51916529994924,134.54485532995895,134.54522729996825,134.58291433000122,134.58412529999623,135.1941167299461,s,1,0.6010353000019677,601.0353000019677,134.58412529999623,135.1941167299461,135.20143279997865,136.79832922998466,EMOCONPILOT004,2020_Dec_15_1203,EmoCon_Pilot_120Hz,2020.2.4,119.99990405522507,
,,,,0,0,0,0,30,0,30,0,,,,,,,,,,,,,,,,,,,,,,,,,,,,,,,,,,,,,,,,,,,,,,30,12.0,f,040_y_f_n_a.jpg,neutral,s,3,1,136.80351369996788,137.09831702999654,137.31866679998348,137.3445816299587,137.34546309994766,137.38296872999635,137.3840318999719,138.10590922994888,s,1,0.7130561999510974,713.0561999510974,137.3840318999719,138.10590922994888,138.11319049994927,139.5484186299669,EMOCONPILOT004,2020_Dec_15_1203,EmoCon_Pilot_120Hz,2020.2.4,119.99990405522507,
,,,,0,0,0,0,31,0,31,0,,,,,,,,,,,,,,,,,,,,,,,,,,,,,,,,,,,,,,,,,,,,,,31,5.0,m,027_o_m_n_a.jpg,neutral,s,17,1,139.55379139998695,139.84842132997582,140.0514166999492,140.21059902995475,140.2140271999524,140.2510158299643,140.25425229995744,141.1607286299637,a,0,0.8909551999531686,890.9551999531686,140.25425229995744,141.1607286299637,141.17111989995465,143.03180342999403,EMOCONPILOT004,2020_Dec_15_1203,EmoCon_Pilot_120Hz,2020.2.4,119.99990405522507,
,,,,0,0,0,0,32,0,32,0,,,,,,,,,,,,,,,,,,,,,,,,,,,,,,,,,,,,,,,,,,,,,,32,8.0,f,019_m_f_n_a.jpg,neutral,s,17,1,143.03499319998082,143.3318021299725,143.5765257999883,143.7369121299649,143.74168469995493,143.7826816299872,143.787654499989,144.52868772996007,s,1,0.7334659000043757,733.4659000043757,143.787654499989,144.52868772996007,144.5402375999838,145.61521052999305,EMOCONPILOT004,2020_Dec_15_1203,EmoCon_Pilot_120Hz,2020.2.4,119.99990405522507,
,,,,0,0,0,0,33,0,33,0,,,,,,,,,,,,,,,,,,,,,,,,,,,,,,,,,,,,,,,,,,,,,,33,4.0,m,016_y_m_n_a.jpg,neutral,s,3,1,145.62134099996183,145.91521682997117,146.15804799995385,146.18366643000044,146.1837631999515,146.21760172995855,146.21749159996398,147.854225629993,None,0,,,146.21749159996398,147.854225629993,147.8597252999898,149.815292029985,EMOCONPILOT004,2020_Dec_15_1203,EmoCon_Pilot_120Hz,2020.2.4,119.99990405522507,
,,,,0,0,0,0,34,0,34,0,,,,,,,,,,,,,,,,,,,,,,,,,,,,,,,,,,,,,,,,,,,,,,34,11.0,f,030_o_f_n_a.jpg,neutral,s,17,1,149.82073489995673,150.11534902999992,150.34178189997328,150.50808082997682,150.51277569995727,150.5538974299503,150.55907659995137,151.44118012999533,a,0,0.8661526999785565,866.1526999785565,150.55907659995137,151.44118012999533,151.44793359999312,153.09865742996917,EMOCONPILOT004,2020_Dec_15_1203,EmoCon_Pilot_120Hz,2020.2.4,119.99990405522507,
,,,,0,0,0,0,35,0,35,0,,,,,,,,,,,,,,,,,,,,,,,,,,,,,,,,,,,,,,,,,,,,,,35,9.0,f,021_o_f_h_a.jpg,happy,d,17,1,153.1028010000009,153.39866612996556,153.60787889995845,153.7683197300008,153.7715038000024,153.80840302997385,153.81141159997787,154.33503262994927,d,1,0.5096557000069879,509.6557000069879,153.81141159997787,154.33503262994927,154.34606809995603,156.1570304299763,EMOCONPILOT004,2020_Dec_15_1203,EmoCon_Pilot_120Hz,2020.2.4,119.99990405522507,
,,,,0,0,0,0,36,0,36,0,,,,,,,,,,,,,,,,,,,,,,,,,,,,,,,,,,,,,,,,,,,,,,36,11.0,f,030_o_f_s_a.jpg,sad,a,3,1,156.16114229999948,156.45704252999857,156.65996079996694,156.68677242996054,156.68732909997925,156.725012029981,156.7261391999782,157.97510942996595,s,0,1.2349550000508316,1234.9550000508316,156.7261391999782,157.97510942996595,157.981813099992,159.15723952999687,EMOCONPILOT004,2020_Dec_15_1203,EmoCon_Pilot_120Hz,2020.2.4,119.99990405522507,
,,,,0,0,0,0,37,0,37,0,,,,,,,,,,,,,,,,,,,,,,,,,,,,,,,,,,,,,,,,,,,,,,37,12.0,f,040_y_f_n_a.jpg,neutral,s,3,1,159.16282539995154,159.45725342997466,159.67827859998215,159.70412412995356,159.70444199995836,159.7417741299665,159.74263839999912,160.20862632995122,s,1,0.4588482000399381,458.8482000399381,159.74263839999912,160.20862632995122,160.2157104999642,161.89064492994802,EMOCONPILOT004,2020_Dec_15_1203,EmoCon_Pilot_120Hz,2020.2.4,119.99990405522507,
,,,,0,0,0,0,38,0,38,0,,,,,,,,,,,,,,,,,,,,,,,,,,,,,,,,,,,,,,,,,,,,,,38,9.0,f,021_o_f_s_a.jpg,sad,a,17,1,161.89597640000284,162.19035442999447,162.20753889996558,162.34214162994758,162.3453693999909,162.38351092999218,162.3867714999942,163.56640702997683,s,0,1.1665763999917544,1166.5763999917544,162.3867714999942,163.56640702997683,163.5744815999642,164.97387732995557,EMOCONPILOT004,2020_Dec_15_1203,EmoCon_Pilot_120Hz,2020.2.4,119.99990405522507,
,,,,0,0,0,0,39,0,39,0,,,,,,,,,,,,,,,,,,,,,,,,,,,,,,,,,,,,,,,,,,,,,,39,4.0,m,016_y_m_n_a.jpg,neutral,s,17,1,164.97656049998477,165.27386672997963,165.51492679998046,165.67149352997657,165.67665869998746,165.71784252998768,165.72288939997088,166.08936242997297,s,1,0.3586627999902703,358.6627999902703,165.72288939997088,166.08936242997297,166.09989620000124,167.723953829956,EMOCONPILOT004,2020_Dec_15_1203,EmoCon_Pilot_120Hz,2020.2.4,119.99990405522507,
,,,,0,0,0,0,40,0,40,0,,,,,,,,,,,,,,,,,,,,,,,,,,,,,,,,,,,,,,,,,,,,,,40,9.0,f,021_o_f_s_a.jpg,sad,a,3,1,167.72979899996426,168.02400152995833,168.0473662999575,168.0699188300001,168.0707918999833,168.10841912996838,168.10877359996084,169.70830692996387,None,0,,,168.10877359996084,169.70830692996387,169.71376389998477,171.49914102994953,EMOCONPILOT004,2020_Dec_15_1203,EmoCon_Pilot_120Hz,2020.2.4,119.99990405522507,
,,,,0,0,0,0,41,0,41,0,,,,,,,,,,,,,,,,,,,,,,,,,,,,,,,,,,,,,,,,,,,,,,41,11.0,f,030_o_f_h_a.jpg,happy,d,17,1,171.5033328999998,171.79903772996622,172.0008141999715,172.16428462997428,172.16887309995946,172.20931522995815,172.21342039998854,173.23231312998686,d,1,1.0037654000334442,1003.7654000334442,172.21342039998854,173.23231312998686,173.24236459995154,175.09083542995504,EMOCONPILOT004,2020_Dec_15_1203,EmoCon_Pilot_120Hz,2020.2.4,119.99990405522507,
,,,,0,0,0,0,42,0,42,0,,,,,,,,,,,,,,,,,,,,,,,,,,,,,,,,,,,,,,,,,,,,,,42,4.0,m,016_y_m_h_a.jpg,happy,d,17,1,175.09530119999545,175.3908307299658,175.41510609997204,175.550812629977,175.55457379994914,175.59213162998785,175.59502589999465,175.91331632999353,d,1,0.31040840002242476,310.40840002242476,175.59502589999465,175.91331632999353,175.92359099996975,177.43247112997923,EMOCONPILOT004,2020_Dec_15_1203,EmoCon_Pilot_120Hz,2020.2.4,119.99990405522507,
,,,,0,0,0,0,43,0,43,0,,,,,,,,,,,,,,,,,,,,,,,,,,,,,,,,,,,,,,,,,,,,,,43,1.0,m,004_o_m_s_a.jpg,sad,a,17,1,177.43548429996008,177.73253122995956,177.7658456999925,177.90085762994713,177.90438229998108,177.94205432995804,177.9454274000018,178.587663029955,a,1,0.6315827000071295,631.5827000071295,177.9454274000018,178.587663029955,178.59320609999122,180.17431372997234,EMOCONPILOT004,2020_Dec_15_1203,EmoCon_Pilot_120Hz,2020.2.4,119.99990405522507,
,,,,0,0,0,0,44,0,44,0,,,,,,,,,,,,,,,,,,,,,,,,,,,,,,,,,,,,,,,,,,,,,,44,4.0,m,016_y_m_h_a.jpg,happy,d,17,1,180.1796217999654,180.4743422300031,180.49251259997254,180.62588252999703,180.62951289996272,180.6672247299517,180.6721217999584,181.73822172998334,d,1,1.0490347999730147,1049.0347999730147,180.6721217999584,181.73822172998334,181.7486457999912,182.7742797299812,EMOCONPILOT004,2020_Dec_15_1203,EmoCon_Pilot_120Hz,2020.2.4,119.99990405522507,
,,,,0,0,0,0,45,0,45,0,,,,,,,,,,,,,,,,,,,,,,,,,,,,,,,,,,,,,,,,,,,,,,45,7.0,f,012_o_f_s_a.jpg,sad,a,17,1,182.7783408999676,183.07427802995662,183.11057379998965,183.24267642996855,183.24713039997732,183.28783122996683,183.2928774000029,183.88699783000047,a,1,0.5801857999758795,580.1857999758795,183.2928774000029,183.88699783000047,183.89561829995364,185.50769192998413,EMOCONPILOT004,2020_Dec_15_1203,EmoCon_Pilot_120Hz,2020.2.4,119.99990405522507,
,,,,0,0,0,0,46,0,46,0,,,,,,,,,,,,,,,,,,,,,,,,,,,,,,,,,,,,,,,,,,,,,,46,8.0,f,019_m_f_n_a.jpg,neutral,s,17,1,185.51378109998768,185.80769612994627,186.06131459999597,186.2280621299811,186.2316695000045,186.271697629994,186.27680930000497,186.7349704299646,s,1,0.44464719999814406,444.64719999814406,186.27680930000497,186.7349704299646,186.74597180000274,187.93274792999145,EMOCONPILOT004,2020_Dec_15_1203,EmoCon_Pilot_120Hz,2020.2.4,119.99990405522507,
,,,,0,0,0,0,47,0,47,0,,,,,,,,,,,,,,,,,,,,,,,,,,,,,,,,,,,,,,,,,,,,,,47,2.0,m,008_y_m_h_a.jpg,happy,d,3,1,187.93826029996853,188.23248462995397,188.2528557999758,188.2751004300022,188.2753049999592,188.31144432996516,188.3116575999884,188.85609612997504,d,1,0.5373868000460789,537.3868000460789,188.3116575999884,188.85609612997504,188.86236659996212,190.19955062999506,EMOCONPILOT004,2020_Dec_15_1203,EmoCon_Pilot_120Hz,2020.2.4,119.99990405522507,
,,,,0,0,0,0,48,0,48,0,,,,,,,,,,,,,,,,,,,,,,,,,,,,,,,,,,,,,,,,,,,,,,48,12.0,f,040_y_f_n_a.jpg,neutral,s,3,1,190.2051166999736,190.49946962994872,190.71563549997518,190.7408577299735,190.74131489999127,190.77599602995323,190.77566559996922,191.30738512996467,s,1,0.5215213000192307,521.5213000192307,190.77566559996922,191.30738512996467,191.31467239995254,193.22443902998347,EMOCONPILOT004,2020_Dec_15_1203,EmoCon_Pilot_120Hz,2020.2.4,119.99990405522507,
,,,,0,0,0,0,49,0,49,0,,,,,,,,,,,,,,,,,,,,,,,,,,,,,,,,,,,,,,,,,,,,,,49,11.0,f,030_o_f_n_a.jpg,neutral,s,17,1,193.2243808999774,193.52452792995027,193.72262709995266,193.88264942995156,193.88736929994775,193.92849552997504,193.93389069999103,194.71484292996465,a,0,0.771228700003121,771.228700003121,193.93389069999103,194.71484292996465,194.72464289999334,196.27454342995188,EMOCONPILOT004,2020_Dec_15_1203,EmoCon_Pilot_120Hz,2020.2.4,119.99990405522507,
,,,,0,0,0,0,50,0,50,0,,,,,,,,,,,,,,,,,,,,,,,,,,,,,,,,,,,,,,,,,,,,,,50,8.0,f,019_m_f_h_a.jpg,happy,d,17,1,196.27853719994891,196.5745541299635,196.5979146999889,196.73455172997782,196.7388576999656,196.7797665299673,196.78487619996304,197.4326906299626,d,1,0.6402767999679781,640.2767999679781,196.78487619996304,197.4326906299626,197.44445269997232,199.2412476299738,EMOCONPILOT004,2020_Dec_15_1203,EmoCon_Pilot_120Hz,2020.2.4,119.99990405522507,
,,,,0,0,0,0,51,0,51,0,,,,,,,,,,,,,,,,,,,,,,,,,,,,,,,,,,,,,,,,,,,,,,51,8.0,f,019_m_f_n_a.jpg,neutral,s,17,1,199.2442202999955,199.54127892996766,199.787354399974,199.94818992999498,199.95277479995275,199.99387262999662,199.99897989997407,200.39651742996065,s,1,0.3863079000147991,386.3079000147991,199.99897989997407,200.39651742996065,200.4083339999779,201.86644662997568,EMOCONPILOT004,2020_Dec_15_1203,EmoCon_Pilot_120Hz,2020.2.4,119.99990405522507,
,,,,0,0,0,0,52,0,52,0,,,,,,,,,,,,,,,,,,,,,,,,,,,,,,,,,,,,,,,,,,,,,,52,12.0,f,040_y_f_n_a.jpg,neutral,s,3,1,201.87230079999426,202.16636482998146,202.38479919999372,202.41149722999543,202.41309909999836,202.4508581299975,202.45397139998386,203.16993932995828,s,1,0.707133200019598,707.133200019598,202.45397139998386,203.16993932995828,203.17850179999368,205.1579910299566,EMOCONPILOT004,2020_Dec_15_1203,EmoCon_Pilot_120Hz,2020.2.4,119.99990405522507,
,,,,0,0,0,0,53,0,53,0,,,,,,,,,,,,,,,,,,,,,,,,,,,,,,,,,,,,,,,,,,,,,,53,9.0,f,021_o_f_h_a.jpg,happy,d,17,1,205.1607396999607,205.45800072996062,205.66121429996565,205.83121342997183,205.8359428999829,205.87708582996274,205.8821167999995,206.19881062994827,d,1,0.3030606000102125,303.0606000102125,205.8821167999995,206.19881062994827,206.21070120000513,207.45808732997975,EMOCONPILOT004,2020_Dec_15_1203,EmoCon_Pilot_120Hz,2020.2.4,119.99990405522507,
,,,,0,0,0,0,54,0,54,0,,,,,,,,,,,,,,,,,,,,,,,,,,,,,,,,,,,,,,,,,,,,,,54,2.0,m,008_y_m_n_a.jpg,neutral,s,3,1,207.46099429996684,207.75822232994832,208.01198179996572,208.03824232995393,208.03868749999674,208.07603472994523,208.07734409999102,209.37823472997988,s,1,1.2918535000062548,1291.8535000062548,208.07734409999102,209.37823472997988,209.3868814999587,211.3083206299867,EMOCONPILOT004,2020_Dec_15_1203,EmoCon_Pilot_120Hz,2020.2.4,119.99990405522507,
,,,,0,0,0,0,55,0,55,0,,,,,,,,,,,,,,,,,,,,,,,,,,,,,,,,,,,,,,,,,,,,,,55,10.0,f,028_y_f_n_a.jpg,neutral,s,17,1,211.31354929995723,211.6082936300023,211.80698999995366,211.96160442998516,211.9645562999649,212.0020797299745,212.004996499978,212.43601302999886,s,1,0.42028570000547916,420.28570000547916,212.004996499978,212.43601302999886,212.44563699996797,214.2250604300003,EMOCONPILOT004,2020_Dec_15_1203,EmoCon_Pilot_120Hz,2020.2.4,119.99990405522507,
,,,,0,0,0,0,56,0,56,0,,,,,,,,,,,,,,,,,,,,,,,,,,,,,,,,,,,,,,,,,,,,,,56,12.0,f,040_y_f_h_a.jpg,happy,d,17,1,214.23047439998481,214.52501822995836,214.54243259999203,214.67656902997405,214.68005999998422,214.71775672997464,214.72115389996907,215.1613630299631,d,1,0.4241800000309013,424.1800000309013,214.72115389996907,215.1613630299631,215.16923189995578,216.7000532299804,EMOCONPILOT004,2020_Dec_15_1203,EmoCon_Pilot_120Hz,2020.2.4,119.99990405522507,
,,,,0,0,0,0,57,0,57,0,,,,,,,,,,,,,,,,,,,,,,,,,,,,,,,,,,,,,,,,,,,,,,57,2.0,m,008_y_m_n_a.jpg,neutral,s,17,1,216.7047135999892,217.00002683000056,217.2391613999498,217.38932742998585,217.39250949997222,217.429032729991,217.43197380000493,218.09124452998512,s,1,0.6491720000049099,649.1720000049099,217.43197380000493,218.09124452998512,218.1006799999741,220.0333429299586,EMOCONPILOT004,2020_Dec_15_1203,EmoCon_Pilot_120Hz,2020.2.4,119.99990405522507,
,,,,0,0,0,0,58,0,58,0,,,,,,,,,,,,,,,,,,,,,,,,,,,,,,,,,,,,,,,,,,,,,,58,9.0,f,021_o_f_n_a.jpg,neutral,s,17,1,220.0372309999657,220.33336102996836,220.54293129994767,220.7053020299587,220.71004529995844,220.75082652997807,220.75597419997212,221.19215492996736,s,1,0.4212072000373155,421.2072000373155,220.75597419997212,221.19215492996736,221.20353830000386,222.80844232998206,EMOCONPILOT004,2020_Dec_15_1203,EmoCon_Pilot_120Hz,2020.2.4,119.99990405522507,
,,,,0,0,0,0,59,0,59,0,,,,,,,,,,,,,,,,,,,,,,,,,,,,,,,,,,,,,,,,,,,,,,59,4.0,m,016_y_m_n_a.jpg,neutral,s,17,1,222.81325509998715,223.10854762995731,223.34765809995588,223.505778729968,223.50986839999678,223.5506064299785,223.55558179999935,223.95210522994748,s,1,0.3897861000150442,389.7861000150442,223.55558179999935,223.95210522994748,223.96367719996488,225.1334573299915,EMOCONPILOT004,2020_Dec_15_1203,EmoCon_Pilot_120Hz,2020.2.4,119.99990405522507,
,,,,0,0,0,0,60,0,60,0,,,,,,,,,,,,,,,,,,,,,,,,,,,,,,,,,,,,,,,,,,,,,,60,6.0,m,033_o_m_s_a.jpg,sad,a,17,1,225.1373867999646,225.43346842994796,225.47018519998528,225.6018360299582,225.6062342999503,225.6479439299961,225.65307919995394,226.58735032996046,s,0,0.923954900004901,923.954900004901,225.65307919995394,226.58735032996046,226.59358419995988,227.82525512994616,EMOCONPILOT004,2020_Dec_15_1203,EmoCon_Pilot_120Hz,2020.2.4,119.99990405522507,
,,,,0,0,0,0,61,0,61,0,,,,,,,,,,,,,,,,,,,,,,,,,,,,,,,,,,,,,,,,,,,,,,61,7.0,f,012_o_f_n_a.jpg,neutral,s,17,1,227.8282951999572,228.12519533000304,228.3537337000016,228.5240629299602,228.52787150000222,228.56878732999903,228.57251829997404,228.99384532996336,s,1,0.4126057999674231,412.6057999674231,228.57251829997404,228.99384532996336,229.00149739999324,230.9420078299532,EMOCONPILOT004,2020_Dec_15_1203,EmoCon_Pilot_120Hz,2020.2.4,119.99990405522507,
,,,,0,0,0,0,62,0,62,0,,,,,,,,,,,,,,,,,,,,,,,,,,,,,,,,,,,,,,,,,,,,,,62,2.0,m,008_y_m_h_a.jpg,happy,d,17,1,230.94612019998021,231.242045029992,231.2684287999873,231.40198672998812,231.4053420999553,231.44319842999684,231.44794230000116,231.9623062299739,d,1,0.4974463999969885,497.4463999969885,231.44794230000116,231.9623062299739,231.97192779998295,233.56708022998063,EMOCONPILOT004,2020_Dec_15_1203,EmoCon_Pilot_120Hz,2020.2.4,119.99990405522507,
,,,,0,0,0,0,63,0,63,0,,,,,,,,,,,,,,,,,,,,,,,,,,,,,,,,,,,,,,,,,,,,,,63,10.0,f,028_y_f_h_a.jpg,happy,d,3,1,233.57319049997022,233.8670362299832,233.8873748999904,233.90959222998353,233.9102420999552,233.94450142996502,233.94437369995285,235.1763117299939,d,1,1.2169336999650113,1216.9336999650113,233.94437369995285,235.1763117299939,235.18671689997427,236.55876342998235,EMOCONPILOT004,2020_Dec_15_1203,EmoCon_Pilot_120Hz,2020.2.4,119.99990405522507,
,,,,0,0,0,0,64,0,64,0,,,,,,,,,,,,,,,,,,,,,,,,,,,,,,,,,,,,,,,,,,,,,,64,4.0,m,016_y_m_h_a.jpg,happy,d,17,1,236.56258039997192,236.8586837299459,236.87964629998896,237.01035642995848,237.01246030000038,237.05172533000004,237.05362429999514,237.6115830299619,d,1,0.5474816000205465,547.4816000205465,237.05362429999514,237.6115830299619,237.61890509998193,238.67554232995607,EMOCONPILOT004,2020_Dec_15_1203,EmoCon_Pilot_120Hz,2020.2.4,119.99990405522507,
,,,,0,0,0,0,65,0,65,0,,,,,,,,,,,,,,,,,,,,,,,,,,,,,,,,,,,,,,,,,,,,,,65,9.0,f,021_o_f_s_a.jpg,sad,a,17,1,238.67991299997084,238.9755398299836,238.99792259995593,239.13544732995214,239.13868889998412,239.179803229979,239.18501630000537,240.26778632995556,a,1,1.0720631000003777,1072.0631000003777,239.18501630000537,240.26778632995556,240.27426609996473,242.20884202996385,EMOCONPILOT004,2020_Dec_15_1203,EmoCon_Pilot_120Hz,2020.2.4,119.99990405522507,
,,,,0,0,0,0,66,0,66,0,,,,,,,,,,,,,,,,,,,,,,,,,,,,,,,,,,,,,,,,,,,,,,66,7.0,f,012_o_f_h_a.jpg,happy,d,17,1,242.21289429999888,242.50888932996313,242.53216519998387,242.66906593000166,242.67379099997925,242.7143525299558,242.7181046999758,244.4215413299913,None,0,,,242.7181046999758,244.4215413299913,244.4255126999924,246.2589173300017,EMOCONPILOT004,2020_Dec_15_1203,EmoCon_Pilot_120Hz,2020.2.4,119.99990405522507,
,,,,0,0,0,0,67,0,67,0,,,,,,,,,,,,,,,,,,,,,,,,,,,,,,,,,,,,,,,,,,,,,,67,9.0,f,021_o_f_h_a.jpg,happy,d,17,1,246.26293789996998,246.55892643000115,246.78628519998165,246.94749272998305,246.952218899969,246.99319283000077,246.99821239995072,247.313146629947,d,1,0.3072070999769494,307.2070999769494,246.99821239995072,247.313146629947,247.32101109996438,248.7924573299766,EMOCONPILOT004,2020_Dec_15_1203,EmoCon_Pilot_120Hz,2020.2.4,119.99990405522507,
,,,,0,0,0,0,68,0,68,0,,,,,,,,,,,,,,,,,,,,,,,,,,,,,,,,,,,,,,,,,,,,,,68,8.0,f,019_m_f_h_a.jpg,happy,d,17,1,248.79786269995384,249.09241602999973,249.11914099997375,249.25226952996454,249.25542849994963,249.29363783000153,249.2965424999711,249.65897202997584,d,1,0.35259949997998774,352.59949997998774,249.2965424999711,249.65897202997584,249.66842419997556,250.6757135299791,EMOCONPILOT004,2020_Dec_15_1203,EmoCon_Pilot_120Hz,2020.2.4,119.99990405522507,
,,,,0,0,0,0,69,0,69,0,,,,,,,,,,,,,,,,,,,,,,,,,,,,,,,,,,,,,,,,,,,,,,69,9.0,f,021_o_f_s_a.jpg,sad,a,17,1,250.6795262999949,250.97564972994732,250.99704930000007,251.12740792997064,251.13080099999206,251.16859812999027,251.17081300000427,252.139734830003,a,1,0.9583330999594182,958.3330999594182,251.17081300000427,252.139734830003,252.1510327999713,253.26747852999833,EMOCONPILOT004,2020_Dec_15_1203,EmoCon_Pilot_120Hz,2020.2.4,119.99990405522507,
,,,,0,0,0,0,70,0,70,0,,,,,,,,,,,,,,,,,,,,,,,,,,,,,,,,,,,,,,,,,,,,,,70,2.0,m,008_y_m_h_a.jpg,happy,d,3,1,253.27146689995425,253.56739322997745,253.589667799999,253.61207222996163,253.6140488999663,253.65201092999777,253.65196249994915,254.79576162999146,s,0,1.1332047000178136,1133.2047000178136,253.65196249994915,254.79576162999146,254.805037299986,255.8257851299655,EMOCONPILOT004,2020_Dec_15_1203,EmoCon_Pilot_120Hz,2020.2.4,119.99990405522507,
,,,,0,0,0,0,71,0,71,0,,,,,,,,,,,,,,,,,,,,,,,,,,,,,,,,,,,,,,,,,,,,,,71,1.0,m,004_o_m_h_a.jpg,happy,d,3,1,255.82903500000248,256.12582512996744,256.34158969996497,256.3675079299661,256.3678730999818,256.4020929299819,256.40204449999146,257.34660322998536,d,1,0.934983299986925,934.983299986925,256.40204449999146,257.34660322998536,257.3501373999752,258.5924562299566,EMOCONPILOT004,2020_Dec_15_1203,EmoCon_Pilot_120Hz,2020.2.4,119.99990405522507,
,,,,0,0,0,0,72,0,72,0,,,,,,,,,,,,,,,,,,,,,,,,,,,,,,,,,,,,,,,,,,,,,,72,11.0,f,030_o_f_h_a.jpg,happy,d,17,1,258.5952844999847,258.8924357299635,259.0824925999623,259.24191452998787,259.2469063999597,259.2860433299735,259.29097879998153,259.54522722999684,d,1,0.23817440000129864,238.17440000129864,259.29097879998153,259.54522722999684,259.5567588999984,260.89259802997697,EMOCONPILOT004,2020_Dec_15_1203,EmoCon_Pilot_120Hz,2020.2.4,119.99990405522507,
,,,,0,0,0,0,73,0,73,0,,,,,,,,,,,,,,,,,,,,,,,,,,,,,,,,,,,,,,,,,,,,,,73,8.0,f,019_m_f_s_a.jpg,sad,a,3,1,260.8977326999884,261.1926190299506,261.4252650999697,261.4516734299774,261.4561039999826,261.4963034299959,261.50072139996337,262.24274173000015,a,1,0.7325748999719508,732.5748999719508,261.50072139996337,262.24274173000015,262.2542823999538,264.1176948299923,EMOCONPILOT004,2020_Dec_15_1203,EmoCon_Pilot_120Hz,2020.2.4,119.99990405522507,
,,,,0,0,0,0,74,0,74,0,,,,,,,,,,,,,,,,,,,,,,,,,,,,,,,,,,,,,,,,,,,,,,74,5.0,m,027_o_m_h_a.jpg,happy,d,17,1,264.12224080000306,264.41761042997825,264.6206792999874,264.78001512999765,264.78372789995046,264.82052622996855,264.8238136,265.8942222299462,d,1,1.0573772999923676,1057.3772999923676,264.8238136,265.8942222299462,265.90299149998464,267.15101852994997,EMOCONPILOT004,2020_Dec_15_1203,EmoCon_Pilot_120Hz,2020.2.4,119.99990405522507,
,,,,0,0,0,0,75,0,75,0,,,,,,,,,,,,,,,,,,,,,,,,,,,,,,,,,,,,,,,,,,,,,,75,8.0,f,019_m_f_s_a.jpg,sad,a,3,1,267.15512359997956,267.45099412998536,267.6928232999635,267.71898492995535,267.7194678999949,267.75496503000033,267.756666799949,268.78570372994875,s,0,1.0204400000511669,1020.4400000511669,267.756666799949,268.78570372994875,268.7932634999743,270.1594562299957,EMOCONPILOT004,2020_Dec_15_1203,EmoCon_Pilot_120Hz,2020.2.4,119.99990405522507,
,,,,0,0,0,0,76,0,76,0,,,,,,,,,,,,,,,,,,,,,,,,,,,,,,,,,,,,,,,,,,,,,,76,7.0,f,012_o_f_n_a.jpg,neutral,s,17,1,270.1649969999562,270.45954552996557,270.67873579997104,270.84788292995074,270.85238559998106,270.893681029958,270.898824599979,271.3762831299624,s,1,0.4704712000093423,470.4712000093423,270.898824599979,271.3762831299624,271.3888592000003,272.53445022995004,EMOCONPILOT004,2020_Dec_15_1203,EmoCon_Pilot_120Hz,2020.2.4,119.99990405522507,
,,,,0,0,0,0,77,0,77,0,,,,,,,,,,,,,,,,,,,,,,,,,,,,,,,,,,,,,,,,,,,,,,77,6.0,m,033_o_m_s_a.jpg,sad,a,17,1,272.53835339995567,272.8344792299846,272.85743109998293,272.99444202996676,272.9975759999943,273.036782529956,273.0406489999732,273.4638268299692,s,0,0.4085000000195578,408.5000000195578,273.0406489999732,273.4638268299692,273.4763984999736,274.96785742998475,EMOCONPILOT004,2020_Dec_15_1203,EmoCon_Pilot_120Hz,2020.2.4,119.99990405522507,
,,,,0,0,0,0,78,0,78,0,,,,,,,,,,,,,,,,,,,,,,,,,,,,,,,,,,,,,,,,,,,,,,78,1.0,m,004_o_m_h_a.jpg,happy,d,3,1,274.97199399996316,275.26786632998267,275.4636475999723,275.4904614299827,275.490958499955,275.5274117299647,275.52863879996585,276.0643588299805,d,1,0.5284999999566935,528.4999999566935,275.52863879996585,276.0643588299805,276.0707903999719,277.0930039299943,EMOCONPILOT004,2020_Dec_15_1203,EmoCon_Pilot_120Hz,2020.2.4,119.99990405522507,
,,,,0,0,0,0,79,0,79,0,,,,,,,,,,,,,,,,,,,,,,,,,,,,,,,,,,,,,,,,,,,,,,79,5.0,m,027_o_m_s_a.jpg,sad,a,3,1,277.09653270000126,277.39290723000306,277.4301034999662,277.45275812997136,277.45303399994737,277.48820672998556,277.487890599994,279.1076719299832,None,0,,,277.487890599994,279.1076719299832,279.1126760999905,281.0180435299932,EMOCONPILOT004,2020_Dec_15_1203,EmoCon_Pilot_120Hz,2020.2.4,119.99990405522507,
,,,,0,0,0,0,80,0,80,0,,,,,,,,,,,,,,,,,,,,,,,,,,,,,,,,,,,,,,,,,,,,,,80,9.0,f,021_o_f_s_a.jpg,sad,a,17,1,281.0221218999941,281.3179880299664,281.3412156999693,281.4780863299908,281.4827172999503,281.5235116299533,281.52857769996626,282.18833412997776,s,0,0.6484875999740325,648.4875999740325,281.52857769996626,282.18833412997776,282.19204309995985,283.82636313000114,EMOCONPILOT004,2020_Dec_15_1203,EmoCon_Pilot_120Hz,2020.2.4,119.99990405522507,
,,,,0,0,0,0,81,0,81,0,,,,,,,,,,,,,,,,,,,,,,,,,,,,,,,,,,,,,,,,,,,,,,81,5.0,m,027_o_m_s_a.jpg,sad,a,3,1,283.82946429995354,284.1263636299933,284.14760119997663,284.17048512998156,284.17230129998643,284.20890362996727,284.2087049999973,285.60283982997646,s,0,1.3844606000347994,1384.4606000347994,284.2087049999973,285.60283982997646,285.60968299995875,286.8764412300021,EMOCONPILOT004,2020_Dec_15_1203,EmoCon_Pilot_120Hz,2020.2.4,119.99990405522507,
,,,,0,0,0,0,82,0,82,0,,,,,,,,,,,,,,,,,,,,,,,,,,,,,,,,,,,,,,,,,,,,,,82,7.0,f,012_o_f_h_a.jpg,happy,d,3,1,286.8818460999755,287.17652842995597,287.1990981999552,287.22177502995476,287.22252909996314,287.2609023299825,287.26186629995937,287.82456392997994,d,1,0.55529970000498,555.29970000498,287.26186629995937,287.82456392997994,287.83210149995284,289.81808482994677,EMOCONPILOT004,2020_Dec_15_1203,EmoCon_Pilot_120Hz,2020.2.4,119.99990405522507,
,,,,0,0,0,0,83,0,83,0,,,,,,,,,,,,,,,,,,,,,,,,,,,,,,,,,,,,,,,,,,,,,,83,3.0,m,013_y_m_s_a.jpg,sad,a,3,1,289.8209336999571,290.11814693000053,290.139372799953,290.16186132997393,290.16363989998354,290.1992807299772,290.2006015999941,291.192308029969,s,0,0.9847787999897264,984.7787999897264,290.2006015999941,291.192308029969,291.2035908999969,292.35168492997184,EMOCONPILOT004,2020_Dec_15_1203,EmoCon_Pilot_120Hz,2020.2.4,119.99990405522507,
,,,,0,0,0,0,84,0,84,0,,,,,,,,,,,,,,,,,,,,,,,,,,,,,,,,,,,,,,,,,,,,,,84,5.0,m,027_o_m_s_a.jpg,sad,a,17,1,292.35703289997764,292.6515992299479,292.6718632999691,292.8031800299592,292.8063613999984,292.8444825299608,292.84821189998183,293.78626772999417,a,1,0.9288813999737613,928.8813999737613,292.84821189998183,293.78626772999417,293.7908211000031,294.99338982998745,EMOCONPILOT004,2020_Dec_15_1203,EmoCon_Pilot_120Hz,2020.2.4,119.99990405522507,
,,,,0,0,0,0,85,0,85,0,,,,,,,,,,,,,,,,,,,,,,,,,,,,,,,,,,,,,,,,,,,,,,85,4.0,m,016_y_m_s_a.jpg,sad,a,17,1,294.9992902999511,295.29331832995524,295.318492099992,295.45329552998885,295.4568100000033,295.49497582995684,295.4980360000045,295.94430552998676,a,1,0.4391162999672815,439.1162999672815,295.4980360000045,295.94430552998676,295.95435769995674,297.67664232995014,EMOCONPILOT004,2020_Dec_15_1203,EmoCon_Pilot_120Hz,2020.2.4,119.99990405522507,
,,,,0,0,0,0,86,0,86,0,,,,,,,,,,,,,,,,,,,,,,,,,,,,,,,,,,,,,,,,,,,,,,86,5.0,m,027_o_m_n_a.jpg,neutral,s,17,1,297.6797762999777,297.97670252998944,298.2048873999738,298.3682116299693,298.37295409996295,298.41432982996923,298.4188366999733,298.83502702996486,a,0,0.406500400044024,406.500400044024,298.4188366999733,298.83502702996486,298.843624799978,300.13505872996177,EMOCONPILOT004,2020_Dec_15_1203,EmoCon_Pilot_120Hz,2020.2.4,119.99990405522507,
,,,,0,0,0,0,87,0,87,0,,,,,,,,,,,,,,,,,,,,,,,,,,,,,,,,,,,,,,,,,,,,,,87,3.0,m,013_y_m_h_a.jpg,happy,d,17,1,300.14016349997837,300.4349877299916,300.67419199994765,300.83047862996466,300.83541759999935,300.8762495299976,300.88130419998197,301.5665916299855,d,1,0.6718262000358663,671.8262000358663,300.88130419998197,301.5665916299855,301.57235909998417,303.1101068299555,EMOCONPILOT004,2020_Dec_15_1203,EmoCon_Pilot_120Hz,2020.2.4,119.99990405522507,
,,,,0,0,0,0,88,0,88,0,,,,,,,,,,,,,,,,,,,,,,,,,,,,,,,,,,,,,,,,,,,,,,88,5.0,m,027_o_m_s_a.jpg,sad,a,17,1,303.1144009999698,303.41011872997626,303.43303630000446,303.5700257299992,303.57213980000233,303.61138242994787,303.61345499998424,304.18408822995264,a,1,0.5557659999467432,555.7659999467432,303.61345499998424,304.18408822995264,304.1963633999694,305.4019090299786,EMOCONPILOT004,2020_Dec_15_1203,EmoCon_Pilot_120Hz,2020.2.4,119.99990405522507,
,,,,0,0,0,0,89,0,89,0,,,,,,,,,,,,,,,,,,,,,,,,,,,,,,,,,,,,,,,,,,,,,,89,5.0,m,027_o_m_s_a.jpg,sad,a,17,1,305.4051400999888,305.70183632999544,305.7262172999908,305.86186142998633,305.8653310999507,305.9030466299679,305.90638979995856,306.513364129985,a,1,0.5907273999764584,590.7273999764584,305.90638979995856,306.513364129985,306.52276729996083,307.6768664299685,EMOCONPILOT004,2020_Dec_15_1203,EmoCon_Pilot_120Hz,2020.2.4,119.99990405522507,
,,,,0,0,0,0,90,0,90,0,,,,,,,,,,,,,,,,,,,,,,,,,,,,,,,,,,,,,,,,,,,,,,90,12.0,f,040_y_f_s_a.jpg,sad,a,3,1,307.68093459995,307.97686622995536,308.01265359995887,308.0357664299605,308.0366110999603,308.0706862299645,308.0703308999655,309.59453112998165,s,0,1.5148135999916121,1514.8135999916121,308.0703308999655,309.59453112998165,309.6026319999946,310.7019523299474,EMOCONPILOT004,2020_Dec_15_1203,EmoCon_Pilot_120Hz,2020.2.4,119.99990405522507,
,,,,0,0,0,0,91,0,91,0,,,,,,,,,,,,,,,,,,,,,,,,,,,,,,,,,,,,,,,,,,,,,,91,3.0,m,013_y_m_n_a.jpg,neutral,s,17,1,310.70470469997963,311.00193793000074,311.2547304999898,311.40955912996435,311.414561899961,311.4550754299795,311.45935939997435,311.9875142299512,s,1,0.5178093000431545,517.8093000431545,311.45935939997435,311.9875142299512,311.9988053999841,313.71869283000126,EMOCONPILOT004,2020_Dec_15_1203,EmoCon_Pilot_120Hz,2020.2.4,119.99990405522507,
,,,,0,0,0,0,92,0,92,0,,,,,,,,,,,,,,,,,,,,,,,,,,,,,,,,,,,,,,,,,,,,,,92,12.0,f,040_y_f_s_a.jpg,sad,a,3,1,313.7201354999561,314.0186970299634,314.0351078999811,314.0571362299903,314.05808599997545,314.0949842299975,314.0962355999509,314.9760297299887,s,0,0.8650035999598913,865.0035999598913,314.0962355999509,314.9760297299887,314.9807934999699,316.6853939299996,EMOCONPILOT004,2020_Dec_15_1203,EmoCon_Pilot_120Hz,2020.2.4,119.99990405522507,
,,,,0,0,0,0,93,0,93,0,,,,,,,,,,,,,,,,,,,,,,,,,,,,,,,,,,,,,,,,,,,,,,93,6.0,m,033_o_m_s_a.jpg,sad,a,3,1,316.689582699968,316.98540162998836,317.0061011999496,317.02940403000105,317.0299584000022,317.06603652994966,317.06597870000405,318.68877062998365,s,0,1.6071314999717288,1607.1314999717288,317.06597870000405,318.68877062998365,318.694946100004,320.14380012999175,EMOCONPILOT004,2020_Dec_15_1203,EmoCon_Pilot_120Hz,2020.2.4,119.99990405522507,
,,,,0,0,0,0,94,0,94,0,,,,,,,,,,,,,,,,,,,,,,,,,,,,,,,,,,,,,,,,,,,,,,94,2.0,m,008_y_m_s_a.jpg,sad,a,17,1,320.1477668999578,320.44389392999585,320.6934301999863,320.8518183299981,320.855919900001,320.89654622994715,320.9016994999838,321.42876492998914,a,1,0.5155736000160687,515.5736000160687,320.9016994999838,321.42876492998914,321.4393226999673,322.8606429299631,EMOCONPILOT004,2020_Dec_15_1203,EmoCon_Pilot_120Hz,2020.2.4,119.99990405522507,
,,,,0,0,0,0,95,0,95,0,,,,,,,,,,,,,,,,,,,,,,,,,,,,,,,,,,,,,,,,,,,,,,95,8.0,f,019_m_f_s_a.jpg,sad,a,17,1,322.86649089999264,323.1605651299993,323.40353609999875,323.5641834299837,323.56772849999834,323.6091717299947,323.6134734999505,323.9600093299465,a,1,0.3315673999604769,331.5673999604769,323.6134734999505,323.9600093299465,323.9683442999958,325.235660829983,EMOCONPILOT004,2020_Dec_15_1203,EmoCon_Pilot_120Hz,2020.2.4,119.99990405522507,
,,,,0,0,0,0,96,0,96,0,,,,,,,,,,,,,,,,,,,,,,,,,,,,,,,,,,,,,,,,,,,,,,96,9.0,f,021_o_f_n_a.jpg,neutral,s,3,1,325.2387724999571,325.5356081299775,325.74960629997076,325.7753343299788,325.7757031999645,325.81230882997045,325.8140295999474,326.9660143299785,s,1,1.1390721999923699,1139.0721999923699,325.8140295999474,326.9660143299785,326.9707759000012,328.7191206299991,EMOCONPILOT004,2020_Dec_15_1203,EmoCon_Pilot_120Hz,2020.2.4,119.99990405522507,
,,,,0,0,0,0,97,0,97,0,,,,,,,,,,,,,,,,,,,,,,,,,,,,,,,,,,,,,,,,,,,,,,97,11.0,f,030_o_f_h_a.jpg,happy,d,3,1,328.72465170000214,329.0191078299482,329.2171176999691,329.2431754299847,329.2435961999581,329.2788691300026,329.27847759996075,329.88900462997265,d,1,0.5947939000325277,594.7939000325277,329.27847759996075,329.88900462997265,329.89827879995573,331.0857223299623,EMOCONPILOT004,2020_Dec_15_1203,EmoCon_Pilot_120Hz,2020.2.4,119.99990405522507,
,,,,0,0,0,0,98,0,98,0,,,,,,,,,,,,,,,,,,,,,,,,,,,,,,,,,,,,,,,,,,,,,,98,12.0,f,040_y_f_n_a.jpg,neutral,s,3,1,331.08998819999397,331.3857156299579,331.5980572999688,331.6251269299479,331.6287155000027,331.66963752998856,331.6737545999931,332.4256575299602,s,1,0.7434342000051402,743.4342000051402,331.6737545999931,332.4256575299602,332.4372671999736,333.7523959299957,EMOCONPILOT004,2020_Dec_15_1203,EmoCon_Pilot_120Hz,2020.2.4,119.99990405522507,
,,,,0,0,0,0,99,0,99,0,,,,,,,,,,,,,,,,,,,,,,,,,,,,,,,,,,,,,,,,,,,,,,99,12.0,f,040_y_f_s_a.jpg,sad,a,3,1,333.7540834999527,334.0524095299712,334.07021839998197,334.0930593299505,334.0938052999554,334.13008352997133,334.1313852999592,334.915540229989,s,0,0.7736645999830216,773.6645999830216,334.1313852999592,334.915540229989,334.92294289998244,336.0771520299546,EMOCONPILOT004,2020_Dec_15_1203,EmoCon_Pilot_120Hz,2020.2.4,119.99990405522507,
,,,,0,0,0,0,100,0,100,0,,,,,,,,,,,,,,,,,,,,,,,,,,,,,,,,,,,,,,,,,,,,,,100,4.0,m,016_y_m_n_a.jpg,neutral,s,3,1,336.077864699997,336.3775072299701,336.62073599995347,336.646068429976,336.6462573999888,336.6812571299903,336.6822350999573,337.970711030002,s,1,1.2710529000032693,1271.0529000032693,336.6822350999573,337.970711030002,337.97815789998276,339.677541029983,EMOCONPILOT004,2020_Dec_15_1203,EmoCon_Pilot_120Hz,2020.2.4,119.99990405522507,
,,,,0,0,0,0,101,0,101,0,,,,,,,,,,,,,,,,,,,,,,,,,,,,,,,,,,,,,,,,,,,,,,101,11.0,f,030_o_f_s_a.jpg,sad,a,3,1,339.6817318999674,339.97754493000105,340.17165519995615,340.1976391299919,340.1979958000011,340.2349880299822,340.23668939998606,341.2988743300026,d,0,1.052478900004644,1052.478900004644,340.23668939998606,341.2988743300026,341.3081554999808,343.16107212995996,EMOCONPILOT004,2020_Dec_15_1203,EmoCon_Pilot_120Hz,2020.2.4,119.99990405522507,
,,,,0,0,0,0,102,0,102,0,,,,,,,,,,,,,,,,,,,,,,,,,,,,,,,,,,,,,,,,,,,,,,102,3.0,m,013_y_m_h_a.jpg,happy,d,3,1,343.16665119997924,343.4610752299719,343.69666159996996,343.7221125299635,343.72293869999703,343.7589815299667,343.7588066000026,344.22826622996365,d,1,0.4583048999775201,458.3048999775201,343.7588066000026,344.22826622996365,344.2345707999775,345.9443781299575,EMOCONPILOT004,2020_Dec_15_1203,EmoCon_Pilot_120Hz,2020.2.4,119.99990405522507,
,,,,0,0,0,0,103,0,103,0,,,,,,,,,,,,,,,,,,,,,,,,,,,,,,,,,,,,,,,,,,,,,,103,2.0,m,008_y_m_s_a.jpg,sad,a,3,1,345.9499806999811,346.24447022994866,346.47995499998797,346.5051858299936,346.5055237999768,346.5397601299861,346.5393284999882,347.166285829962,a,1,0.6139366999850608,613.9366999850608,346.5393284999882,347.166285829962,347.1756269999896,348.28614852995963,EMOCONPILOT004,2020_Dec_15_1203,EmoCon_Pilot_120Hz,2020.2.4,119.99990405522507,
,,,,0,0,0,0,104,0,104,0,,,,,,,,,,,,,,,,,,,,,,,,,,,,,,,,,,,,,,,,,,,,,,104,11.0,f,030_o_f_s_a.jpg,sad,a,3,1,348.2895693999599,348.58604722999155,348.77331729995785,348.7998816299893,348.8007556999801,348.8373024300032,348.8372750999988,349.5969068299688,s,0,0.7480122999986634,748.0122999986634,348.8372750999988,349.5969068299688,349.60754509997787,350.78619552996827,EMOCONPILOT004,2020_Dec_15_1203,EmoCon_Pilot_120Hz,2020.2.4,119.99990405522507,
,,,,0,0,0,0,105,0,105,0,,,,,,,,,,,,,,,,,,,,,,,,,,,,,,,,,,,,,,,,,,,,,,105,4.0,m,016_y_m_h_a.jpg,happy,d,3,1,350.7923609999707,351.08614602998716,351.10378459998174,351.1266195299628,351.1270722000045,351.1622192299634,351.1635760999634,351.9147390300001,d,1,0.7415508000412956,741.5508000412956,351.1635760999634,351.9147390300001,351.9221386999707,353.61940192995246,EMOCONPILOT004,2020_Dec_15_1203,EmoCon_Pilot_120Hz,2020.2.4,119.99990405522507,
,,,,0,0,0,0,106,0,106,0,,,,,,,,,,,,,,,,,,,,,,,,,,,,,,,,,,,,,,,,,,,,,,106,7.0,f,012_o_f_n_a.jpg,neutral,s,3,1,353.6222421999555,353.9195342299587,354.1383887999691,354.167678929976,354.17224169999827,354.2132962299453,354.2183189999778,354.77888912998026,s,1,0.5509605000261217,550.9605000261217,354.2183189999778,354.77888912998026,354.78941189998295,356.18626722995543,EMOCONPILOT004,2020_Dec_15_1203,EmoCon_Pilot_120Hz,2020.2.4,119.99990405522507,
,,,,0,0,0,0,107,0,107,0,,,,,,,,,,,,,,,,,,,,,,,,,,,,,,,,,,,,,,,,,,,,,,107,11.0,f,030_o_f_h_a.jpg,happy,d,3,1,356.1906618999783,356.4862595300016,356.6800840999931,356.70631352997736,356.7066684999736,356.7414391299768,356.7414192999713,357.2864696299599,d,1,0.5317213999805972,531.7213999805972,356.7414192999713,357.2864696299599,357.29579309996916,358.68629302997726,EMOCONPILOT004,2020_Dec_15_1203,EmoCon_Pilot_120Hz,2020.2.4,119.99990405522507,
,,,,0,0,0,0,108,0,108,0,,,,,,,,,,,,,,,,,,,,,,,,,,,,,,,,,,,,,,,,,,,,,,108,1.0,m,004_o_m_s_a.jpg,sad,a,3,1,358.690007600002,358.9863810299954,359.00947439996526,359.0319839299715,359.033765799948,359.0707123299886,359.07177809998393,360.6639371299476,None,0,,,359.07177809998393,360.6639371299476,360.66812930000015,362.5780128299899,EMOCONPILOT004,2020_Dec_15_1203,EmoCon_Pilot_120Hz,2020.2.4,119.99990405522507,
,,,,0,0,0,0,109,0,109,0,,,,,,,,,,,,,,,,,,,,,,,,,,,,,,,,,,,,,,,,,,,,,,109,3.0,m,013_y_m_n_a.jpg,neutral,s,3,1,362.582265199977,362.8780135299836,363.1235049999668,363.1492609299545,363.152617499989,363.1919318299566,363.19713230000343,363.8265004299989,s,1,0.6121500000008382,612.1500000008382,363.19713230000343,363.8265004299989,363.83792409999296,365.0782149299572,EMOCONPILOT004,2020_Dec_15_1203,EmoCon_Pilot_120Hz,2020.2.4,119.99990405522507,
,,,,0,0,0,0,110,0,110,0,,,,,,,,,,,,,,,,,,,,,,,,,,,,,,,,,,,,,,,,,,,,,,110,10.0,f,028_y_f_s_a.jpg,sad,a,3,1,365.08382309996523,365.3781206299842,365.40343899995787,365.4260160299542,365.42791379999835,365.4641740299936,365.46563429996604,367.201717929967,None,0,,,365.46563429996604,367.201717929967,367.2092488000053,368.4031405299844,EMOCONPILOT004,2020_Dec_15_1203,EmoCon_Pilot_120Hz,2020.2.4,119.99990405522507,
,,,,0,0,0,0,111,0,111,0,,,,,,,,,,,,,,,,,,,,,,,,,,,,,,,,,,,,,,,,,,,,,,111,11.0,f,030_o_f_h_a.jpg,happy,d,3,1,368.4074152999674,368.70313202996624,368.9225877999561,368.9494470299629,368.94984009995824,368.9877950299939,368.9879391999566,369.47247902996025,d,1,0.4773397000390105,477.3397000390105,368.9879391999566,369.47247902996025,369.479063799954,370.8864741299709,EMOCONPILOT004,2020_Dec_15_1203,EmoCon_Pilot_120Hz,2020.2.4,119.99990405522507,
,,,,0,0,0,0,112,0,112,0,,,,,,,,,,,,,,,,,,,,,,,,,,,,,,,,,,,,,,,,,,,,,,112,7.0,f,012_o_f_n_a.jpg,neutral,s,3,1,370.8907256999519,371.18653472995504,371.39584309997736,371.4235119299789,371.4266204999876,371.46570192998627,371.47011569997994,373.2961559299671,None,0,,,371.47011569997994,373.2961559299671,373.30347029998666,375.06174272996725,EMOCONPILOT004,2020_Dec_15_1203,EmoCon_Pilot_120Hz,2020.2.4,119.99990405522507,
,,,,0,0,0,0,113,0,113,0,,,,,,,,,,,,,,,,,,,,,,,,,,,,,,,,,,,,,,,,,,,,,,113,2.0,m,008_y_m_s_a.jpg,sad,a,3,1,375.0670817999635,375.3616452299699,375.5979540999979,375.62385442997913,375.6241197999916,375.658318729949,375.659990199958,376.3502053299977,s,0,0.6770562999881804,677.0562999881804,375.659990199958,376.3502053299977,376.3551471999963,377.5700035299466,EMOCONPILOT004,2020_Dec_15_1203,EmoCon_Pilot_120Hz,2020.2.4,119.99990405522507,
,,,,0,0,0,0,114,0,114,0,,,,,,,,,,,,,,,,,,,,,,,,,,,,,,,,,,,,,,,,,,,,,,114,11.0,f,030_o_f_h_a.jpg,happy,d,3,1,377.57315699994797,377.8701402299863,378.06298569997307,378.09001062996106,378.09097429999383,378.1269665299857,378.12882429995807,379.86611383000275,None,0,,,378.12882429995807,379.86611383000275,379.8731661999482,380.97017302997995,EMOCONPILOT004,2020_Dec_15_1203,EmoCon_Pilot_120Hz,2020.2.4,119.99990405522507,
,,,,0,0,0,0,115,0,115,0,,,,,,,,,,,,,,,,,,,,,,,,,,,,,,,,,,,,,,,,,,,,,,115,3.0,m,013_y_m_h_a.jpg,happy,d,3,1,380.9745462999563,381.2701999299985,381.5039198999875,381.5300437299826,381.53022759995656,381.5669140299957,381.56802239996614,382.1208880299761,d,1,0.5373839000239968,537.3839000239968,381.56802239996614,382.1208880299761,382.13003179995576,383.4618745299464,EMOCONPILOT004,2020_Dec_15_1203,EmoCon_Pilot_120Hz,2020.2.4,119.99990405522507,
,,,,0,0,0,0,116,0,116,0,,,,,,,,,,,,,,,,,,,,,,,,,,,,,,,,,,,,,,,,,,,,,,116,2.0,m,008_y_m_s_a.jpg,sad,a,3,1,383.46647669997765,383.76179742998795,383.98448609997286,384.00981913,384.0100136999972,384.0463473299693,384.0460700999829,384.73751622996645,a,1,0.675152399984654,675.152399984654,384.0460700999829,384.73751622996645,384.74659349996364,386.70352702994717,EMOCONPILOT004,2020_Dec_15_1203,EmoCon_Pilot_120Hz,2020.2.4,119.99990405522507,
,,,,0,0,0,0,117,0,117,0,,,,,,,,,,,,,,,,,,,,,,,,,,,,,,,,,,,,,,,,,,,,,,117,3.0,m,013_y_m_n_a.jpg,neutral,s,3,1,386.7064928999753,387.0035245299747,387.2322789999889,387.2592413299659,387.2623349999776,387.30313852999245,387.30813689995557,387.90519492996975,s,1,0.5893425000249408,589.3425000249408,387.30813689995557,387.90519492996975,387.91209289996186,389.345267129998,EMOCONPILOT004,2020_Dec_15_1203,EmoCon_Pilot_120Hz,2020.2.4,119.99990405522507,
,,,,0,0,0,0,118,0,118,0,,,,,,,,,,,,,,,,,,,,,,,,,,,,,,,,,,,,,,,,,,,,,,118,6.0,m,033_o_m_n_a.jpg,neutral,s,3,1,389.35063820000505,389.6452860299556,389.8431925000041,389.8705769299937,389.8743966000038,389.91438542998515,389.9194137000013,391.75221912998825,None,0,,,389.9194137000013,391.75221912998825,391.75958129996434,393.1454053299909,EMOCONPILOT004,2020_Dec_15_1203,EmoCon_Pilot_120Hz,2020.2.4,119.99990405522507,
,,,,0,0,0,0,119,0,119,0,,,,,,,,,,,,,,,,,,,,,,,,,,,,,,,,,,,,,,,,,,,,,,119,6.0,m,033_o_m_n_a.jpg,neutral,s,3,1,393.151424199983,393.44535672995846,393.6450499999919,393.67244242998424,393.675124100002,393.7120602299634,393.714915599965,394.8058930299536,a,0,1.0787397000240162,1078.7397000240162,393.714915599965,394.8058930299536,394.81629559997236,396.5954228299612,EMOCONPILOT004,2020_Dec_15_1203,EmoCon_Pilot_120Hz,2020.2.4,119.99990405522507,
,,,,1,0,1,0,0,0,0,0,,,,,,,,,,,,,,,,,,,,,,,,,,,,,,,,,,,,,,,396.6899167999509,398.90371762995494,space,2.1992554000462405,2199.2554000462405,396.6899167999509,398.90371762995494,0,1.0,m,004_o_m_s_a.jpg,sad,a,17,2,398.90728809998836,399.19542402994705,399.21826860000147,399.3554823299579,399.36040789994877,399.4011341299571,399.4064792999998,400.8605725299509,a,1,1.4425673999940045,1442.5673999940045,399.4064792999998,400.8605725299509,400.8688070999924,402.03730862994564,EMOCONPILOT004,2020_Dec_15_1203,EmoCon_Pilot_120Hz,2020.2.4,119.99990405522507,
,,,,1,0,1,0,1,0,1,0,,,,,,,,,,,,,,,,,,,,,,,,,,,,,,,,,,,,,,,,,,,,,,1,9.0,f,021_o_f_n_a.jpg,neutral,s,17,2,402.04412019997835,402.33720782998137,402.56095779995667,402.7218988299661,402.72654809994856,402.7670647299907,402.77233519998845,403.3596377299924,s,1,0.572871699987445,572.871699987445,402.77233519998845,403.3596377299924,403.36431159998756,404.8289766299946,EMOCONPILOT004,2020_Dec_15_1203,EmoCon_Pilot_120Hz,2020.2.4,119.99990405522507,
,,,,1,0,1,0,2,0,2,0,,,,,,,,,,,,,,,,,,,,,,,,,,,,,,,,,,,,,,,,,,,,,,2,11.0,f,030_o_f_s_a.jpg,sad,a,17,2,404.8335292999982,405.1288908299699,405.31556209997507,405.47294552996175,405.4775627999916,405.51847822998536,405.52357109996956,406.489809729968,a,1,0.9577204999513924,957.7204999513924,405.52357109996956,406.489809729968,406.5003668999998,408.40405652997435,EMOCONPILOT004,2020_Dec_15_1203,EmoCon_Pilot_120Hz,2020.2.4,119.99990405522507,
,,,,1,0,1,0,3,0,3,0,,,,,,,,,,,,,,,,,,,,,,,,,,,,,,,,,,,,,,,,,,,,,,3,10.0,f,028_y_f_s_a.jpg,sad,a,17,2,408.4082142999978,408.70396102999223,408.7170813999837,408.8472841299896,408.8503880999633,408.8885724299995,408.8928523999639,410.08233992999305,a,1,1.1724413000047207,1172.4413000047207,408.8928523999639,410.08233992999305,410.092150099983,411.27059182995583,EMOCONPILOT004,2020_Dec_15_1203,EmoCon_Pilot_120Hz,2020.2.4,119.99990405522507,
,,,,1,0,1,0,4,0,4,0,,,,,,,,,,,,,,,,,,,,,,,,,,,,,,,,,,,,,,,,,,,,,,4,6.0,m,033_o_m_n_a.jpg,neutral,s,17,2,411.27343689999543,411.5706171299622,411.7754073999822,411.93621052998935,411.94000149995554,411.98124032996714,411.9863161999965,412.5457417299564,s,1,0.5509011999820359,550.9011999820359,411.9863161999965,412.5457417299564,412.5573456999846,413.9957278299786,EMOCONPILOT004,2020_Dec_15_1203,EmoCon_Pilot_120Hz,2020.2.4,119.99990405522507,
,,,,1,0,1,0,5,0,5,0,,,,,,,,,,,,,,,,,,,,,,,,,,,,,,,,,,,,,,,,,,,,,,5,1.0,m,004_o_m_n_a.jpg,neutral,s,2,2,413.9998604999855,414.2958047299704,414.51291059999494,414.53040682995345,414.53077670000494,414.5658393299615,414.56555589998607,415.96815033000314,a,0,1.3957753999857232,1395.7753999857232,414.56555589998607,415.96815033000314,415.9788646999514,417.02910182997005,EMOCONPILOT004,2020_Dec_15_1203,EmoCon_Pilot_120Hz,2020.2.4,119.99990405522507,
,,,,1,0,1,0,6,0,6,0,,,,,,,,,,,,,,,,,,,,,,,,,,,,,,,,,,,,,,,,,,,,,,6,12.0,f,040_y_f_s_a.jpg,sad,a,17,2,417.03211219998775,417.32917852996036,417.3452880999539,417.48082042997123,417.48469799995655,417.52232502999834,417.5263811000041,418.04097862995116,s,0,0.4990315000177361,499.0315000177361,417.5263811000041,418.04097862995116,418.0508893999504,419.27090072997964,EMOCONPILOT004,2020_Dec_15_1203,EmoCon_Pilot_120Hz,2020.2.4,119.99990405522507,
,,,,1,0,1,0,7,0,7,0,,,,,,,,,,,,,,,,,,,,,,,,,,,,,,,,,,,,,,,,,,,,,,7,9.0,f,021_o_f_n_a.jpg,neutral,s,2,2,419.276294899988,419.57100672996023,419.79013499995926,419.80752522998375,419.8108161999844,419.8498825299845,419.8551168999984,421.3690892299579,s,1,1.505980100017041,1505.980100017041,419.8551168999984,421.3690892299579,421.3766017999733,422.62926252994805,EMOCONPILOT004,2020_Dec_15_1203,EmoCon_Pilot_120Hz,2020.2.4,119.99990405522507,
,,,,1,0,1,0,8,0,8,0,,,,,,,,,,,,,,,,,,,,,,,,,,,,,,,,,,,,,,,,,,,,,,8,9.0,f,021_o_f_s_a.jpg,sad,a,2,2,422.6334807999665,422.9292827299738,422.94525129999965,422.9601425299712,422.9608989999979,422.99713772994585,422.9980639999849,424.23529292997557,s,0,1.227323700033594,1227.323700033594,422.9980639999849,424.23529292997557,424.24712459999137,425.8877150299901,EMOCONPILOT004,2020_Dec_15_1203,EmoCon_Pilot_120Hz,2020.2.4,119.99990405522507,
,,,,1,0,1,0,9,0,9,0,,,,,,,,,,,,,,,,,,,,,,,,,,,,,,,,,,,,,,,,,,,,,,9,4.0,m,016_y_m_s_a.jpg,sad,a,2,2,425.8928810999496,426.1877821299655,426.2093191999593,426.2249133299862,426.2256703999592,426.26397462997704,426.2640682999627,427.0050570300024,s,0,0.7292710000183433,729.2710000183433,426.2640682999627,427.0050570300024,427.01769109995803,428.22936172998163,EMOCONPILOT004,2020_Dec_15_1203,EmoCon_Pilot_120Hz,2020.2.4,119.99990405522507,
,,,,1,0,1,0,10,0,10,0,,,,,,,,,,,,,,,,,,,,,,,,,,,,,,,,,,,,,,,,,,,,,,10,7.0,f,012_o_f_n_a.jpg,neutral,s,2,2,428.23358699999517,428.52945753000097,428.74999879999086,428.7669953299861,428.76977610000176,428.808226829971,428.81227549997857,430.1210823300004,s,1,1.3009317999822088,1300.9317999822088,428.81227549997857,430.1210823300004,430.1314787999727,431.2378221299674,EMOCONPILOT004,2020_Dec_15_1203,EmoCon_Pilot_120Hz,2020.2.4,119.99990405522507,
,,,,1,0,1,0,11,0,11,0,,,,,,,,,,,,,,,,,,,,,,,,,,,,,,,,,,,,,,,,,,,,,,11,2.0,m,008_y_m_n_a.jpg,neutral,s,17,2,431.24154749995796,431.5378353299981,431.778127699974,431.93076822999285,431.9335073999828,431.97082602994635,431.9738784999936,432.5698898299539,s,1,0.5873093000263907,587.3093000263907,431.9738784999936,432.5698898299539,432.57934989995556,433.987872829946,EMOCONPILOT004,2020_Dec_15_1203,EmoCon_Pilot_120Hz,2020.2.4,119.99990405522507,
,,,,1,0,1,0,12,0,12,0,,,,,,,,,,,,,,,,,,,,,,,,,,,,,,,,,,,,,,,,,,,,,,12,1.0,m,004_o_m_s_a.jpg,sad,a,2,2,433.9939822999877,434.28793892997203,434.30997369997203,434.32539602997133,434.3265737000038,434.3640690299741,434.36544039996807,435.1766613299784,a,1,0.7957614000188187,795.7614000188187,434.36544039996807,435.1766613299784,435.1839411999681,436.89619492994973,EMOCONPILOT004,2020_Dec_15_1203,EmoCon_Pilot_120Hz,2020.2.4,119.99990405522507,
,,,,1,0,1,0,13,0,13,0,,,,,,,,,,,,,,,,,,,,,,,,,,,,,,,,,,,,,,,,,,,,,,13,7.0,f,012_o_f_h_a.jpg,happy,d,2,2,436.8999184999848,437.1963144299749,437.2115752999671,437.2272765299946,437.22815280000214,437.264011529967,437.26511290000053,438.4770397299959,s,0,1.2000411999761127,1200.0411999761127,437.26511290000053,438.4770397299959,438.4865340999677,440.0380556299875,EMOCONPILOT004,2020_Dec_15_1203,EmoCon_Pilot_120Hz,2020.2.4,119.99990405522507,
,,,,1,0,1,0,14,0,14,0,,,,,,,,,,,,,,,,,,,,,,,,,,,,,,,,,,,,,,,,,,,,,,14,3.0,m,013_y_m_h_a.jpg,happy,d,17,2,440.04316529998323,440.3381102299842,440.5876273000031,440.74404572997594,440.7490274999873,440.7898303299968,440.79483659996185,441.2207552299893,d,1,0.41441119997762144,414.41119997762144,440.79483659996185,441.2207552299893,441.23238969995873,442.2379869299999,EMOCONPILOT004,2020_Dec_15_1203,EmoCon_Pilot_120Hz,2020.2.4,119.99990405522507,
,,,,1,0,1,0,15,0,15,0,,,,,,,,,,,,,,,,,,,,,,,,,,,,,,,,,,,,,,,,,,,,,,15,11.0,f,030_o_f_n_a.jpg,neutral,s,2,2,442.24207219999516,442.5380067299644,442.73993929999415,442.75764853000294,442.7584413999575,442.79313152998805,442.79298589995597,443.98640832997046,d,0,1.1841696000192314,1184.1696000192314,442.79298589995597,443.98640832997046,443.9937693999964,445.4048008299957,EMOCONPILOT004,2020_Dec_15_1203,EmoCon_Pilot_120Hz,2020.2.4,119.99990405522507,
,,,,1,0,1,0,16,0,16,0,,,,,,,,,,,,,,,,,,,,,,,,,,,,,,,,,,,,,,,,,,,,,,16,3.0,m,013_y_m_n_a.jpg,neutral,s,2,2,445.40879799996037,445.7048395299877,445.92856450000545,445.9463061299699,445.9493553999928,445.98919483000066,445.9943156999652,446.73891362995494,s,1,0.7347721999976784,734.7721999976784,445.9943156999652,446.73891362995494,446.7452184999711,447.9881271299615,EMOCONPILOT004,2020_Dec_15_1203,EmoCon_Pilot_120Hz,2020.2.4,119.99990405522507,
,,,,1,0,1,0,17,0,17,0,,,,,,,,,,,,,,,,,,,,,,,,,,,,,,,,,,,,,,,,,,,,,,17,9.0,f,021_o_f_h_a.jpg,happy,d,2,2,447.9922510999604,448.28814792999185,448.4961948999553,448.51304652995316,448.5135225999984,448.54853522998167,448.5481533999555,449.84523872995635,s,0,1.2852265000110492,1285.2265000110492,448.5481533999555,449.84523872995635,449.8544304999523,451.1132420299633,EMOCONPILOT004,2020_Dec_15_1203,EmoCon_Pilot_120Hz,2020.2.4,119.99990405522507,
,,,,1,0,1,0,18,0,18,0,,,,,,,,,,,,,,,,,,,,,,,,,,,,,,,,,,,,,,,,,,,,,,18,3.0,m,013_y_m_s_a.jpg,sad,a,2,2,451.1161137999734,451.4131643300003,451.4396460999851,451.45513163,451.4559298999957,451.49054562998356,451.4907191999955,452.8411049299699,s,0,1.3345478000119328,1334.5478000119328,451.4907191999955,452.8411049299699,452.8494561999687,454.22989512996867,EMOCONPILOT004,2020_Dec_15_1203,EmoCon_Pilot_120Hz,2020.2.4,119.99990405522507,
,,,,1,0,1,0,19,0,19,0,,,,,,,,,,,,,,,,,,,,,,,,,,,,,,,,,,,,,,,,,,,,,,19,10.0,f,028_y_f_h_a.jpg,happy,d,17,2,454.23410729999887,454.52993952994586,454.5509160999791,454.6816056299664,454.6851405999623,454.723468529986,454.7269385999534,455.08194772997524,d,1,0.3383928000112064,338.3928000112064,454.7269385999534,455.08194772997524,455.091816799948,456.2884044299659,EMOCONPILOT004,2020_Dec_15_1203,EmoCon_Pilot_120Hz,2020.2.4,119.99990405522507,
,,,,1,0,1,0,20,0,20,0,,,,,,,,,,,,,,,,,,,,,,,,,,,,,,,,,,,,,,,,,,,,,,20,4.0,m,016_y_m_h_a.jpg,happy,d,2,2,456.2931260999758,456.58832112996026,456.609393599967,456.6251950300008,456.6259445999749,456.66079532994775,456.6604663999751,457.39598942995656,d,1,0.7248255999875255,724.8255999875255,456.6604663999751,457.39598942995656,457.40414539998164,459.1384357299481,EMOCONPILOT004,2020_Dec_15_1203,EmoCon_Pilot_120Hz,2020.2.4,119.99990405522507,
,,,,1,0,1,0,21,0,21,0,,,,,,,,,,,,,,,,,,,,,,,,,,,,,,,,,,,,,,,,,,,,,,21,6.0,m,033_o_m_h_a.jpg,happy,d,2,2,459.14315129996976,459.4383710299677,459.46364049997646,459.478779629973,459.4795121999923,459.5144300299522,459.51600589999,460.09704312995893,d,1,0.573244099970907,573.244099970907,459.51600589999,460.09704312995893,460.10643489996437,461.73018983000077,EMOCONPILOT004,2020_Dec_15_1203,EmoCon_Pilot_120Hz,2020.2.4,119.99990405522507,
,,,,1,0,1,0,22,0,22,0,,,,,,,,,,,,,,,,,,,,,,,,,,,,,,,,,,,,,,,,,,,,,,22,5.0,m,027_o_m_s_a.jpg,sad,a,17,2,461.73544049996417,462.030201029958,462.04251820000354,462.1755053299654,462.1795823999564,462.21622582995917,462.2159757000045,462.7236318299489,a,1,0.4972733000176959,497.2733000176959,462.2159757000045,462.7236318299489,462.73393659997964,464.6468426299922,EMOCONPILOT004,2020_Dec_15_1203,EmoCon_Pilot_120Hz,2020.2.4,119.99990405522507,
,,,,1,0,1,0,23,0,23,0,,,,,,,,,,,,,,,,,,,,,,,,,,,,,,,,,,,,,,,,,,,,,,23,10.0,f,028_y_f_n_a.jpg,neutral,s,2,2,464.65241809998406,464.94691742996804,465.15694999997504,465.1739093299781,465.1742674999987,465.2093343299872,465.2089810000034,466.31848232994673,a,0,1.096443799964618,1096.443799964618,465.2089810000034,466.31848232994673,466.32661259995075,467.3803172299464,EMOCONPILOT004,2020_Dec_15_1203,EmoCon_Pilot_120Hz,2020.2.4,119.99990405522507,
,,,,1,0,1,0,24,0,24,0,,,,,,,,,,,,,,,,,,,,,,,,,,,,,,,,,,,,,,,,,,,,,,24,9.0,f,021_o_f_n_a.jpg,neutral,s,2,2,467.3859988999902,467.680234330002,467.8933630999527,467.9107493299467,467.9110930999741,467.9481276299863,467.94839089998277,468.71562382997365,s,1,0.7567620000336319,756.7620000336319,467.94839089998277,468.71562382997365,468.72296139999526,470.5136197299522,EMOCONPILOT004,2020_Dec_15_1203,EmoCon_Pilot_120Hz,2020.2.4,119.99990405522507,
,,,,1,0,1,0,25,0,25,0,,,,,,,,,,,,,,,,,,,,,,,,,,,,,,,,,,,,,,,,,,,,,,25,8.0,f,019_m_f_h_a.jpg,happy,d,17,2,470.51878990000114,470.8136492299906,470.84048029995756,470.9736615300004,470.97813409997616,471.0188748299785,471.0239556999877,471.4635686299822,d,1,0.42549410002538934,425.49410002538934,471.0239556999877,471.4635686299822,471.4750654999516,472.73034922999216,EMOCONPILOT004,2020_Dec_15_1203,EmoCon_Pilot_120Hz,2020.2.4,119.99990405522507,
,,,,1,0,1,0,26,0,26,0,,,,,,,,,,,,,,,,,,,,,,,,,,,,,,,,,,,,,,,,,,,,,,26,4.0,m,016_y_m_n_a.jpg,neutral,s,2,2,472.7364080999978,473.03036592999126,473.2732214999851,473.29003743000214,473.2902717999532,473.3252018299478,473.3261570999748,474.8145772299555,s,1,1.474954199977219,1474.954199977219,473.3261570999748,474.8145772299555,474.82179819996236,476.0136847299815,EMOCONPILOT004,2020_Dec_15_1203,EmoCon_Pilot_120Hz,2020.2.4,119.99990405522507,
,,,,1,0,1,0,27,0,27,0,,,,,,,,,,,,,,,,,,,,,,,,,,,,,,,,,,,,,,,,,,,,,,27,1.0,m,004_o_m_h_a.jpg,happy,d,17,2,476.01762509997934,476.31373802996825,476.50586979999207,476.67360512999005,476.6784080999787,476.71924812998043,476.72322869999334,477.20088652998095,d,1,0.46195209998404607,461.9520999840461,476.72322869999334,477.20088652998095,477.21349509997526,479.0305893299461,EMOCONPILOT004,2020_Dec_15_1203,EmoCon_Pilot_120Hz,2020.2.4,119.99990405522507,
,,,,1,0,1,0,28,0,28,0,,,,,,,,,,,,,,,,,,,,,,,,,,,,,,,,,,,,,,,,,,,,,,28,10.0,f,028_y_f_s_a.jpg,sad,a,2,2,479.03465649997815,479.33048353000197,479.35438759997487,479.36955172998717,479.37038809998194,479.4066698299663,479.4066957999603,480.20551302999377,s,0,0.7868564000236802,786.8564000236802,479.4066957999603,480.20551302999377,480.21667359996354,481.9139597299451,EMOCONPILOT004,2020_Dec_15_1203,EmoCon_Pilot_120Hz,2020.2.4,119.99990405522507,
,,,,1,0,1,0,29,0,29,0,,,,,,,,,,,,,,,,,,,,,,,,,,,,,,,,,,,,,,,,,,,,,,29,5.0,m,027_o_m_h_a.jpg,happy,d,17,2,481.91963069996564,482.21392662997243,482.41977399995085,482.582295529946,482.58684709999943,482.62739502998886,482.6315560999792,483.6568234299717,d,1,1.0176273000543006,1017.6273000543006,482.6315560999792,483.6568234299717,483.6634016999742,485.497262029961,EMOCONPILOT004,2020_Dec_15_1203,EmoCon_Pilot_120Hz,2020.2.4,119.99990405522507,
,,,,1,0,1,0,30,0,30,0,,,,,,,,,,,,,,,,,,,,,,,,,,,,,,,,,,,,,,,,,,,,,,30,10.0,f,028_y_f_h_a.jpg,happy,d,2,2,485.50116879999405,485.79724732995385,485.82148909999523,485.8369022299827,485.8387048000004,485.87413402995446,485.87549639999634,486.7052725299669,d,1,0.8137734000338241,813.7734000338241,485.87549639999634,486.7052725299669,486.7153145999764,488.68064242996627,EMOCONPILOT004,2020_Dec_15_1203,EmoCon_Pilot_120Hz,2020.2.4,119.99990405522507,
,,,,1,0,1,0,31,0,31,0,,,,,,,,,,,,,,,,,,,,,,,,,,,,,,,,,,,,,,,,,,,,,,31,5.0,m,027_o_m_h_a.jpg,happy,d,17,2,488.6847102000029,488.9806531299779,489.2012043999857,489.3722149299516,489.37419339996995,489.4102265299822,489.40984539996134,489.6881552299543,d,1,0.26347289996920153,263.47289996920153,489.40984539996134,489.6881552299543,489.70066049997695,491.18083102994717,EMOCONPILOT004,2020_Dec_15_1203,EmoCon_Pilot_120Hz,2020.2.4,119.99990405522507,
,,,,1,0,1,0,32,0,32,0,,,,,,,,,,,,,,,,,,,,,,,,,,,,,,,,,,,,,,,,,,,,,,32,9.0,f,021_o_f_n_a.jpg,neutral,s,17,2,491.18603290000465,491.4807315299928,491.6928734999965,491.85253743000214,491.8564137999783,491.8970711299859,491.9021444999962,492.4798130299838,s,1,0.5631797999958508,563.1797999958508,491.9021444999962,492.4798130299838,492.490265099972,493.7724082299916,EMOCONPILOT004,2020_Dec_15_1203,EmoCon_Pilot_120Hz,2020.2.4,119.99990405522507,
,,,,1,0,1,0,33,0,33,0,,,,,,,,,,,,,,,,,,,,,,,,,,,,,,,,,,,,,,,,,,,,,,33,3.0,m,013_y_m_s_a.jpg,sad,a,17,2,493.77765179995913,494.07240302999855,494.09729389997665,494.2324308299518,494.2367624999606,494.2776877299708,494.2830330999568,494.80077092995054,a,1,0.5103030999889597,510.30309998895973,494.2830330999568,494.80077092995054,494.812545599998,496.197458729957,EMOCONPILOT004,2020_Dec_15_1203,EmoCon_Pilot_120Hz,2020.2.4,119.99990405522507,
,,,,1,0,1,0,34,0,34,0,,,,,,,,,,,,,,,,,,,,,,,,,,,,,,,,,,,,,,,,,,,,,,34,1.0,m,004_o_m_n_a.jpg,neutral,s,17,2,496.2015686999657,496.49747482995156,496.70736820000457,496.87768012994786,496.88173349999124,496.9226068299555,496.92762639996363,497.6801324299828,a,0,0.7376074999920093,737.6074999920093,496.92762639996363,497.6801324299828,497.6913735999842,499.15582572999995,EMOCONPILOT004,2020_Dec_15_1203,EmoCon_Pilot_120Hz,2020.2.4,119.99990405522507,
,,,,1,0,1,0,35,0,35,0,,,,,,,,,,,,,,,,,,,,,,,,,,,,,,,,,,,,,,,,,,,,,,35,12.0,f,040_y_f_h_a.jpg,happy,d,17,2,499.158953199978,499.4559215299611,499.47829769999953,499.61585692996744,499.61920019995887,499.65708522998614,499.6606335999677,500.4268452299817,d,1,0.7565399999730289,756.5399999730289,499.6606335999677,500.4268452299817,500.43520649999846,501.86430112999517,EMOCONPILOT004,2020_Dec_15_1203,EmoCon_Pilot_120Hz,2020.2.4,119.99990405522507,
,,,,1,0,1,0,36,0,36,0,,,,,,,,,,,,,,,,,,,,,,,,,,,,,,,,,,,,,,,,,,,,,,36,10.0,f,028_y_f_n_a.jpg,neutral,s,17,2,501.86843699996825,502.16426142997227,502.3745226999745,502.53847392997125,502.5432467999635,502.5846417299996,502.58874929999,503.34067632996596,s,1,0.7405851000221446,740.5851000221446,502.58874929999,503.34067632996596,503.3522821999504,505.00595922994546,EMOCONPILOT004,2020_Dec_15_1203,EmoCon_Pilot_120Hz,2020.2.4,119.99990405522507,
,,,,1,0,1,0,37,0,37,0,,,,,,,,,,,,,,,,,,,,,,,,,,,,,,,,,,,,,,,,,,,,,,37,11.0,f,030_o_f_n_a.jpg,neutral,s,2,2,505.009972299973,505.30596542998103,505.5085777999484,505.52628992997927,505.5271190999774,505.5627672299685,505.5624570999644,506.6208553299599,s,1,1.0467605000012554,1046.7605000012554,505.5624570999644,506.6208553299599,506.62986059999093,508.3560934299545,EMOCONPILOT004,2020_Dec_15_1203,EmoCon_Pilot_120Hz,2020.2.4,119.99990405522507,
,,,,1,0,1,0,38,0,38,0,,,,,,,,,,,,,,,,,,,,,,,,,,,,,,,,,,,,,,,,,,,,,,38,1.0,m,004_o_m_h_a.jpg,happy,d,17,2,508.36015029996634,508.65605832996664,508.85952860000543,509.01863812998056,509.0230821999721,509.06381123000176,509.06883809994906,509.4650493299647,d,1,0.3883690999937244,388.3690999937244,509.06883809994906,509.4650493299647,509.4777140999795,511.4478805299674,EMOCONPILOT004,2020_Dec_15_1203,EmoCon_Pilot_120Hz,2020.2.4,119.99990405522507,
,,,,1,0,1,0,39,0,39,0,,,,,,,,,,,,,,,,,,,,,,,,,,,,,,,,,,,,,,,,,,,,,,39,6.0,m,033_o_m_h_a.jpg,happy,d,17,2,511.45213059999514,511.7478317299916,511.7694382999907,511.90778112998817,511.9111888000043,511.9494611299539,511.95253989996854,512.2752160299511,d,1,0.3126710000215098,312.6710000215098,511.95253989996854,512.2752160299511,512.2874678999651,514.0228994299483,EMOCONPILOT004,2020_Dec_15_1203,EmoCon_Pilot_120Hz,2020.2.4,119.99990405522507,
,,,,1,0,1,0,40,0,40,0,,,,,,,,,,,,,,,,,,,,,,,,,,,,,,,,,,,,,,,,,,,,,,40,7.0,f,012_o_f_h_a.jpg,happy,d,17,2,514.0282431999804,514.322924629954,514.3469604999991,514.4828209299536,514.4862044999609,514.5272409300029,514.5316102999495,514.8900353299629,d,1,0.3416931999963708,341.6931999963708,514.5316102999495,514.8900353299629,514.9012503999984,516.3478971300007,EMOCONPILOT004,2020_Dec_15_1203,EmoCon_Pilot_120Hz,2020.2.4,119.99990405522507,
,,,,1,0,1,0,41,0,41,0,,,,,,,,,,,,,,,,,,,,,,,,,,,,,,,,,,,,,,,,,,,,,,41,6.0,m,033_o_m_n_a.jpg,neutral,s,2,2,516.351843899989,516.6478544299549,516.8578228999977,516.8753998299886,516.8762343999697,516.9119912299735,516.9117476999527,518.2148303299851,d,0,1.289406299998518,1289.406299998518,516.9117476999527,518.2148303299851,518.2178235999891,520.1229652299604,EMOCONPILOT004,2020_Dec_15_1203,EmoCon_Pilot_120Hz,2020.2.4,119.99990405522507,
,,,,1,0,1,0,42,0,42,0,,,,,,,,,,,,,,,,,,,,,,,,,,,,,,,,,,,,,,,,,,,,,,42,7.0,f,012_o_f_h_a.jpg,happy,d,17,2,520.1270937999943,520.4230627299927,520.4524028999731,520.5829888299864,520.5864166999818,520.627456729993,520.6327442000038,520.9913845299685,d,1,0.34441929997410625,344.41929997410625,520.6327442000038,520.9913845299685,520.9935918999836,522.4647032299487,EMOCONPILOT004,2020_Dec_15_1203,EmoCon_Pilot_120Hz,2020.2.4,119.99990405522507,
,,,,1,0,1,0,43,0,43,0,,,,,,,,,,,,,,,,,,,,,,,,,,,,,,,,,,,,,,,,,,,,,,43,5.0,m,027_o_m_h_a.jpg,happy,d,17,2,522.4703319999971,522.7645166299714,522.9690937999985,523.1370236299641,523.1371357999742,523.1741664299567,523.1747333999956,523.6166315299866,d,1,0.42637189995730296,426.37189995730296,523.1747333999956,523.6166315299866,523.6223457999877,525.4313429299451,EMOCONPILOT004,2020_Dec_15_1203,EmoCon_Pilot_120Hz,2020.2.4,119.99990405522507,
,,,,1,0,1,0,44,0,44,0,,,,,,,,,,,,,,,,,,,,,,,,,,,,,,,,,,,,,,,,,,,,,,44,10.0,f,028_y_f_s_a.jpg,sad,a,17,2,525.4317550999695,525.7315566299891,525.7557664999622,525.8914786299516,525.8961841999553,525.9369037299708,525.9422018000041,526.7053429299791,a,1,0.7471369000268169,747.1369000268169,525.9422018000041,526.7053429299791,526.7164468999836,527.8315658299776,EMOCONPILOT004,2020_Dec_15_1203,EmoCon_Pilot_120Hz,2020.2.4,119.99990405522507,
,,,,1,0,1,0,45,0,45,0,,,,,,,,,,,,,,,,,,,,,,,,,,,,,,,,,,,,,,,,,,,,,,45,7.0,f,012_o_f_n_a.jpg,neutral,s,17,2,527.8343875999562,528.1314736299624,528.3489809999592,528.513484729972,528.5166188000003,528.5546095299593,528.5584630999947,528.9925177299825,s,1,0.41896229999838397,418.96229999838397,528.5584630999947,528.9925177299825,529.0031488999957,530.1733032299613,EMOCONPILOT004,2020_Dec_15_1203,EmoCon_Pilot_120Hz,2020.2.4,119.99990405522507,
,,,,1,0,1,0,46,0,46,0,,,,,,,,,,,,,,,,,,,,,,,,,,,,,,,,,,,,,,,,,,,,,,46,1.0,m,004_o_m_n_a.jpg,neutral,s,17,2,530.1788188999635,530.4733001299843,530.6630973999854,530.8225763299794,530.827467199997,530.8686106299807,530.8729179999791,531.2987143299484,s,1,0.41638210002565756,416.38210002565756,530.8729179999791,531.2987143299484,531.3105427999981,532.4149461299472,EMOCONPILOT004,2020_Dec_15_1203,EmoCon_Pilot_120Hz,2020.2.4,119.99990405522507,
,,,,1,0,1,0,47,0,47,0,,,,,,,,,,,,,,,,,,,,,,,,,,,,,,,,,,,,,,,,,,,,,,47,9.0,f,021_o_f_h_a.jpg,happy,d,17,2,532.4189252999495,532.7148650299583,532.927910999977,533.0986002299993,533.1032128999941,533.1442807299842,533.1485930999625,533.6477252299607,d,1,0.4846696999738924,484.6696999738924,533.1485930999625,533.6477252299607,533.6591520999791,535.281598629948,EMOCONPILOT004,2020_Dec_15_1203,EmoCon_Pilot_120Hz,2020.2.4,119.99990405522507,
,,,,1,0,1,0,48,0,48,0,,,,,,,,,,,,,,,,,,,,,,,,,,,,,,,,,,,,,,,,,,,,,,48,10.0,f,028_y_f_n_a.jpg,neutral,s,17,2,535.2855934999534,535.5815990299976,535.783911699953,535.9505772299541,535.9550680999528,535.9957614300016,536.0008702999912,536.3862890299584,s,1,0.3764035000349395,376.4035000349395,536.0008702999912,536.3862890299584,536.3982649999671,537.623434629984,EMOCONPILOT004,2020_Dec_15_1203,EmoCon_Pilot_120Hz,2020.2.4,119.99990405522507,
,,,,1,0,1,0,49,0,49,0,,,,,,,,,,,,,,,,,,,,,,,,,,,,,,,,,,,,,,,,,,,,,,49,7.0,f,012_o_f_h_a.jpg,happy,d,17,2,537.6294821999618,537.9234187299677,537.9469064999721,538.0833679299627,538.0871021999628,538.1259466299613,538.1291534999618,538.6432675299526,d,1,0.5041101999813691,504.1101999813691,538.1291534999618,538.6432675299526,538.6541492999531,539.7566691299959,EMOCONPILOT004,2020_Dec_15_1203,EmoCon_Pilot_120Hz,2020.2.4,119.99990405522507,
,,,,1,0,1,0,50,0,50,0,,,,,,,,,,,,,,,,,,,,,,,,,,,,,,,,,,,,,,,,,,,,,,50,5.0,m,027_o_m_h_a.jpg,happy,d,17,2,539.7596407999517,540.0566819299653,540.2670340999612,540.4295045299747,540.4328803999815,540.4700765300018,540.4740215999773,541.2609470299736,d,1,0.7753738999599591,775.3738999599591,540.4740215999773,541.2609470299736,541.2715072999708,543.2234779299994,EMOCONPILOT004,2020_Dec_15_1203,EmoCon_Pilot_120Hz,2020.2.4,119.99990405522507,
,,,,1,0,1,0,51,0,51,0,,,,,,,,,,,,,,,,,,,,,,,,,,,,,,,,,,,,,,,,,,,,,,51,12.0,f,040_y_f_n_a.jpg,neutral,s,17,2,543.228871899948,543.5235887299583,543.7438379999949,543.9035191299569,543.9085099999793,543.9495389299642,543.9545398000046,545.1126552299771,s,1,1.1427999999723397,1142.7999999723397,543.9545398000046,545.1126552299771,545.1242548999726,546.790221429948,EMOCONPILOT004,2020_Dec_15_1203,EmoCon_Pilot_120Hz,2020.2.4,119.99990405522507,
,,,,1,0,1,0,52,0,52,0,,,,,,,,,,,,,,,,,,,,,,,,,,,,,,,,,,,,,,,,,,,,,,52,2.0,m,008_y_m_h_a.jpg,happy,d,2,2,546.7957096999744,547.09022452996,547.1182858999819,547.1339989299828,547.1346868999535,547.1686714299664,547.1681785999681,548.0051072299772,d,1,0.8250390000175685,825.0390000175685,547.1681785999681,548.0051072299772,548.0134195999708,549.1486613299872,EMOCONPILOT004,2020_Dec_15_1203,EmoCon_Pilot_120Hz,2020.2.4,119.99990405522507,
,,,,1,0,1,0,53,0,53,0,,,,,,,,,,,,,,,,,,,,,,,,,,,,,,,,,,,,,,,,,,,,,,53,6.0,m,033_o_m_h_a.jpg,happy,d,2,2,549.1521347999806,549.4485849299759,549.4707820999902,549.485875529988,549.4867259999737,549.5247660299589,549.5249109999859,550.5758930299722,d,1,1.0363582000136375,1036.3582000136375,549.5249109999859,550.5758930299722,550.5885612999555,551.590334829985,EMOCONPILOT004,2020_Dec_15_1203,EmoCon_Pilot_120Hz,2020.2.4,119.99990405522507,
,,,,1,0,1,0,54,0,54,0,,,,,,,,,,,,,,,,,,,,,,,,,,,,,,,,,,,,,,,,,,,,,,54,2.0,m,008_y_m_h_a.jpg,happy,d,2,2,551.5955854999484,551.890425729967,551.9156385999522,551.930839829956,551.9309866999974,551.9668342299934,551.9664605999715,553.2044698299666,d,1,1.2268729000352323,1226.8729000352323,551.9664605999715,553.2044698299666,553.2139662999543,555.0653650299588,EMOCONPILOT004,2020_Dec_15_1203,EmoCon_Pilot_120Hz,2020.2.4,119.99990405522507,
,,,,1,0,1,0,55,0,55,0,,,,,,,,,,,,,,,,,,,,,,,,,,,,,,,,,,,,,,,,,,,,,,55,12.0,f,040_y_f_h_a.jpg,happy,d,17,2,555.0688556999667,555.3653561299958,555.3815302999574,555.5169001299597,555.5198898999952,555.5583299299993,555.5611531999893,556.3359825299646,d,1,0.7600671999971382,760.0671999971382,555.5611531999893,556.3359825299646,556.3435627999716,557.4237333299767,EMOCONPILOT004,2020_Dec_15_1203,EmoCon_Pilot_120Hz,2020.2.4,119.99990405522507,
,,,,1,0,1,0,56,0,56,0,,,,,,,,,,,,,,,,,,,,,,,,,,,,,,,,,,,,,,,,,,,,,,56,10.0,f,028_y_f_n_a.jpg,neutral,s,17,2,557.4269399999757,557.7238191299781,557.9352617999539,558.0906608299643,558.0935551999719,558.1311595299572,558.1341819999507,558.6173896299966,s,1,0.47527569998055696,475.27569998055696,558.1341819999507,558.6173896299966,558.6277727999841,559.6904299299873,EMOCONPILOT004,2020_Dec_15_1203,EmoCon_Pilot_120Hz,2020.2.4,119.99990405522507,
,,,,1,0,1,0,57,0,57,0,,,,,,,,,,,,,,,,,,,,,,,,,,,,,,,,,,,,,,,,,,,,,,57,12.0,f,040_y_f_s_a.jpg,sad,a,17,2,559.6934467999963,559.9905469299935,560.0067680999637,560.1420775299717,560.1451476999791,560.184183029976,560.1882855999866,561.005830129952,a,1,0.805350599985104,805.350599985104,560.1882855999866,561.005830129952,561.0145197999664,562.8154381299915,EMOCONPILOT004,2020_Dec_15_1203,EmoCon_Pilot_120Hz,2020.2.4,119.99990405522507,
,,,,1,0,1,0,58,0,58,0,,,,,,,,,,,,,,,,,,,,,,,,,,,,,,,,,,,,,,,,,,,,,,58,5.0,m,027_o_m_n_a.jpg,neutral,s,17,2,562.8182514999644,563.1154258300027,563.338757999998,563.4982820299862,563.5030149999657,563.5447709299566,563.5498976999661,565.0122584299476,s,1,1.4513796999817714,1451.3796999817714,563.5498976999661,565.0122584299476,565.0241958999541,566.6822454299487,EMOCONPILOT004,2020_Dec_15_1203,EmoCon_Pilot_120Hz,2020.2.4,119.99990405522507,
,,,,1,0,1,0,59,0,59,0,,,,,,,,,,,,,,,,,,,,,,,,,,,,,,,,,,,,,,,,,,,,,,59,4.0,m,016_y_m_s_a.jpg,sad,a,2,2,566.6851227000006,566.9822037299688,567.0032875000034,567.0190533299989,567.0198744999943,567.0541944299999,567.053893699951,568.6420706299774,None,0,,,567.053893699951,568.6420706299774,568.6476212999551,569.7739979299892,EMOCONPILOT004,2020_Dec_15_1203,EmoCon_Pilot_120Hz,2020.2.4,119.99990405522507,
,,,,1,0,1,0,60,0,60,0,,,,,,,,,,,,,,,,,,,,,,,,,,,,,,,,,,,,,,,,,,,,,,60,5.0,m,027_o_m_n_a.jpg,neutral,s,2,2,569.7781655999715,570.0739951299562,570.2922618999728,570.3094443299866,570.3094114999985,570.3436694299977,570.3446434999933,571.9663275299769,None,0,,,570.3446434999933,571.9663275299769,571.9701519999653,573.1825221299601,EMOCONPILOT004,2020_Dec_15_1203,EmoCon_Pilot_120Hz,2020.2.4,119.99990405522507,
,,,,1,0,1,0,61,0,61,0,,,,,,,,,,,,,,,,,,,,,,,,,,,,,,,,,,,,,,,,,,,,,,61,10.0,f,028_y_f_s_a.jpg,sad,a,17,2,573.1881666999543,573.4825358299946,573.5065624999697,573.6424335299467,573.6472933999612,573.6878009299922,573.693050599948,574.5227644299681,s,0,0.8200969999888912,820.0969999888912,573.693050599948,574.5227644299681,574.5312808000017,576.0409299299878,EMOCONPILOT004,2020_Dec_15_1203,EmoCon_Pilot_120Hz,2020.2.4,119.99990405522507,
,,,,1,0,1,0,62,0,62,0,,,,,,,,,,,,,,,,,,,,,,,,,,,,,,,,,,,,,,,,,,,,,,62,3.0,m,013_y_m_n_a.jpg,neutral,s,2,2,576.0465447999886,576.3408621299837,576.5867232999881,576.6040927299706,576.6045240999665,576.6420532299613,576.6417405999964,578.05971602996,a,0,1.4074548000353388,1407.4548000353388,576.6417405999964,578.05971602996,578.0671787000028,580.049300229986,EMOCONPILOT004,2020_Dec_15_1203,EmoCon_Pilot_120Hz,2020.2.4,119.99990405522507,
,,,,1,0,1,0,63,0,63,0,,,,,,,,,,,,,,,,,,,,,,,,,,,,,,,,,,,,,,,,,,,,,,63,4.0,m,016_y_m_s_a.jpg,sad,a,2,2,580.0543824999477,580.3492316299759,580.3656117999926,580.3808417299821,580.3816109999898,580.4171108299576,580.4176572999568,582.0458874299599,None,0,,,580.4176572999568,582.0458874299599,582.050630099955,583.7993584299635,EMOCONPILOT004,2020_Dec_15_1203,EmoCon_Pilot_120Hz,2020.2.4,119.99990405522507,
,,,,1,0,1,0,64,0,64,0,,,,,,,,,,,,,,,,,,,,,,,,,,,,,,,,,,,,,,,,,,,,,,64,12.0,f,040_y_f_h_a.jpg,happy,d,2,2,583.804914599983,584.0994396299881,584.1239064999972,584.1401388299943,584.141916499997,584.1793560299499,584.1810897999676,584.7827002299542,d,1,0.588137699989602,588.137699989602,584.1810897999676,584.7827002299542,584.7911134999595,586.5076722299506,EMOCONPILOT004,2020_Dec_15_1203,EmoCon_Pilot_120Hz,2020.2.4,119.99990405522507,
,,,,1,0,1,0,65,0,65,0,,,,,,,,,,,,,,,,,,,,,,,,,,,,,,,,,,,,,,,,,,,,,,65,5.0,m,027_o_m_n_a.jpg,neutral,s,2,2,586.5121518999804,586.8076778299816,587.0289152999758,587.0462030299765,587.0466598999919,587.0839868299605,587.0840176999918,588.1191904299718,a,0,1.02115089999279,1021.1508999927901,587.0840176999918,588.1191904299718,588.1268304999685,590.0995624299918,EMOCONPILOT004,2020_Dec_15_1203,EmoCon_Pilot_120Hz,2020.2.4,119.99990405522507,
,,,,1,0,1,0,66,0,66,0,,,,,,,,,,,,,,,,,,,,,,,,,,,,,,,,,,,,,,,,,,,,,,66,6.0,m,033_o_m_s_a.jpg,sad,a,17,2,590.1050973999663,590.3995474299824,590.4247124999529,590.5594229299983,590.562402099953,590.6007525299734,590.6037368999678,591.5775134299707,a,1,0.9575389999663457,957.5389999663457,590.6037368999678,591.5775134299707,591.5837269999902,592.6994895299955,EMOCONPILOT004,2020_Dec_15_1203,EmoCon_Pilot_120Hz,2020.2.4,119.99990405522507,
,,,,1,0,1,0,67,0,67,0,,,,,,,,,,,,,,,,,,,,,,,,,,,,,,,,,,,,,,,,,,,,,,67,6.0,m,033_o_m_h_a.jpg,happy,d,17,2,592.7023908999981,592.9994110299682,593.020700699999,593.1512239300006,593.1531129999785,593.1923854299763,593.1947044999688,593.7122963299568,d,1,0.5025912000564858,502.59120005648583,593.1947044999688,593.7122963299568,593.7194382000016,595.2578620299988,EMOCONPILOT004,2020_Dec_15_1203,EmoCon_Pilot_120Hz,2020.2.4,119.99990405522507,
,,,,1,0,1,0,68,0,68,0,,,,,,,,,,,,,,,,,,,,,,,,,,,,,,,,,,,,,,,,,,,,,,68,2.0,m,008_y_m_s_a.jpg,sad,a,2,2,595.2610278999782,595.5579470299941,595.8044680999592,595.8208794299804,595.8215701999725,595.8589177299815,595.859045899997,596.786120229977,a,1,0.9103725000168197,910.3725000168197,595.859045899997,596.786120229977,596.7961740999599,597.8996951300011,EMOCONPILOT004,2020_Dec_15_1203,EmoCon_Pilot_120Hz,2020.2.4,119.99990405522507,
,,,,1,0,1,0,69,0,69,0,,,,,,,,,,,,,,,,,,,,,,,,,,,,,,,,,,,,,,,,,,,,,,69,1.0,m,004_o_m_n_a.jpg,neutral,s,17,2,597.9051554999896,598.1996935299773,598.4078152999864,598.5683076299553,598.5720885999617,598.6130466299888,598.6182654000004,599.4766299299605,s,1,0.8469180000247434,846.9180000247434,598.6182654000004,599.4766299299605,599.4828412999632,601.3830407299625,EMOCONPILOT004,2020_Dec_15_1203,EmoCon_Pilot_120Hz,2020.2.4,119.99990405522507,
,,,,1,0,1,0,70,0,70,0,,,,,,,,,,,,,,,,,,,,,,,,,,,,,,,,,,,,,,,,,,,,,,70,2.0,m,008_y_m_s_a.jpg,sad,a,17,2,601.3884068999905,601.6830200299679,601.9120931999641,602.070003329945,602.0737859999645,602.1143810299633,602.1193029999849,602.8807998299541,a,1,0.7460329000023194,746.0329000023194,602.1193029999849,602.8807998299541,602.8922874999698,604.8164191299526,EMOCONPILOT004,2020_Dec_15_1203,EmoCon_Pilot_120Hz,2020.2.4,119.99990405522507,
,,,,1,0,1,0,71,0,71,0,,,,,,,,,,,,,,,,,,,,,,,,,,,,,,,,,,,,,,,,,,,,,,71,11.0,f,030_o_f_n_a.jpg,neutral,s,17,2,604.8178583999979,605.1164705299831,605.3095472999848,605.4716487299826,605.4762741999584,605.5174474299944,605.5225839999621,606.1633829299768,s,1,0.6306533999741077,630.6533999741077,605.5225839999621,606.1633829299768,606.1749816999654,607.9498334299948,EMOCONPILOT004,2020_Dec_15_1203,EmoCon_Pilot_120Hz,2020.2.4,119.99990405522507,
,,,,1,0,1,0,72,0,72,0,,,,,,,,,,,,,,,,,,,,,,,,,,,,,,,,,,,,,,,,,,,,,,72,11.0,f,030_o_f_n_a.jpg,neutral,s,2,2,607.9552096999832,608.2497898300004,608.4476578999893,608.4646572299476,608.4650909999618,608.5009083299607,608.5010412999545,609.87060833,s,1,1.3562005000421777,1356.2005000421777,608.5010412999545,609.87060833,609.8768230999704,611.8416799299827,EMOCONPILOT004,2020_Dec_15_1203,EmoCon_Pilot_120Hz,2020.2.4,119.99990405522507,
,,,,1,0,1,0,73,0,73,0,,,,,,,,,,,,,,,,,,,,,,,,,,,,,,,,,,,,,,,,,,,,,,73,2.0,m,008_y_m_s_a.jpg,sad,a,2,2,611.8471523000044,612.141682029987,612.3797799999593,612.3967168299656,612.3972298000008,612.4344543299463,612.4356427000021,613.2188532300003,a,1,0.7736255000345409,773.6255000345409,612.4356427000021,613.2188532300003,613.2295371999498,614.3583124299709,EMOCONPILOT004,2020_Dec_15_1203,EmoCon_Pilot_120Hz,2020.2.4,119.99990405522507,
,,,,1,0,1,0,74,0,74,0,,,,,,,,,,,,,,,,,,,,,,,,,,,,,,,,,,,,,,,,,,,,,,74,11.0,f,030_o_f_n_a.jpg,neutral,s,17,2,614.3623833999736,614.6582544299832,614.8588876999565,615.0144350299903,615.0175812999951,615.0551164299774,615.0580852999701,615.4580935299688,s,1,0.39115189999574795,391.15189999574795,615.0580852999701,615.4580935299688,615.4671153999516,617.2584331299819,EMOCONPILOT004,2020_Dec_15_1203,EmoCon_Pilot_120Hz,2020.2.4,119.99990405522507,
,,,,1,0,1,0,75,0,75,0,,,,,,,,,,,,,,,,,,,,,,,,,,,,,,,,,,,,,,,,,,,,,,75,1.0,m,004_o_m_s_a.jpg,sad,a,2,2,617.2627276999992,617.5584318299603,617.5812419999857,617.596602129977,617.5966293999809,617.6345698299643,617.6346732999664,618.7393919299881,a,1,1.094543200044427,1094.543200044427,617.6346732999664,618.7393919299881,618.7478293000022,620.3917532299471,EMOCONPILOT004,2020_Dec_15_1203,EmoCon_Pilot_120Hz,2020.2.4,119.99990405522507,
,,,,1,0,1,0,76,0,76,0,,,,,,,,,,,,,,,,,,,,,,,,,,,,,,,,,,,,,,,,,,,,,,76,3.0,m,013_y_m_n_a.jpg,neutral,s,17,2,620.3970802999684,620.6918269299728,620.9312680999865,621.091951229953,621.0968629999552,621.1364651299606,621.1409052999807,621.7405353299633,s,1,0.5884942000266165,588.4942000266165,621.1409052999807,621.7405353299633,621.75210589997,622.8417685299588,EMOCONPILOT004,2020_Dec_15_1203,EmoCon_Pilot_120Hz,2020.2.4,119.99990405522507,
,,,,1,0,1,0,77,0,77,0,,,,,,,,,,,,,,,,,,,,,,,,,,,,,,,,,,,,,,,,,,,,,,77,7.0,f,012_o_f_s_a.jpg,sad,a,2,2,622.8457274999819,623.1417599299981,623.16518489999,623.1800922299677,623.1804893999943,623.2179047299957,623.2177162999869,624.473226429947,d,0,1.2477356999879703,1247.7356999879703,623.2177162999869,624.473226429947,624.4841300999979,626.058609829977,EMOCONPILOT004,2020_Dec_15_1203,EmoCon_Pilot_120Hz,2020.2.4,119.99990405522507,
,,,,1,0,1,0,78,0,78,0,,,,,,,,,,,,,,,,,,,,,,,,,,,,,,,,,,,,,,,,,,,,,,78,12.0,f,040_y_f_n_a.jpg,neutral,s,2,2,626.0639776999597,626.3584956299688,626.5799387999577,626.5968606299663,626.5972448999528,626.6347802299948,626.6349831999978,627.4165051300021,s,1,0.7664050000021234,766.4050000021234,626.6349831999978,627.4165051300021,627.4248016999918,628.4419334299688,EMOCONPILOT004,2020_Dec_15_1203,EmoCon_Pilot_120Hz,2020.2.4,119.99990405522507,
,,,,1,0,1,0,79,0,79,0,,,,,,,,,,,,,,,,,,,,,,,,,,,,,,,,,,,,,,,,,,,,,,79,6.0,m,033_o_m_h_a.jpg,happy,d,17,2,628.4461235999479,628.7418138299778,628.7621591999778,628.8936516299669,628.8968974999734,628.9348816299986,628.9379262999864,629.3936917299812,d,1,0.44720920000690967,447.20920000690967,628.9379262999864,629.3936917299812,629.3984456000035,631.016969229962,EMOCONPILOT004,2020_Dec_15_1203,EmoCon_Pilot_120Hz,2020.2.4,119.99990405522507,
,,,,1,0,1,0,80,0,80,0,,,,,,,,,,,,,,,,,,,,,,,,,,,,,,,,,,,,,,,,,,,,,,80,2.0,m,008_y_m_n_a.jpg,neutral,s,17,2,631.0207926000003,631.3169141299965,631.5453952999669,631.7069100299792,631.7116339999484,631.7524649299972,631.757474699989,632.4270886299724,s,1,0.6599450000212528,659.9450000212528,631.757474699989,632.4270886299724,632.434427799948,633.7087469299964,EMOCONPILOT004,2020_Dec_15_1203,EmoCon_Pilot_120Hz,2020.2.4,119.99990405522507,
,,,,1,0,1,0,81,0,81,0,,,,,,,,,,,,,,,,,,,,,,,,,,,,,,,,,,,,,,,,,,,,,,81,12.0,f,040_y_f_h_a.jpg,happy,d,2,2,633.7132826999878,634.0086396299827,634.0196709999582,634.0349148299953,634.0365528999828,634.0716655299708,634.0713113999809,635.7238107299723,None,0,,,634.0713113999809,635.7238107299723,635.7295082999626,637.2004350299773,EMOCONPILOT004,2020_Dec_15_1203,EmoCon_Pilot_120Hz,2020.2.4,119.99990405522507,
,,,,1,0,1,0,82,0,82,0,,,,,,,,,,,,,,,,,,,,,,,,,,,,,,,,,,,,,,,,,,,,,,82,9.0,f,021_o_f_h_a.jpg,happy,d,2,2,637.2065217999625,637.5004428299668,637.714513999992,637.7312305299507,637.7321634999826,637.7683916299662,637.7683371999883,638.4334546299593,d,1,0.6490491000004113,649.0491000004113,637.7683371999883,638.4334546299593,638.4418843999738,639.8838493299496,EMOCONPILOT004,2020_Dec_15_1203,EmoCon_Pilot_120Hz,2020.2.4,119.99990405522507,
,,,,1,0,1,0,83,0,83,0,,,,,,,,,,,,,,,,,,,,,,,,,,,,,,,,,,,,,,,,,,,,,,83,6.0,m,033_o_m_h_a.jpg,happy,d,2,2,639.8892552999896,640.1838434299513,640.2051165999728,640.2201208299899,640.220738999953,640.2562210299599,640.2565719999839,640.7947369299887,d,1,0.528664099983871,528.664099983871,640.2565719999839,640.7947369299887,640.8030455999542,642.7755666300014,EMOCONPILOT004,2020_Dec_15_1203,EmoCon_Pilot_120Hz,2020.2.4,119.99990405522507,
,,,,1,0,1,0,84,0,84,0,,,,,,,,,,,,,,,,,,,,,,,,,,,,,,,,,,,,,,,,,,,,,,84,2.0,m,008_y_m_n_a.jpg,neutral,s,2,2,642.7803468999919,643.0754717299657,643.3126007999526,643.3294197299925,643.3296612999984,643.3652624299808,643.364898699976,644.296713829966,s,1,0.9242327999672852,924.2327999672852,643.364898699976,644.296713829966,644.3043762999587,645.6422522299632,EMOCONPILOT004,2020_Dec_15_1203,EmoCon_Pilot_120Hz,2020.2.4,119.99990405522507,
,,,,1,0,1,0,85,0,85,0,,,,,,,,,,,,,,,,,,,,,,,,,,,,,,,,,,,,,,,,,,,,,,85,10.0,f,028_y_f_n_a.jpg,neutral,s,2,2,645.6453515999601,645.9422428299964,646.1426289999508,646.1598596299824,646.1627154999878,646.2022635299887,646.2073444999987,646.890473429981,s,1,0.6660441000130959,666.0441000130959,646.2073444999987,646.890473429981,646.9007749999873,648.7923139299907,EMOCONPILOT004,2020_Dec_15_1203,EmoCon_Pilot_120Hz,2020.2.4,119.99990405522507,
,,,,1,0,1,0,86,0,86,0,,,,,,,,,,,,,,,,,,,,,,,,,,,,,,,,,,,,,,,,,,,,,,86,6.0,m,033_o_m_h_a.jpg,happy,d,2,2,648.7964675999829,649.0923205299711,649.1054284999846,649.1207269299717,649.1213543000049,649.1559939300001,649.1577026000014,649.7233546299918,d,1,0.5557276000035927,555.7276000035927,649.1577026000014,649.7233546299918,649.7349332000013,650.9674543300004,EMOCONPILOT004,2020_Dec_15_1203,EmoCon_Pilot_120Hz,2020.2.4,119.99990405522507,
,,,,1,0,1,0,87,0,87,0,,,,,,,,,,,,,,,,,,,,,,,,,,,,,,,,,,,,,,,,,,,,,,87,5.0,m,027_o_m_s_a.jpg,sad,a,17,2,650.9733868999756,651.2673916299769,651.2906966999872,651.4274161299633,651.4309359999606,651.4686043299677,651.4720554999658,651.94257702998,a,1,0.4573786999681033,457.3786999681033,651.4720554999658,651.94257702998,651.9516664999537,653.8341767299513,EMOCONPILOT004,2020_Dec_15_1203,EmoCon_Pilot_120Hz,2020.2.4,119.99990405522507,
,,,,1,0,1,0,88,0,88,0,,,,,,,,,,,,,,,,,,,,,,,,,,,,,,,,,,,,,,,,,,,,,,88,7.0,f,012_o_f_s_a.jpg,sad,a,17,2,653.8383536000038,654.1340592299763,654.1573995999643,654.2940358299471,654.2967930999584,654.3352530299977,654.3379934999975,654.6658727299597,a,1,0.31139669998083264,311.39669998083264,654.3379934999975,654.6658727299597,654.6740826999885,656.6590007299616,EMOCONPILOT004,2020_Dec_15_1203,EmoCon_Pilot_120Hz,2020.2.4,119.99990405522507,
,,,,1,0,1,0,89,0,89,0,,,,,,,,,,,,,,,,,,,,,,,,,,,,,,,,,,,,,,,,,,,,,,89,2.0,m,008_y_m_h_a.jpg,happy,d,17,2,656.6591553000035,656.9592425299867,656.9794004999567,657.1109536300006,657.1145370999584,657.1554446299502,657.1596451999503,657.6986905299651,d,1,0.5296846000128426,529.6846000128426,657.1596451999503,657.6986905299651,657.7095457999967,659.1176133299538,EMOCONPILOT004,2020_Dec_15_1203,EmoCon_Pilot_120Hz,2020.2.4,119.99990405522507,
,,,,1,0,1,0,90,0,90,0,,,,,,,,,,,,,,,,,,,,,,,,,,,,,,,,,,,,,,,,,,,,,,90,7.0,f,012_o_f_h_a.jpg,happy,d,2,2,659.1237375999917,659.4175662299909,659.4419953000033,659.4573202299595,659.4590870999964,659.4962740299467,659.4979545999668,660.3548095299572,d,1,0.8473897000076249,847.3897000076249,659.4979545999668,660.3548095299572,660.3620036999928,661.3676055299526,EMOCONPILOT004,2020_Dec_15_1203,EmoCon_Pilot_120Hz,2020.2.4,119.99990405522507,
,,,,1,0,1,0,91,0,91,0,,,,,,,,,,,,,,,,,,,,,,,,,,,,,,,,,,,,,,,,,,,,,,91,10.0,f,028_y_f_s_a.jpg,sad,a,17,2,661.3731707999832,661.6676040299877,661.6925045999815,661.8276533299883,661.8321889999788,661.8729648299574,661.878165400005,662.3645739299769,a,1,0.47527350002201274,475.27350002201274,661.878165400005,662.3645739299769,662.3752124999883,664.1593216299603,EMOCONPILOT004,2020_Dec_15_1203,EmoCon_Pilot_120Hz,2020.2.4,119.99990405522507,
,,,,1,0,1,0,92,0,92,0,,,,,,,,,,,,,,,,,,,,,,,,,,,,,,,,,,,,,,,,,,,,,,92,12.0,f,040_y_f_s_a.jpg,sad,a,2,2,664.1644956999808,664.4594091299747,664.4836373999715,664.4987850299746,664.4996060999692,664.5354959299963,664.5368451999966,665.892456629948,d,0,1.3443423999706283,1344.3423999706283,664.5368451999966,665.892456629948,665.9029694999917,667.7761052299699,EMOCONPILOT004,2020_Dec_15_1203,EmoCon_Pilot_120Hz,2020.2.4,119.99990405522507,
,,,,1,0,1,0,93,0,93,0,,,,,,,,,,,,,,,,,,,,,,,,,,,,,,,,,,,,,,,,,,,,,,93,2.0,m,008_y_m_n_a.jpg,neutral,s,17,2,667.781524799997,668.0760640299937,668.3182640000014,668.4754570299934,668.4802749999799,668.5200568299566,668.5253335000016,669.2080795299786,s,1,0.6679028000216931,667.9028000216931,668.5253335000016,669.2080795299786,669.2139534999733,671.2012294299726,EMOCONPILOT004,2020_Dec_15_1203,EmoCon_Pilot_120Hz,2020.2.4,119.99990405522507,
,,,,1,0,1,0,94,0,94,0,,,,,,,,,,,,,,,,,,,,,,,,,,,,,,,,,,,,,,,,,,,,,,94,11.0,f,030_o_f_s_a.jpg,sad,a,17,2,671.2071115999715,671.5011576299963,671.6933633000008,671.8534834299877,671.8569070999511,671.8976187299646,671.9029815999675,672.29855293,a,1,0.38628749997587875,386.28749997587875,671.9029815999675,672.29855293,672.3104368999484,673.4762359299872,EMOCONPILOT004,2020_Dec_15_1203,EmoCon_Pilot_120Hz,2020.2.4,119.99990405522507,
