trials_example.thisRepN,trials_example.thisTrialN,trials_example.thisN,trials_example.thisIndex,block.thisRepN,block.thisTrialN,block.thisN,block.thisIndex,trials_study.thisRepN,trials_study.thisTrialN,trials_study.thisN,trials_study.thisIndex,text_welcome.started,text_welcome.stopped,text_intro.started,text_intro.stopped,key_resp_intro.keys,key_resp_intro.started,key_resp_intro.stopped,text_intro2.started,text_intro2.stopped,key_resp_intro2.keys,key_resp_intro2.started,key_resp_intro2.stopped,example trial,personPrimeExample,genderPrimeExample,primeExample,emotionPrimeExample,corrAnsPrimeExample,example mask time,fix300_example.started,fix300_example.stopped,image_primer_example.started,image_primer_example.stopped,scrambled.started,scrambled.stopped,text_response_example.started,text_response_example.stopped,key_resp_example.keys,key_resp_example.corr,key_resp_example.started,key_resp_example.stopped,Jitter_example.started,Jitter_example.stopped,key_resp_example.rt,key_resp_example.rt in ms,text_start.started,text_start.stopped,text_pause.started,text_pause.stopped,key_resp_pause.keys,key_resp_pause.rt,key_resp_pause.rt in ms,key_resp_pause.started,key_resp_pause.stopped,study trial,personPrimeStudy,genderPrimeStudy,primeStudy,emotionPrimeStudy,corrAnsPrimeStudy,study mask time,Block,fix300_study.started,fix300_study.stopped,image_primer_study.started,image_primer_study.stopped,scrambled_study.started,scrambled_study.stopped,text_response_study.started,text_response_study.stopped,key_resp_study.keys,key_resp_study.corr,key_resp_study.rt,key_resp_study.rt in ms,key_resp_study.started,key_resp_study.stopped,Jitter_study.started,Jitter_study.stopped,participant,date,expName,psychopyVersion,frameRate,
,,,,,,,,,,,,531.6505499,534.63838743,534.6436565000001,539.94256823,None,534.6436565000001,539.94256823,,,,,,,,,,,,,,,,,,,,,,,,,,,,,,,,,,,,,,,,,,,,,,,,,,,,,,,,,,,,,,EMOCONPILOT009,2020_Dec_12_1007,EmoCon_Pilot_120Hz,2020.2.4,120.25633841109189,
,,,,,,,,,,,,,,,,,,,539.9448774,545.72761313,None,539.9448774,545.72761313,,,,,,,,,,,,,,,,,,,,,,,,,,,,,,,,,,,,,,,,,,,,,,,,,,,,,,,,,EMOCONPILOT009,2020_Dec_12_1007,EmoCon_Pilot_120Hz,2020.2.4,120.25633841109189,
0,0,0,0,,,,,,,,,,,,,,,,,,,,,0,3.0,f,1113_y_f_s_a.jpg,sad,a,17,545.7336011,546.0218140300001,546.2518706000001,546.4202768299999,546.4370506,546.4733199299999,546.4753579999999,548.07943363,None,0,546.4753579999999,548.07943363,548.0828282,549.43864263,,,,,,,,,,,,,,,,,,,,,,,,,,,,,,,,,,,,EMOCONPILOT009,2020_Dec_12_1007,EmoCon_Pilot_120Hz,2020.2.4,120.25633841109189,
1,0,1,0,,,,,,,,,,,,,,,,,,,,,1,1.0,m,1111_m_m_s_a.jpg,sad,a,17,549.4413384,549.73860833,549.9417413000001,550.1010740300001,550.1033608,550.14169423,550.1438228,551.81723573,None,0,550.1438228,551.81723573,551.8180173999999,553.44702863,,,,,,,,,,,,,,,,,,,,,,,,,,,,,,,,,,,,EMOCONPILOT009,2020_Dec_12_1007,EmoCon_Pilot_120Hz,2020.2.4,120.25633841109189,
2,0,2,0,,,,,,,,,,,,,,,,,,,,,2,3.0,f,1113_y_f_n_a.jpg,neutral,s,17,553.4484383000001,553.7470133300001,553.9421563999999,554.1005989299999,554.1033231000001,554.1436376300001,554.1470472999999,555.88749263,None,0,554.1470472999999,555.88749263,555.8901978000001,557.2138003299999,,,,,,,,,,,,,,,,,,,,,,,,,,,,,,,,,,,,EMOCONPILOT009,2020_Dec_12_1007,EmoCon_Pilot_120Hz,2020.2.4,120.25633841109189,
3,0,3,0,,,,,,,,,,,,,,,,,,,,,3,2.0,f,1112_m_f_h_a.jpg,happy,d,17,557.2151054999999,557.51378643,557.7161851000001,557.88716783,557.8898523,557.93122973,557.9340929,558.75035353,d,1,557.9340929,558.75035353,558.7558596000001,559.9138283299999,0.808366999999862,808.366999999862,,,,,,,,,,,,,,,,,,,,,,,,,,,,,,,,,,EMOCONPILOT009,2020_Dec_12_1007,EmoCon_Pilot_120Hz,2020.2.4,120.25633841109189,
4,0,4,0,,,,,,,,,,,,,,,,,,,,,4,2.0,f,1112_m_f_n_a.jpg,neutral,s,17,559.9149074,560.21383133,560.4094087000001,560.5727081299999,560.5754344,560.61274123,560.6148716,561.28232213,s,1,560.6148716,561.28232213,561.2843087000001,562.57213323,0.655417800000123,655.417800000123,,,,,,,,,,,,,,,,,,,,,,,,,,,,,,,,,,EMOCONPILOT009,2020_Dec_12_1007,EmoCon_Pilot_120Hz,2020.2.4,120.25633841109189,
,,,,0,0,0,0,0,0,0,0,,,,,,,,,,,,,,,,,,,,,,,,,,,,,,,,,,,,562.6117813000001,565.6055689299999,565.6073017000001,569.5402204300001,g,3.919112999999925,3919.112999999925,565.6073017000001,569.5402204300001,0,8.0,f,019_m_f_s_a.jpg,sad,a,3,1,569.5452822,569.8389339299999,570.0910425,570.1176060299999,570.1190578000001,570.1566773300001,570.1575626000001,570.9015376299999,s,0,0.7367458999999599,736.7458999999599,570.1575626000001,570.9015376299999,570.9091053,572.28076053,EMOCONPILOT009,2020_Dec_12_1007,EmoCon_Pilot_120Hz,2020.2.4,120.25633841109189,
,,,,0,0,0,0,1,0,1,0,,,,,,,,,,,,,,,,,,,,,,,,,,,,,,,,,,,,,,,,,,,,,1,6.0,m,033_o_m_n_a.jpg,neutral,s,17,1,572.2860277,572.58072963,572.7906168,572.95274103,572.9576367,572.9984302299999,573.0035061000001,573.4837794299999,s,1,0.46713130000011915,467.13130000011915,573.0035061000001,573.4837794299999,573.491784,574.68904643,EMOCONPILOT009,2020_Dec_12_1007,EmoCon_Pilot_120Hz,2020.2.4,120.25633841109189,
,,,,0,0,0,0,2,0,2,0,,,,,,,,,,,,,,,,,,,,,,,,,,,,,,,,,,,,,,,,,,,,,2,2.0,m,008_y_m_s_a.jpg,sad,a,3,1,574.6931139000001,574.9891114300001,575.2316376000001,575.25704683,575.257519,575.2917702299999,575.2921612,576.93462783,None,0,,,575.2921612,576.93462783,576.9384812000001,578.16408953,EMOCONPILOT009,2020_Dec_12_1007,EmoCon_Pilot_120Hz,2020.2.4,120.25633841109189,
,,,,0,0,0,0,3,0,3,0,,,,,,,,,,,,,,,,,,,,,,,,,,,,,,,,,,,,,,,,,,,,,3,11.0,f,030_o_f_h_a.jpg,happy,d,3,1,578.1681788000001,578.4641734300001,578.6682108,578.69430113,578.6951154999999,578.7319198299999,578.7319910000001,579.4844128299999,d,1,0.7384879999999612,738.4879999999612,578.7319910000001,579.4844128299999,579.4917473,581.43087543,EMOCONPILOT009,2020_Dec_12_1007,EmoCon_Pilot_120Hz,2020.2.4,120.25633841109189,
,,,,0,0,0,0,4,0,4,0,,,,,,,,,,,,,,,,,,,,,,,,,,,,,,,,,,,,,,,,,,,,,4,11.0,f,030_o_f_s_a.jpg,sad,a,3,1,581.4352973,581.73087863,581.9355942,581.9617117299999,581.9625099,581.9988497300001,581.9989666000001,582.74971413,s,0,0.7433925999998792,743.3925999998792,581.9989666000001,582.74971413,582.7561564,584.1143817300001,EMOCONPILOT009,2020_Dec_12_1007,EmoCon_Pilot_120Hz,2020.2.4,120.25633841109189,
,,,,0,0,0,0,5,0,5,0,,,,,,,,,,,,,,,,,,,,,,,,,,,,,,,,,,,,,,,,,,,,,5,11.0,f,030_o_f_s_a.jpg,sad,a,17,1,584.1185724,584.41428453,584.6200096,584.78940173,584.7929773000001,584.83294933,584.8380149,585.77783703,a,1,0.9283258999998907,928.3258999998907,584.8380149,585.77783703,585.7836251000001,587.5559446299999,EMOCONPILOT009,2020_Dec_12_1007,EmoCon_Pilot_120Hz,2020.2.4,120.25633841109189,
,,,,0,0,0,0,6,0,6,0,,,,,,,,,,,,,,,,,,,,,,,,,,,,,,,,,,,,,,,,,,,,,6,5.0,m,027_o_m_n_a.jpg,neutral,s,17,1,587.5589208000001,587.8559894299999,588.0679996000001,588.22768653,588.2313922000001,588.27191113,588.2771553,589.04631363,s,1,0.7611526000000595,761.1526000000595,588.2771553,589.04631363,589.0527162999999,590.34768603,EMOCONPILOT009,2020_Dec_12_1007,EmoCon_Pilot_120Hz,2020.2.4,120.25633841109189,
,,,,0,0,0,0,7,0,7,0,,,,,,,,,,,,,,,,,,,,,,,,,,,,,,,,,,,,,,,,,,,,,7,8.0,f,019_m_f_n_a.jpg,neutral,s,17,1,590.3509848000001,590.64774853,590.8826534,591.0418513300001,591.0464240000001,591.0870937300001,591.092349,591.66363563,s,1,0.5621791999999459,562.1791999999459,591.092349,591.66363563,591.6694505,593.0061234299999,EMOCONPILOT009,2020_Dec_12_1007,EmoCon_Pilot_120Hz,2020.2.4,120.25633841109189,
,,,,0,0,0,0,8,0,8,0,,,,,,,,,,,,,,,,,,,,,,,,,,,,,,,,,,,,,,,,,,,,,8,5.0,m,027_o_m_h_a.jpg,happy,d,17,1,593.0103793999999,593.3061989299999,593.5395281000001,593.70904363,593.7135074,593.7545891299999,593.7594329000001,594.2619528299999,d,1,0.48706960000004074,487.06960000004074,593.7594329000001,594.2619528299999,594.2676587000001,595.6561402299999,EMOCONPILOT009,2020_Dec_12_1007,EmoCon_Pilot_120Hz,2020.2.4,120.25633841109189,
,,,,0,0,0,0,9,0,9,0,,,,,,,,,,,,,,,,,,,,,,,,,,,,,,,,,,,,,,,,,,,,,9,8.0,f,019_m_f_n_a.jpg,neutral,s,17,1,595.6603769000001,595.95625823,596.2001471000001,596.36140523,596.3654892,596.40649033,596.4114725,596.8927996299999,s,1,0.4670277000000169,467.0277000000169,596.4114725,596.8927996299999,596.9041365,598.53125733,EMOCONPILOT009,2020_Dec_12_1007,EmoCon_Pilot_120Hz,2020.2.4,120.25633841109189,
,,,,0,0,0,0,10,0,10,0,,,,,,,,,,,,,,,,,,,,,,,,,,,,,,,,,,,,,,,,,,,,,10,11.0,f,030_o_f_h_a.jpg,happy,d,17,1,598.5347992,598.8312615299999,599.0342023000001,599.20362013,599.2084596,599.2497475299999,599.2548261,599.72521143,d,1,0.455685399999993,455.685399999993,599.2548261,599.72521143,599.7356030999999,600.7980063299999,EMOCONPILOT009,2020_Dec_12_1007,EmoCon_Pilot_120Hz,2020.2.4,120.25633841109189,
,,,,0,0,0,0,11,0,11,0,,,,,,,,,,,,,,,,,,,,,,,,,,,,,,,,,,,,,,,,,,,,,11,3.0,m,013_y_m_s_a.jpg,sad,a,17,1,600.8011223999999,601.0980209300001,601.1960798,601.3333707300001,601.3379428000001,601.3786880299999,601.3840136000001,602.34038373,a,1,0.9424702999999681,942.4702999999681,601.3840136000001,602.34038373,602.3471227,604.2646817299999,EMOCONPILOT009,2020_Dec_12_1007,EmoCon_Pilot_120Hz,2020.2.4,120.25633841109189,
,,,,0,0,0,0,12,0,12,0,,,,,,,,,,,,,,,,,,,,,,,,,,,,,,,,,,,,,,,,,,,,,12,12.0,f,040_y_f_n_a.jpg,neutral,s,3,1,604.2689256000001,604.56465873,604.7895713,604.8151862299999,604.8158192999999,604.85028053,604.8500888000001,605.5459320299999,s,1,0.6843043999999736,684.3043999999736,604.8500888000001,605.5459320299999,605.5532621,606.6397014300001,EMOCONPILOT009,2020_Dec_12_1007,EmoCon_Pilot_120Hz,2020.2.4,120.25633841109189,
,,,,0,0,0,0,13,0,13,0,,,,,,,,,,,,,,,,,,,,,,,,,,,,,,,,,,,,,,,,,,,,,13,12.0,f,040_y_f_h_a.jpg,happy,d,17,1,606.6436454,606.93978393,606.9652404999999,607.0997654299999,607.1034119999999,607.1415021299999,607.1446621,607.6484317300001,d,1,0.49381930000004104,493.81930000004104,607.1446621,607.6484317300001,607.6582849000001,609.33153743,EMOCONPILOT009,2020_Dec_12_1007,EmoCon_Pilot_120Hz,2020.2.4,120.25633841109189,
,,,,0,0,0,0,14,0,14,0,,,,,,,,,,,,,,,,,,,,,,,,,,,,,,,,,,,,,,,,,,,,,14,7.0,f,012_o_f_h_a.jpg,happy,d,3,1,609.3356213,609.6311429299999,609.6414554,609.6656541299999,609.6666594000001,609.7026802299999,609.7025891999999,610.2104368299999,d,1,0.4957480000000487,495.7480000000487,609.7025891999999,610.2104368299999,610.2147411000001,612.15659443,EMOCONPILOT009,2020_Dec_12_1007,EmoCon_Pilot_120Hz,2020.2.4,120.25633841109189,
,,,,0,0,0,0,15,0,15,0,,,,,,,,,,,,,,,,,,,,,,,,,,,,,,,,,,,,,,,,,,,,,15,9.0,f,021_o_f_n_a.jpg,neutral,s,3,1,612.1606201,612.4565217300001,612.6817893,612.70816313,612.708912,612.7447052299999,612.7447533,613.64583393,s,1,0.8936977000000752,893.6977000000752,612.7447533,613.64583393,613.6543054000001,614.9316265299999,EMOCONPILOT009,2020_Dec_12_1007,EmoCon_Pilot_120Hz,2020.2.4,120.25633841109189,
,,,,0,0,0,0,16,0,16,0,,,,,,,,,,,,,,,,,,,,,,,,,,,,,,,,,,,,,,,,,,,,,16,10.0,f,028_y_f_s_a.jpg,sad,a,17,1,614.9376682,615.2316357299999,615.2787351,615.41679843,615.4216736000001,615.4577242299999,615.4578079,616.23595903,a,1,0.7645880000000034,764.5880000000034,615.4578079,616.23595903,616.2426150000001,617.50662263,EMOCONPILOT009,2020_Dec_12_1007,EmoCon_Pilot_120Hz,2020.2.4,120.25633841109189,
,,,,0,0,0,0,17,0,17,0,,,,,,,,,,,,,,,,,,,,,,,,,,,,,,,,,,,,,,,,,,,,,17,10.0,f,028_y_f_h_a.jpg,happy,d,17,1,617.5106724,617.80652373,617.8218136,617.9581211299999,617.958901,617.9994072300001,617.9990968,618.4655023299999,d,1,0.45528250000006665,455.28250000006665,617.9990968,618.4655023299999,618.4684543999999,619.83142883,EMOCONPILOT009,2020_Dec_12_1007,EmoCon_Pilot_120Hz,2020.2.4,120.25633841109189,
,,,,0,0,0,0,18,0,18,0,,,,,,,,,,,,,,,,,,,,,,,,,,,,,,,,,,,,,,,,,,,,,18,9.0,f,021_o_f_h_a.jpg,happy,d,17,1,619.8328495000001,620.13137183,620.3863945,620.55558223,620.5566263000001,620.5929110300001,620.5936093,620.8985747300001,d,1,0.2926503999999568,292.6503999999568,620.5936093,620.8985747300001,620.9024377000001,622.48990213,EMOCONPILOT009,2020_Dec_12_1007,EmoCon_Pilot_120Hz,2020.2.4,120.25633841109189,
,,,,0,0,0,0,19,0,19,0,,,,,,,,,,,,,,,,,,,,,,,,,,,,,,,,,,,,,,,,,,,,,19,6.0,m,033_o_m_h_a.jpg,happy,d,17,1,622.4900930000001,622.78977343,622.8064379,622.94145153,622.9423155,622.9827988300001,622.9821109,623.28190113,d,1,0.2883387000001676,288.3387000001676,622.9821109,623.28190113,623.2847676000001,624.71476063,EMOCONPILOT009,2020_Dec_12_1007,EmoCon_Pilot_120Hz,2020.2.4,120.25633841109189,
,,,,0,0,0,0,20,0,20,0,,,,,,,,,,,,,,,,,,,,,,,,,,,,,,,,,,,,,,,,,,,,,20,1.0,m,004_o_m_h_a.jpg,happy,d,3,1,624.7150234000001,625.01477993,625.2246468999999,625.2510218299999,625.2510069,625.2871653299999,625.2871890000001,625.8380210299999,d,1,0.5431211999998595,543.1211999998595,625.2871890000001,625.8380210299999,625.8412949000001,627.24817863,EMOCONPILOT009,2020_Dec_12_1007,EmoCon_Pilot_120Hz,2020.2.4,120.25633841109189,
,,,,0,0,0,0,21,0,21,0,,,,,,,,,,,,,,,,,,,,,,,,,,,,,,,,,,,,,,,,,,,,,21,2.0,m,008_y_m_s_a.jpg,sad,a,17,1,627.2485624000001,627.5483106300001,627.7739891000001,627.92450003,627.9248818000001,627.96132943,627.9612387,628.6903404300001,a,1,0.7170840999999655,717.0840999999655,627.9612387,628.6903404300001,628.6937295,630.37320503,EMOCONPILOT009,2020_Dec_12_1007,EmoCon_Pilot_120Hz,2020.2.4,120.25633841109189,
,,,,0,0,0,0,22,0,22,0,,,,,,,,,,,,,,,,,,,,,,,,,,,,,,,,,,,,,,,,,,,,,22,4.0,m,016_y_m_s_a.jpg,sad,a,17,1,630.3731535,630.6733093299999,630.6857775999999,630.81694103,630.8176226,630.85789623,630.8575329,631.3153329300001,a,1,0.4447551000000658,444.7551000000658,630.8575329,631.3153329300001,631.3177234,633.30655703,EMOCONPILOT009,2020_Dec_12_1007,EmoCon_Pilot_120Hz,2020.2.4,120.25633841109189,
,,,,0,0,0,0,23,0,23,0,,,,,,,,,,,,,,,,,,,,,,,,,,,,,,,,,,,,,,,,,,,,,23,8.0,f,019_m_f_h_a.jpg,happy,d,17,1,633.3065825000001,633.60662123,633.6193761,633.74999983,633.7500164,633.79127143,633.7910546,634.2824418299999,d,1,0.47922810000000027,479.22810000000027,633.7910546,634.2824418299999,634.2852680000001,636.17338483,EMOCONPILOT009,2020_Dec_12_1007,EmoCon_Pilot_120Hz,2020.2.4,120.25633841109189,
,,,,0,0,0,0,24,0,24,0,,,,,,,,,,,,,,,,,,,,,,,,,,,,,,,,,,,,,,,,,,,,,24,8.0,f,019_m_f_h_a.jpg,happy,d,3,1,636.1734891000001,636.47329853,636.4829814,636.50544423,636.5057251000001,636.5421626299999,636.5420636000001,637.00718953,d,1,0.45639550000009876,456.39550000009876,636.5420636000001,637.00718953,637.0103240999999,638.48191073,EMOCONPILOT009,2020_Dec_12_1007,EmoCon_Pilot_120Hz,2020.2.4,120.25633841109189,
,,,,0,0,0,0,25,0,25,0,,,,,,,,,,,,,,,,,,,,,,,,,,,,,,,,,,,,,,,,,,,,,25,4.0,m,016_y_m_n_a.jpg,neutral,s,17,1,638.4818025,638.78179583,639.0335977,639.1858565299999,639.1863209999999,639.2225781300001,639.2226373000001,639.7739322299999,s,1,0.5437211000000843,543.7211000000843,639.2226373000001,639.7739322299999,639.7768461000001,641.3234063299999,EMOCONPILOT009,2020_Dec_12_1007,EmoCon_Pilot_120Hz,2020.2.4,120.25633841109189,
,,,,0,0,0,0,26,0,26,0,,,,,,,,,,,,,,,,,,,,,,,,,,,,,,,,,,,,,,,,,,,,,26,4.0,m,016_y_m_h_a.jpg,happy,d,17,1,641.3240705000001,641.6235109300001,641.6355807,641.76695973,641.7676761,641.80823403,641.8076366,642.18510513,d,1,0.36688390000017534,366.88390000017534,641.8076366,642.18510513,642.1963122,644.06549133,EMOCONPILOT009,2020_Dec_12_1007,EmoCon_Pilot_120Hz,2020.2.4,120.25633841109189,
,,,,0,0,0,0,27,0,27,0,,,,,,,,,,,,,,,,,,,,,,,,,,,,,,,,,,,,,,,,,,,,,27,8.0,f,019_m_f_h_a.jpg,happy,d,17,1,644.0698167,644.3654821299999,644.3908527000001,644.5255433299999,644.5286864,644.5667884300001,644.5699004,645.14777723,d,1,0.5645693999999821,564.5693999999821,644.5699004,645.14777723,645.1568480999999,646.6822212300001,EMOCONPILOT009,2020_Dec_12_1007,EmoCon_Pilot_120Hz,2020.2.4,120.25633841109189,
,,,,0,0,0,0,28,0,28,0,,,,,,,,,,,,,,,,,,,,,,,,,,,,,,,,,,,,,,,,,,,,,28,8.0,f,019_m_f_s_a.jpg,sad,a,17,1,646.687891,646.98225693,647.2317158999999,647.3909853299999,647.3940193000001,647.43030133,647.430071,648.09185843,a,1,0.6487068999999792,648.7068999999792,647.430071,648.09185843,648.1015205000001,650.0490424300001,EMOCONPILOT009,2020_Dec_12_1007,EmoCon_Pilot_120Hz,2020.2.4,120.25633841109189,
,,,,0,0,0,0,29,0,29,0,,,,,,,,,,,,,,,,,,,,,,,,,,,,,,,,,,,,,,,,,,,,,29,10.0,f,028_y_f_n_a.jpg,neutral,s,17,1,650.0532306,650.34906353,650.5529096,650.71189443,650.7124094000001,650.7502490300001,650.7502630000001,651.17499653,s,1,0.4161594999998215,416.1594999998215,650.7502630000001,651.17499653,651.1827210000001,652.4739671299999,EMOCONPILOT009,2020_Dec_12_1007,EmoCon_Pilot_120Hz,2020.2.4,120.25633841109189,
,,,,0,0,0,0,30,0,30,0,,,,,,,,,,,,,,,,,,,,,,,,,,,,,,,,,,,,,,,,,,,,,30,12.0,f,040_y_f_n_a.jpg,neutral,s,17,1,652.4759042999999,652.7736183300001,652.9774811,653.1473741299999,653.1519558,653.19196323,653.1970672,653.6778196299999,s,1,0.4655660999999327,465.5660999999327,653.1970672,653.6778196299999,653.6883095999999,654.8654162299999,EMOCONPILOT009,2020_Dec_12_1007,EmoCon_Pilot_120Hz,2020.2.4,120.25633841109189,
,,,,0,0,0,0,31,0,31,0,,,,,,,,,,,,,,,,,,,,,,,,,,,,,,,,,,,,,,,,,,,,,31,5.0,m,027_o_m_n_a.jpg,neutral,s,3,1,654.8655681,655.16547083,655.3754606,655.4025758299999,655.4026216,655.43881113,655.4388518000001,655.9242801299999,s,1,0.4714658000000327,471.4658000000327,655.4388518000001,655.9242801299999,655.9279406,657.23256193,EMOCONPILOT009,2020_Dec_12_1007,EmoCon_Pilot_120Hz,2020.2.4,120.25633841109189,
,,,,0,0,0,0,32,0,32,0,,,,,,,,,,,,,,,,,,,,,,,,,,,,,,,,,,,,,,,,,,,,,32,8.0,f,019_m_f_n_a.jpg,neutral,s,17,1,657.2323996,657.53089643,657.7927437000001,657.92891403,657.9283250999999,657.96536003,657.9642692,658.3644906300001,s,1,0.3860494999998991,386.0494999998991,657.9642692,658.3644906300001,658.3656258999999,659.56400173,EMOCONPILOT009,2020_Dec_12_1007,EmoCon_Pilot_120Hz,2020.2.4,120.25633841109189,
,,,,0,0,0,0,33,0,33,0,,,,,,,,,,,,,,,,,,,,,,,,,,,,,,,,,,,,,,,,,,,,,33,4.0,m,016_y_m_n_a.jpg,neutral,s,17,1,659.5639713,659.86398603,660.0949258999999,660.23235843,660.2314917000001,660.26559733,660.2644115,660.66492563,s,1,0.3898563000000195,389.8563000000195,660.2644115,660.66492563,660.6683717999999,661.71427533,EMOCONPILOT009,2020_Dec_12_1007,EmoCon_Pilot_120Hz,2020.2.4,120.25633841109189,
,,,,0,0,0,0,34,0,34,0,,,,,,,,,,,,,,,,,,,,,,,,,,,,,,,,,,,,,,,,,,,,,34,11.0,f,030_o_f_n_a.jpg,neutral,s,3,1,661.7142428,662.0150575299999,662.2163939,662.24154133,662.2418718000001,662.27431043,662.2733122,662.89865343,s,1,0.6129363000000012,612.9363000000012,662.2733122,662.89865343,662.9012179000001,664.67250223,EMOCONPILOT009,2020_Dec_12_1007,EmoCon_Pilot_120Hz,2020.2.4,120.25633841109189,
,,,,0,0,0,0,35,0,35,0,,,,,,,,,,,,,,,,,,,,,,,,,,,,,,,,,,,,,,,,,,,,,35,9.0,f,021_o_f_h_a.jpg,happy,d,3,1,664.6725982,664.97234273,665.1789099,665.2029240300001,665.2012639,665.24038243,665.2390671,665.8562834300001,d,1,0.6074681000000055,607.4681000000055,665.2390671,665.8562834300001,665.8581331,666.9144675299999,EMOCONPILOT009,2020_Dec_12_1007,EmoCon_Pilot_120Hz,2020.2.4,120.25633841109189,
,,,,0,0,0,0,36,0,36,0,,,,,,,,,,,,,,,,,,,,,,,,,,,,,,,,,,,,,,,,,,,,,36,11.0,f,030_o_f_s_a.jpg,sad,a,17,1,666.9159890000001,667.21452563,667.4069178,667.5435604300001,667.5470789999999,667.5824544300001,667.5856921,668.4744285300001,a,1,0.8768469999999979,876.8469999999979,667.5856921,668.4744285300001,668.4838827000001,669.7730709299999,EMOCONPILOT009,2020_Dec_12_1007,EmoCon_Pilot_120Hz,2020.2.4,120.25633841109189,
,,,,0,0,0,0,37,0,37,0,,,,,,,,,,,,,,,,,,,,,,,,,,,,,,,,,,,,,,,,,,,,,37,12.0,f,040_y_f_n_a.jpg,neutral,s,17,1,669.777341,670.07304503,670.2909631,670.42782543,670.4303398,670.46595753,670.4690647,670.96494573,s,1,0.4813415000000987,481.3415000000987,670.4690647,670.96494573,670.9703592000001,672.29011653,EMOCONPILOT009,2020_Dec_12_1007,EmoCon_Pilot_120Hz,2020.2.4,120.25633841109189,
,,,,0,0,0,0,38,0,38,0,,,,,,,,,,,,,,,,,,,,,,,,,,,,,,,,,,,,,,,,,,,,,38,9.0,f,021_o_f_s_a.jpg,sad,a,17,1,672.2944127000001,672.59031073,672.6134946,672.7503602300001,672.7530786,672.7915409299999,672.7960206,673.5576211299999,a,1,0.7544319999999516,754.4319999999516,672.7960206,673.5576211299999,673.5623628999999,674.64111733,EMOCONPILOT009,2020_Dec_12_1007,EmoCon_Pilot_120Hz,2020.2.4,120.25633841109189,
,,,,0,0,0,0,39,0,39,0,,,,,,,,,,,,,,,,,,,,,,,,,,,,,,,,,,,,,,,,,,,,,39,4.0,m,016_y_m_n_a.jpg,neutral,s,17,1,674.645131,674.94111883,675.1766805,675.33188313,675.3366693,675.3783053300001,675.3827999,675.7885830299999,s,1,0.391638999999941,391.638999999941,675.3827999,675.7885830299999,675.7979163,676.8077673299999,EMOCONPILOT009,2020_Dec_12_1007,EmoCon_Pilot_120Hz,2020.2.4,120.25633841109189,
,,,,0,0,0,0,40,0,40,0,,,,,,,,,,,,,,,,,,,,,,,,,,,,,,,,,,,,,,,,,,,,,40,9.0,f,021_o_f_s_a.jpg,sad,a,17,1,676.8106419000001,677.10787613,677.1323311000001,677.26789613,677.2728712,677.31349613,677.3184507000001,678.1523725300001,a,1,0.824038900000005,824.038900000005,677.3184507000001,678.1523725300001,678.1638545000001,679.97466523,EMOCONPILOT009,2020_Dec_12_1007,EmoCon_Pilot_120Hz,2020.2.4,120.25633841109189,
,,,,0,0,0,0,41,0,41,0,,,,,,,,,,,,,,,,,,,,,,,,,,,,,,,,,,,,,,,,,,,,,41,11.0,f,030_o_f_h_a.jpg,happy,d,3,1,679.9789900000001,680.2747101299999,680.4866202000001,680.51300483,680.5137225000001,680.55080653,680.5509377999999,681.43776473,d,1,0.8796397999999499,879.6397999999499,680.5509377999999,681.43776473,681.4482399000001,682.5829356300001,EMOCONPILOT009,2020_Dec_12_1007,EmoCon_Pilot_120Hz,2020.2.4,120.25633841109189,
,,,,0,0,0,0,42,0,42,0,,,,,,,,,,,,,,,,,,,,,,,,,,,,,,,,,,,,,,,,,,,,,42,4.0,m,016_y_m_h_a.jpg,happy,d,3,1,682.5869473,682.88302643,682.9011663000001,682.9238383300001,682.9245381999999,682.95951603,682.9591269,683.5595159300001,d,1,0.5914470000000165,591.4470000000165,682.9591269,683.5595159300001,683.5710437,685.1164752300001,EMOCONPILOT009,2020_Dec_12_1007,EmoCon_Pilot_120Hz,2020.2.4,120.25633841109189,
,,,,0,0,0,0,43,0,43,0,,,,,,,,,,,,,,,,,,,,,,,,,,,,,,,,,,,,,,,,,,,,,43,1.0,m,004_o_m_s_a.jpg,sad,a,3,1,685.1219014000001,685.41636623,685.4438943,685.4667765300001,685.4673981999999,685.50305153,685.5036425999999,686.1945366299999,s,0,0.6787916999999197,678.7916999999197,685.5036425999999,686.1945366299999,686.2029094,687.2997963299999,EMOCONPILOT009,2020_Dec_12_1007,EmoCon_Pilot_120Hz,2020.2.4,120.25633841109189,
,,,,0,0,0,0,44,0,44,0,,,,,,,,,,,,,,,,,,,,,,,,,,,,,,,,,,,,,,,,,,,,,44,4.0,m,016_y_m_h_a.jpg,happy,d,17,1,687.3052834,687.59975753,687.6250193999999,687.75976023,687.7632784,687.80141863,687.8059820999999,688.29477993,d,1,0.4808986000000459,480.8986000000459,687.8059820999999,688.29477993,688.3070011,689.8997734300001,EMOCONPILOT009,2020_Dec_12_1007,EmoCon_Pilot_120Hz,2020.2.4,120.25633841109189,
,,,,0,0,0,0,45,0,45,0,,,,,,,,,,,,,,,,,,,,,,,,,,,,,,,,,,,,,,,,,,,,,45,7.0,f,012_o_f_s_a.jpg,sad,a,17,1,689.9039263,690.1997909300001,690.2217806000001,690.35984433,690.3647707,690.40568113,690.4108836,690.9762928299999,a,1,0.5560015000000931,556.0015000000931,690.4108836,690.9762928299999,690.9840615,692.44147993,EMOCONPILOT009,2020_Dec_12_1007,EmoCon_Pilot_120Hz,2020.2.4,120.25633841109189,
,,,,0,0,0,0,46,0,46,0,,,,,,,,,,,,,,,,,,,,,,,,,,,,,,,,,,,,,,,,,,,,,46,8.0,f,019_m_f_n_a.jpg,neutral,s,3,1,692.4457136999999,692.7415617300001,693.0088721,693.03582613,693.0358784,693.0725565299999,693.0724336999999,694.23549963,a,0,1.1500566999998227,1150.0566999998227,693.0724336999999,694.23549963,694.2388593000001,695.80001343,EMOCONPILOT009,2020_Dec_12_1007,EmoCon_Pilot_120Hz,2020.2.4,120.25633841109189,
,,,,0,0,0,0,47,0,47,0,,,,,,,,,,,,,,,,,,,,,,,,,,,,,,,,,,,,,,,,,,,,,47,2.0,m,008_y_m_h_a.jpg,happy,d,17,1,695.8063664000001,696.0998104299999,696.1222802,696.25971123,696.2602117000001,696.3009335300001,696.3008741000001,696.67777273,d,1,0.36173379999991084,361.73379999991084,696.3008741000001,696.67777273,696.6844211,698.55827823,EMOCONPILOT009,2020_Dec_12_1007,EmoCon_Pilot_120Hz,2020.2.4,120.25633841109189,
,,,,0,0,0,0,48,0,48,0,,,,,,,,,,,,,,,,,,,,,,,,,,,,,,,,,,,,,,,,,,,,,48,12.0,f,040_y_f_n_a.jpg,neutral,s,3,1,698.5635316,698.8582528300001,699.0827833999999,699.1085853300001,699.1121581,699.1520916300001,699.1569038,700.19311073,d,0,1.0256447000001572,1025.6447000001572,699.1569038,700.19311073,700.2047190999999,701.63338793,EMOCONPILOT009,2020_Dec_12_1007,EmoCon_Pilot_120Hz,2020.2.4,120.25633841109189,
,,,,0,0,0,0,49,0,49,0,,,,,,,,,,,,,,,,,,,,,,,,,,,,,,,,,,,,,,,,,,,,,49,11.0,f,030_o_f_n_a.jpg,neutral,s,17,1,701.6389881,701.9333901299999,702.1313342000001,702.29041633,702.2942833,702.3338439300001,702.3387983,703.27605223,s,1,0.9235935000001518,923.5935000001518,702.3387983,703.27605223,703.2828216,704.9250934300001,EMOCONPILOT009,2020_Dec_12_1007,EmoCon_Pilot_120Hz,2020.2.4,120.25633841109189,
,,,,0,0,0,0,50,0,50,0,,,,,,,,,,,,,,,,,,,,,,,,,,,,,,,,,,,,,,,,,,,,,50,8.0,f,019_m_f_h_a.jpg,happy,d,17,1,704.9292740000001,705.22508173,705.2452129000001,705.3768151300001,705.3811834,705.42210193,705.4273694999999,705.8550071300001,d,1,0.41917629999989003,419.17629999989003,705.4273694999999,705.8550071300001,705.8663285,707.65845003,EMOCONPILOT009,2020_Dec_12_1007,EmoCon_Pilot_120Hz,2020.2.4,120.25633841109189,
,,,,0,0,0,0,51,0,51,0,,,,,,,,,,,,,,,,,,,,,,,,,,,,,,,,,,,,,,,,,,,,,51,8.0,f,019_m_f_n_a.jpg,neutral,s,17,1,707.6625189000001,707.9585852299999,708.2051771000001,708.3752327300001,708.3798409000001,708.42110553,708.4256556,708.89478063,s,1,0.45308890000001156,453.08890000001156,708.4256556,708.89478063,708.9013560999999,711.42353103,EMOCONPILOT009,2020_Dec_12_1007,EmoCon_Pilot_120Hz,2020.2.4,120.25633841109189,
,,,,0,0,0,0,52,0,52,0,,,,,,,,,,,,,,,,,,,,,,,,,,,,,,,,,,,,,,,,,,,,,52,12.0,f,040_y_f_n_a.jpg,neutral,s,17,1,711.4296810999999,711.85639593,712.48848,712.65642523,712.6609035000001,712.70203713,712.7068445,713.29488423,s,1,0.5715717999999015,571.5717999999015,712.7068445,713.29488423,713.3022659000001,715.25042373,EMOCONPILOT009,2020_Dec_12_1007,EmoCon_Pilot_120Hz,2020.2.4,120.25633841109189,
,,,,0,0,0,0,53,0,53,0,,,,,,,,,,,,,,,,,,,,,,,,,,,,,,,,,,,,,,,,,,,,,53,9.0,f,021_o_f_h_a.jpg,happy,d,3,1,715.25612,715.5503535299999,715.7636098,715.7894514300001,715.7932068,715.83310523,715.8384771000001,716.71070743,d,1,0.8561225999999351,856.1225999999351,715.8384771000001,716.71070743,716.7209441,717.72537023,EMOCONPILOT009,2020_Dec_12_1007,EmoCon_Pilot_120Hz,2020.2.4,120.25633841109189,
,,,,0,0,0,0,54,0,54,0,,,,,,,,,,,,,,,,,,,,,,,,,,,,,,,,,,,,,,,,,,,,,54,2.0,m,008_y_m_n_a.jpg,neutral,s,17,1,717.7269638,718.02538633,718.2619821000001,718.41974553,718.4243458000001,718.4604831300001,718.4601054,718.8864915300001,s,1,0.41855499999996937,418.55499999996937,718.4601054,718.8864915300001,718.8939725,720.09206853,EMOCONPILOT009,2020_Dec_12_1007,EmoCon_Pilot_120Hz,2020.2.4,120.25633841109189,
,,,,0,0,0,0,55,0,55,0,,,,,,,,,,,,,,,,,,,,,,,,,,,,,,,,,,,,,,,,,,,,,55,10.0,f,028_y_f_n_a.jpg,neutral,s,17,1,720.0962908000001,720.3920627299999,720.6097692000001,720.76139653,720.7618569000001,720.7981539299999,720.7980139000001,721.0840785299999,s,1,0.27231810000012047,272.31810000012047,720.7980139000001,721.0840785299999,721.0866568000001,722.2254298299999,EMOCONPILOT009,2020_Dec_12_1007,EmoCon_Pilot_120Hz,2020.2.4,120.25633841109189,
,,,,0,0,0,0,56,0,56,0,,,,,,,,,,,,,,,,,,,,,,,,,,,,,,,,,,,,,,,,,,,,,56,12.0,f,040_y_f_h_a.jpg,happy,d,3,1,722.2288411,722.5254215299999,722.5473116000001,722.57043793,722.5710913,722.61002863,722.6114910000001,723.38305793,d,1,0.7630358999999771,763.0358999999771,722.6114910000001,723.38305793,723.3913505,724.6006333299999,EMOCONPILOT009,2020_Dec_12_1007,EmoCon_Pilot_120Hz,2020.2.4,120.25633841109189,
,,,,0,0,0,0,57,0,57,0,,,,,,,,,,,,,,,,,,,,,,,,,,,,,,,,,,,,,,,,,,,,,57,2.0,m,008_y_m_n_a.jpg,neutral,s,17,1,724.6064621,724.9005312300001,725.148858,725.31393703,725.3180695000001,725.35902983,725.3640012999999,725.7509043299999,s,1,0.3707938000000013,370.7938000000013,725.3640012999999,725.7509043299999,725.759221,727.18391883,EMOCONPILOT009,2020_Dec_12_1007,EmoCon_Pilot_120Hz,2020.2.4,120.25633841109189,
,,,,0,0,0,0,58,0,58,0,,,,,,,,,,,,,,,,,,,,,,,,,,,,,,,,,,,,,,,,,,,,,58,9.0,f,021_o_f_n_a.jpg,neutral,s,17,1,727.1892154,727.4839284300001,727.6937875000001,727.86229843,727.8659437000001,727.9059418300001,727.9110928,728.3201545300001,s,1,0.399256300000161,399.256300000161,727.9110928,728.3201545300001,728.3232777000001,729.6836521299999,EMOCONPILOT009,2020_Dec_12_1007,EmoCon_Pilot_120Hz,2020.2.4,120.25633841109189,
,,,,0,0,0,0,59,0,59,0,,,,,,,,,,,,,,,,,,,,,,,,,,,,,,,,,,,,,,,,,,,,,59,4.0,m,016_y_m_n_a.jpg,neutral,s,17,1,729.6839152,729.9839794300001,730.2223639000001,730.38994033,730.3949288000001,730.43610543,730.4414714,730.76513073,s,1,0.3089941999999155,308.9941999999155,730.4414714,730.76513073,730.7734995000001,731.82578343,EMOCONPILOT009,2020_Dec_12_1007,EmoCon_Pilot_120Hz,2020.2.4,120.25633841109189,
,,,,0,0,0,0,60,0,60,0,,,,,,,,,,,,,,,,,,,,,,,,,,,,,,,,,,,,,,,,,,,,,60,6.0,m,033_o_m_s_a.jpg,sad,a,17,1,731.8284475,732.12559693,732.1626272000001,732.29388453,732.2958880000001,732.3351883299999,732.3379761000001,732.79936793,s,0,0.4524927999998454,452.4927999998454,732.3379761000001,732.79936793,732.8066321000001,734.37581953,EMOCONPILOT009,2020_Dec_12_1007,EmoCon_Pilot_120Hz,2020.2.4,120.25633841109189,
,,,,0,0,0,0,61,0,61,0,,,,,,,,,,,,,,,,,,,,,,,,,,,,,,,,,,,,,,,,,,,,,61,7.0,f,012_o_f_n_a.jpg,neutral,s,17,1,734.3813652000001,734.67583893,734.8888778,735.05169753,735.0562568,735.0948084300001,735.0974325,735.60593823,s,1,0.49311390000002575,493.11390000002575,735.0974325,735.60593823,735.6128576000001,737.11741293,EMOCONPILOT009,2020_Dec_12_1007,EmoCon_Pilot_120Hz,2020.2.4,120.25633841109189,
,,,,0,0,0,0,62,0,62,0,,,,,,,,,,,,,,,,,,,,,,,,,,,,,,,,,,,,,,,,,,,,,62,2.0,m,008_y_m_h_a.jpg,happy,d,3,1,737.1215282000001,737.41738343,737.4302223,737.45310623,737.4531727000001,737.48872753,737.4892949,738.2843103299999,a,0,0.781391400000075,781.391400000075,737.4892949,738.2843103299999,738.2937711,740.22574953,EMOCONPILOT009,2020_Dec_12_1007,EmoCon_Pilot_120Hz,2020.2.4,120.25633841109189,
,,,,0,0,0,0,63,0,63,0,,,,,,,,,,,,,,,,,,,,,,,,,,,,,,,,,,,,,,,,,,,,,63,10.0,f,028_y_f_h_a.jpg,happy,d,3,1,740.2262057,740.5257932300001,740.5382440999999,740.5612855300001,740.5621214,740.5980238300001,740.5987795000001,741.17633953,d,1,0.5677880000000641,567.7880000000641,740.5987795000001,741.17633953,741.1848181,742.19263673,EMOCONPILOT009,2020_Dec_12_1007,EmoCon_Pilot_120Hz,2020.2.4,120.25633841109189,
,,,,0,0,0,0,64,0,64,0,,,,,,,,,,,,,,,,,,,,,,,,,,,,,,,,,,,,,,,,,,,,,64,4.0,m,016_y_m_h_a.jpg,happy,d,3,1,742.1969274,742.4925368300001,742.5132891999999,742.5363923299999,742.5372348000001,742.5724261299999,742.5730097000001,743.48629693,s,0,0.897587600000179,897.587600000179,742.5730097000001,743.48629693,743.4930532999999,744.70924653,EMOCONPILOT009,2020_Dec_12_1007,EmoCon_Pilot_120Hz,2020.2.4,120.25633841109189,
,,,,0,0,0,0,65,0,65,0,,,,,,,,,,,,,,,,,,,,,,,,,,,,,,,,,,,,,,,,,,,,,65,9.0,f,021_o_f_s_a.jpg,sad,a,17,1,744.7133842000001,745.00936613,745.0307663000001,745.1693716299999,745.1728937,745.2118756299999,745.2152675,745.9118085299999,a,1,0.6794454999999289,679.4454999999289,745.2152675,745.9118085299999,745.9217613000001,747.7426374300001,EMOCONPILOT009,2020_Dec_12_1007,EmoCon_Pilot_120Hz,2020.2.4,120.25633841109189,
,,,,0,0,0,0,66,0,66,0,,,,,,,,,,,,,,,,,,,,,,,,,,,,,,,,,,,,,,,,,,,,,66,7.0,f,012_o_f_h_a.jpg,happy,d,3,1,747.7468316,748.04265053,748.0617609999999,748.08380513,748.0845538000001,748.1209872300001,748.1210880000001,748.9346710299999,d,1,0.8057651999999962,805.7651999999962,748.1210880000001,748.9346710299999,748.943037,750.70109093,EMOCONPILOT009,2020_Dec_12_1007,EmoCon_Pilot_120Hz,2020.2.4,120.25633841109189,
,,,,0,0,0,0,67,0,67,0,,,,,,,,,,,,,,,,,,,,,,,,,,,,,,,,,,,,,,,,,,,,,67,9.0,f,021_o_f_h_a.jpg,happy,d,3,1,750.7064903,751.00104433,751.2299272,751.2583797299999,751.2632183000001,751.30339923,751.3085825999999,751.7363693299999,d,1,0.4177943999998206,417.7943999998206,751.3085825999999,751.7363693299999,751.7419598000001,753.4927814299999,EMOCONPILOT009,2020_Dec_12_1007,EmoCon_Pilot_120Hz,2020.2.4,120.25633841109189,
,,,,0,0,0,0,68,0,68,0,,,,,,,,,,,,,,,,,,,,,,,,,,,,,,,,,,,,,,,,,,,,,68,8.0,f,019_m_f_h_a.jpg,happy,d,17,1,753.4969983000001,753.7928462299999,753.8171156000001,753.9527722299999,753.9558863,753.99390593,753.9938616,754.3025960299999,d,1,0.30072679999989305,300.72679999989305,753.9938616,754.3025960299999,754.3088250999999,755.35123873,EMOCONPILOT009,2020_Dec_12_1007,EmoCon_Pilot_120Hz,2020.2.4,120.25633841109189,
,,,,0,0,0,0,69,0,69,0,,,,,,,,,,,,,,,,,,,,,,,,,,,,,,,,,,,,,,,,,,,,,69,9.0,f,021_o_f_s_a.jpg,sad,a,3,1,755.3566883999999,755.6512687300001,755.6745524,755.69708633,755.6973249,755.7357032299999,755.7369590999999,756.91009263,a,1,1.1655620999999883,1165.5620999999883,755.7369590999999,756.91009263,756.9164331,758.53455093,EMOCONPILOT009,2020_Dec_12_1007,EmoCon_Pilot_120Hz,2020.2.4,120.25633841109189,
,,,,0,0,0,0,70,0,70,0,,,,,,,,,,,,,,,,,,,,,,,,,,,,,,,,,,,,,,,,,,,,,70,2.0,m,008_y_m_h_a.jpg,happy,d,3,1,758.5386303,758.8346434299999,758.8599229000001,758.88230023,758.8826670000001,758.91909603,758.9193184000001,759.56731883,d,1,0.63137810000012,631.37810000012,758.9193184000001,759.56731883,759.5766773,760.60953993,EMOCONPILOT009,2020_Dec_12_1007,EmoCon_Pilot_120Hz,2020.2.4,120.25633841109189,
,,,,0,0,0,0,71,0,71,0,,,,,,,,,,,,,,,,,,,,,,,,,,,,,,,,,,,,,,,,,,,,,71,1.0,m,004_o_m_h_a.jpg,happy,d,3,1,760.6136164,760.9095591299999,761.1183866000001,761.14469783,761.1455126999999,761.1807019299999,761.1807034999999,761.5873147299999,d,1,0.39361959999996543,393.61959999996543,761.1807034999999,761.5873147299999,761.5907368000001,763.1680052300001,EMOCONPILOT009,2020_Dec_12_1007,EmoCon_Pilot_120Hz,2020.2.4,120.25633841109189,
,,,,0,0,0,0,72,0,72,0,,,,,,,,,,,,,,,,,,,,,,,,,,,,,,,,,,,,,,,,,,,,,72,11.0,f,030_o_f_h_a.jpg,happy,d,17,1,763.173669,763.4680561299999,763.6655461,763.82744263,763.8322554000001,763.87123473,763.8757823999999,764.16626643,d,1,0.2747389999999541,274.7389999999541,763.8757823999999,764.16626643,764.174055,765.92641263,EMOCONPILOT009,2020_Dec_12_1007,EmoCon_Pilot_120Hz,2020.2.4,120.25633841109189,
,,,,0,0,0,0,73,0,73,0,,,,,,,,,,,,,,,,,,,,,,,,,,,,,,,,,,,,,,,,,,,,,73,8.0,f,019_m_f_s_a.jpg,sad,a,3,1,765.9305677,766.22646353,766.463356,766.49079613,766.4945003,766.5335800299999,766.5387129000001,767.26885143,a,1,0.7158451000000241,715.8451000000241,766.5387129000001,767.26885143,767.2774499,768.5598177300001,EMOCONPILOT009,2020_Dec_12_1007,EmoCon_Pilot_120Hz,2020.2.4,120.25633841109189,
,,,,0,0,0,0,74,0,74,0,,,,,,,,,,,,,,,,,,,,,,,,,,,,,,,,,,,,,,,,,,,,,74,5.0,m,027_o_m_h_a.jpg,happy,d,17,1,768.5644628,768.8597998299999,769.0683423,769.23010013,769.2335373999999,769.27467763,769.2796703000001,769.71828663,d,1,0.42304170000011254,423.04170000011254,769.2796703000001,769.71828663,769.7262247000001,771.44324063,EMOCONPILOT009,2020_Dec_12_1007,EmoCon_Pilot_120Hz,2020.2.4,120.25633841109189,
,,,,0,0,0,0,75,0,75,0,,,,,,,,,,,,,,,,,,,,,,,,,,,,,,,,,,,,,,,,,,,,,75,8.0,f,019_m_f_s_a.jpg,sad,a,3,1,771.4475388000001,771.7432901300001,771.9901924999999,772.01728213,772.0210790000001,772.06129633,772.0666018,773.0068225299999,a,1,0.9318978000001152,931.8978000001152,772.0666018,773.0068225299999,773.0143871,774.70157543,EMOCONPILOT009,2020_Dec_12_1007,EmoCon_Pilot_120Hz,2020.2.4,120.25633841109189,
,,,,0,0,0,0,76,0,76,0,,,,,,,,,,,,,,,,,,,,,,,,,,,,,,,,,,,,,,,,,,,,,76,7.0,f,012_o_f_n_a.jpg,neutral,s,3,1,774.7068944,775.0015953300001,775.2114088000001,775.2381277300001,775.2388450999999,775.27492773,775.2745069,776.15995703,s,1,0.876022599999942,876.022599999942,775.2745069,776.15995703,776.1673526,778.02669683,EMOCONPILOT009,2020_Dec_12_1007,EmoCon_Pilot_120Hz,2020.2.4,120.25633841109189,
,,,,0,0,0,0,77,0,77,0,,,,,,,,,,,,,,,,,,,,,,,,,,,,,,,,,,,,,,,,,,,,,77,6.0,m,033_o_m_s_a.jpg,sad,a,3,1,778.0327044999999,778.32675543,778.353652,778.37672813,778.3769163,778.4115198300001,778.411329,779.59376703,a,1,1.1712228999999752,1171.2228999999752,778.411329,779.59376703,779.6022673,781.30166753,EMOCONPILOT009,2020_Dec_12_1007,EmoCon_Pilot_120Hz,2020.2.4,120.25633841109189,
,,,,0,0,0,0,78,0,78,0,,,,,,,,,,,,,,,,,,,,,,,,,,,,,,,,,,,,,,,,,,,,,78,1.0,m,004_o_m_h_a.jpg,happy,d,3,1,781.3056366000001,781.6016333299999,781.8114472,781.8382193299999,781.8416235,781.8823585299999,781.8876290000001,782.31399723,d,1,0.41481690000000526,414.81690000000526,781.8876290000001,782.31399723,782.3218022000001,783.6685330299999,EMOCONPILOT009,2020_Dec_12_1007,EmoCon_Pilot_120Hz,2020.2.4,120.25633841109189,
,,,,0,0,0,0,79,0,79,0,,,,,,,,,,,,,,,,,,,,,,,,,,,,,,,,,,,,,,,,,,,,,79,5.0,m,027_o_m_s_a.jpg,sad,a,17,1,783.6741890000001,783.96840683,783.9935689000001,784.12847093,784.1327748000001,784.17344273,784.1791430000001,784.86386563,a,1,0.6753482000001441,675.3482000001441,784.1791430000001,784.86386563,784.8656106999999,786.49359213,EMOCONPILOT009,2020_Dec_12_1007,EmoCon_Pilot_120Hz,2020.2.4,120.25633841109189,
,,,,0,0,0,0,80,0,80,0,,,,,,,,,,,,,,,,,,,,,,,,,,,,,,,,,,,,,,,,,,,,,80,9.0,f,021_o_f_s_a.jpg,sad,a,3,1,786.4989663000001,786.79351453,786.8189566000001,786.84336773,786.846509,786.88458143,786.8863796,788.1417680300001,a,1,1.240435400000024,1240.435400000024,786.8863796,788.1417680300001,788.1510952000001,789.4602063299999,EMOCONPILOT009,2020_Dec_12_1007,EmoCon_Pilot_120Hz,2020.2.4,120.25633841109189,
,,,,0,0,0,0,81,0,81,0,,,,,,,,,,,,,,,,,,,,,,,,,,,,,,,,,,,,,,,,,,,,,81,5.0,m,027_o_m_s_a.jpg,sad,a,3,1,789.4643258000001,789.7602605300001,789.7824914,789.8050813299999,789.806615,789.84463813,789.8461629999999,790.4601363300001,s,0,0.6002974999998969,600.2974999998969,789.8461629999999,790.4601363300001,790.4676551,791.6435887299999,EMOCONPILOT009,2020_Dec_12_1007,EmoCon_Pilot_120Hz,2020.2.4,120.25633841109189,
,,,,0,0,0,0,82,0,82,0,,,,,,,,,,,,,,,,,,,,,,,,,,,,,,,,,,,,,,,,,,,,,82,7.0,f,012_o_f_h_a.jpg,happy,d,17,1,791.6488233,791.9435729300001,791.9677492000001,792.1035402299999,792.106878,792.1450794299999,792.1479122999999,792.5281714299999,d,1,0.3706297999999606,370.6297999999606,792.1479122999999,792.5281714299999,792.5352682,794.0020041299999,EMOCONPILOT009,2020_Dec_12_1007,EmoCon_Pilot_120Hz,2020.2.4,120.25633841109189,
,,,,0,0,0,0,83,0,83,0,,,,,,,,,,,,,,,,,,,,,,,,,,,,,,,,,,,,,,,,,,,,,83,3.0,m,013_y_m_s_a.jpg,sad,a,3,1,794.0062725,794.3020021299999,794.3210475000001,794.3445513300001,794.3452874,794.3803988300001,794.3811992999999,795.15067933,s,0,0.7533233000001474,753.3233000001474,794.3811992999999,795.15067933,795.1588767999999,796.70201193,EMOCONPILOT009,2020_Dec_12_1007,EmoCon_Pilot_120Hz,2020.2.4,120.25633841109189,
,,,,0,0,0,0,84,0,84,0,,,,,,,,,,,,,,,,,,,,,,,,,,,,,,,,,,,,,,,,,,,,,84,5.0,m,027_o_m_s_a.jpg,sad,a,17,1,796.7024704,797.00201313,797.0232824,797.1536277299999,797.1566015999999,797.19525353,797.1983217,797.8666354300001,a,1,0.6562923999999839,656.2923999999839,797.1983217,797.8666354300001,797.8761419,799.0021688300001,EMOCONPILOT009,2020_Dec_12_1007,EmoCon_Pilot_120Hz,2020.2.4,120.25633841109189,
,,,,0,0,0,0,85,0,85,0,,,,,,,,,,,,,,,,,,,,,,,,,,,,,,,,,,,,,,,,,,,,,85,4.0,m,016_y_m_s_a.jpg,sad,a,3,1,799.0075759000001,799.30210863,799.32106,799.34436903,799.3447295000001,799.3790766300001,799.3804794,800.0889456299999,a,1,0.6981080000000475,698.1080000000475,799.3804794,800.0889456299999,800.1024371000001,801.8354467300001,EMOCONPILOT009,2020_Dec_12_1007,EmoCon_Pilot_120Hz,2020.2.4,120.25633841109189,
,,,,0,0,0,0,86,0,86,0,,,,,,,,,,,,,,,,,,,,,,,,,,,,,,,,,,,,,,,,,,,,,86,5.0,m,027_o_m_n_a.jpg,neutral,s,17,1,801.8395556,802.13552843,802.3542784000001,802.5167225299999,802.5209565,802.56176923,802.5668448000001,803.0475437299999,s,1,0.4638578999999936,463.8578999999936,802.5668448000001,803.0475437299999,803.059276,804.67723333,EMOCONPILOT009,2020_Dec_12_1007,EmoCon_Pilot_120Hz,2020.2.4,120.25633841109189,
,,,,0,0,0,0,87,0,87,0,,,,,,,,,,,,,,,,,,,,,,,,,,,,,,,,,,,,,,,,,,,,,87,3.0,m,013_y_m_h_a.jpg,happy,d,17,1,804.6813029,804.9772398299999,805.2193429000001,805.37447423,805.3795359999999,805.42016803,805.4253178000001,805.8024805299999,d,1,0.3652388999998948,365.2388999998948,805.4253178000001,805.8024805299999,805.8109952,807.03554493,EMOCONPILOT009,2020_Dec_12_1007,EmoCon_Pilot_120Hz,2020.2.4,120.25633841109189,
,,,,0,0,0,0,88,0,88,0,,,,,,,,,,,,,,,,,,,,,,,,,,,,,,,,,,,,,,,,,,,,,88,5.0,m,027_o_m_s_a.jpg,sad,a,3,1,807.0396823000001,807.33570323,807.3604759,807.38264663,807.382799,807.42010063,807.4212642,808.8944293300001,a,1,1.4573958000000857,1457.3958000000857,807.4212642,808.8944293300001,808.904632,810.7356989299999,EMOCONPILOT009,2020_Dec_12_1007,EmoCon_Pilot_120Hz,2020.2.4,120.25633841109189,
,,,,0,0,0,0,89,0,89,0,,,,,,,,,,,,,,,,,,,,,,,,,,,,,,,,,,,,,,,,,,,,,89,5.0,m,027_o_m_s_a.jpg,sad,a,3,1,810.7403465,811.0356170299999,811.0559887,811.07883603,811.0790766,811.11432803,811.114425,812.1653027299999,a,1,1.0360517999999956,1036.0517999999956,811.114425,812.1653027299999,812.1720399999999,814.03569103,EMOCONPILOT009,2020_Dec_12_1007,EmoCon_Pilot_120Hz,2020.2.4,120.25633841109189,
,,,,0,0,0,0,90,0,90,0,,,,,,,,,,,,,,,,,,,,,,,,,,,,,,,,,,,,,,,,,,,,,90,12.0,f,040_y_f_s_a.jpg,sad,a,17,1,814.0399462,814.3358048299999,814.3592437,814.49681543,814.5013098,814.54200373,814.5470439999999,815.2302046299999,a,1,0.6753581000000395,675.3581000000395,814.5470439999999,815.2302046299999,815.2361510000001,817.07756883,EMOCONPILOT009,2020_Dec_12_1007,EmoCon_Pilot_120Hz,2020.2.4,120.25633841109189,
,,,,0,0,0,0,91,0,91,0,,,,,,,,,,,,,,,,,,,,,,,,,,,,,,,,,,,,,,,,,,,,,91,3.0,m,013_y_m_n_a.jpg,neutral,s,3,1,817.083744,817.37753883,817.6239455,817.64972143,817.6503275,817.68680303,817.6865135,818.3177799299999,s,1,0.6241009000000304,624.1009000000304,817.6865135,818.3177799299999,818.3252732000001,819.8026154300001,EMOCONPILOT009,2020_Dec_12_1007,EmoCon_Pilot_120Hz,2020.2.4,120.25633841109189,
,,,,0,0,0,0,92,0,92,0,,,,,,,,,,,,,,,,,,,,,,,,,,,,,,,,,,,,,,,,,,,,,92,12.0,f,040_y_f_s_a.jpg,sad,a,3,1,819.8058612,820.1026219299999,820.1268531999999,820.1502601300001,820.1508337,820.1870695299999,820.1869481000001,820.9183919300001,s,0,0.7235674999999446,723.5674999999446,820.1869481000001,820.9183919300001,820.9270859999999,822.46098263,EMOCONPILOT009,2020_Dec_12_1007,EmoCon_Pilot_120Hz,2020.2.4,120.25633841109189,
,,,,0,0,0,0,93,0,93,0,,,,,,,,,,,,,,,,,,,,,,,,,,,,,,,,,,,,,,,,,,,,,93,6.0,m,033_o_m_s_a.jpg,sad,a,17,1,822.4664508999999,822.76096783,822.7764916000001,822.9125832299999,822.9169839000001,822.9575077300001,822.9628409,824.06325103,s,0,1.0917297000000872,1091.7297000000872,822.9628409,824.06325103,824.0763368,825.31927053,EMOCONPILOT009,2020_Dec_12_1007,EmoCon_Pilot_120Hz,2020.2.4,120.25633841109189,
,,,,0,0,0,0,94,0,94,0,,,,,,,,,,,,,,,,,,,,,,,,,,,,,,,,,,,,,,,,,,,,,94,2.0,m,008_y_m_s_a.jpg,sad,a,17,1,825.3240169999999,825.6192646300001,825.8629685999999,826.02990383,826.0344626000001,826.07501213,826.0803651000001,826.5678349299999,a,1,0.47822610000002896,478.22610000002896,826.0803651000001,826.5678349299999,826.5794119,827.91102873,EMOCONPILOT009,2020_Dec_12_1007,EmoCon_Pilot_120Hz,2020.2.4,120.25633841109189,
,,,,0,0,0,0,95,0,95,0,,,,,,,,,,,,,,,,,,,,,,,,,,,,,,,,,,,,,,,,,,,,,95,8.0,f,019_m_f_s_a.jpg,sad,a,17,1,827.9147882,828.21100093,828.4509402000001,828.6101056299999,828.6148293000001,828.65592143,828.6601945,828.9970251299999,a,1,0.32244489999993675,322.44489999993675,828.6601945,828.9970251299999,829.0080416000001,830.0111066300001,EMOCONPILOT009,2020_Dec_12_1007,EmoCon_Pilot_120Hz,2020.2.4,120.25633841109189,
,,,,0,0,0,0,96,0,96,0,,,,,,,,,,,,,,,,,,,,,,,,,,,,,,,,,,,,,,,,,,,,,96,9.0,f,021_o_f_n_a.jpg,neutral,s,17,1,830.0163,830.3110287300001,830.5287579999999,830.69793443,830.7015713999999,830.7428624300001,830.7468841,831.39795063,s,1,0.6436280999998871,643.6280999998871,830.7468841,831.39795063,831.4064166000001,832.71108033,EMOCONPILOT009,2020_Dec_12_1007,EmoCon_Pilot_120Hz,2020.2.4,120.25633841109189,
,,,,0,0,0,0,97,0,97,0,,,,,,,,,,,,,,,,,,,,,,,,,,,,,,,,,,,,,,,,,,,,,97,11.0,f,030_o_f_h_a.jpg,happy,d,3,1,832.7152757000001,833.0111270299999,833.2008007,833.2268394299999,833.2277088000001,833.26280703,833.2625873,834.0791737300001,d,1,0.8000307999998313,800.0307999998313,833.2625873,834.0791737300001,834.0856638,835.3195775300001,EMOCONPILOT009,2020_Dec_12_1007,EmoCon_Pilot_120Hz,2020.2.4,120.25633841109189,
,,,,0,0,0,0,98,0,98,0,,,,,,,,,,,,,,,,,,,,,,,,,,,,,,,,,,,,,,,,,,,,,98,12.0,f,040_y_f_n_a.jpg,neutral,s,17,1,835.3254552000001,835.6195148300001,835.8387720000001,836.0038981299999,836.0087727,836.0495437300001,836.054889,836.61334463,s,1,0.5517542000000049,551.7542000000049,836.054889,836.61334463,836.6250033000001,837.75283803,EMOCONPILOT009,2020_Dec_12_1007,EmoCon_Pilot_120Hz,2020.2.4,120.25633841109189,
,,,,0,0,0,0,99,0,99,0,,,,,,,,,,,,,,,,,,,,,,,,,,,,,,,,,,,,,,,,,,,,,99,12.0,f,040_y_f_s_a.jpg,sad,a,3,1,837.7559947,838.05299683,838.0801355000001,838.10379893,838.1055261000001,838.1428154299999,838.1444018,838.91875523,s,0,0.7664687999999842,766.4687999999842,838.1444018,838.91875523,838.9282243,840.1862829300001,EMOCONPILOT009,2020_Dec_12_1007,EmoCon_Pilot_120Hz,2020.2.4,120.25633841109189,
,,,,0,0,0,0,100,0,100,0,,,,,,,,,,,,,,,,,,,,,,,,,,,,,,,,,,,,,,,,,,,,,100,4.0,m,016_y_m_n_a.jpg,neutral,s,17,1,840.1916601,840.48636683,840.7326771,840.8867128300001,840.8897325,840.92697733,840.9300602000001,841.3334848300001,s,1,0.3884613000000172,388.4613000000172,840.9300602000001,841.3334848300001,841.3427928000001,842.9780572300001,EMOCONPILOT009,2020_Dec_12_1007,EmoCon_Pilot_120Hz,2020.2.4,120.25633841109189,
,,,,0,0,0,0,101,0,101,0,,,,,,,,,,,,,,,,,,,,,,,,,,,,,,,,,,,,,,,,,,,,,101,11.0,f,030_o_f_s_a.jpg,sad,a,17,1,842.9840921,843.2780111300001,843.4828030000001,843.6441324299999,843.6472550999999,843.68472593,843.6878293,844.42959013,a,1,0.7267518999999538,726.7518999999538,843.6878293,844.42959013,844.4401869999999,846.0863594299999,EMOCONPILOT009,2020_Dec_12_1007,EmoCon_Pilot_120Hz,2020.2.4,120.25633841109189,
,,,,0,0,0,0,102,0,102,0,,,,,,,,,,,,,,,,,,,,,,,,,,,,,,,,,,,,,,,,,,,,,102,3.0,m,013_y_m_h_a.jpg,happy,d,3,1,846.0907209,846.38641063,846.6261939000001,846.65240313,846.652912,846.68760673,846.6876249,847.8786065300001,d,1,1.175040000000081,1175.040000000081,846.6876249,847.8786065300001,847.8879502,849.5449386299999,EMOCONPILOT009,2020_Dec_12_1007,EmoCon_Pilot_120Hz,2020.2.4,120.25633841109189,
,,,,0,0,0,0,103,0,103,0,,,,,,,,,,,,,,,,,,,,,,,,,,,,,,,,,,,,,,,,,,,,,103,2.0,m,008_y_m_s_a.jpg,sad,a,3,1,849.5501107,849.8449188300001,850.0654886,850.0919881299999,850.0957673,850.13566363,850.1408827,850.8016320300001,a,1,0.6496082999999544,649.6082999999544,850.1408827,850.8016320300001,850.8097839,852.33653293,EMOCONPILOT009,2020_Dec_12_1007,EmoCon_Pilot_120Hz,2020.2.4,120.25633841109189,
,,,,0,0,0,0,104,0,104,0,,,,,,,,,,,,,,,,,,,,,,,,,,,,,,,,,,,,,,,,,,,,,104,11.0,f,030_o_f_s_a.jpg,sad,a,3,1,852.3406253999999,852.6365028299999,852.8318087,852.8582732299999,852.8584928,852.89591423,852.8959335,853.74823633,a,1,0.8388432000001558,838.8432000001558,852.8959335,853.74823633,853.7575282,855.4532729299999,EMOCONPILOT009,2020_Dec_12_1007,EmoCon_Pilot_120Hz,2020.2.4,120.25633841109189,
,,,,0,0,0,0,105,0,105,0,,,,,,,,,,,,,,,,,,,,,,,,,,,,,,,,,,,,,,,,,,,,,105,4.0,m,016_y_m_h_a.jpg,happy,d,3,1,855.4563117,855.75321263,855.7785801,855.8017914300001,855.8025653,855.8378068300001,855.8392875,856.42375283,d,1,0.5752543999999489,575.2543999999489,855.8392875,856.42375283,856.4324133,858.0866864300001,EMOCONPILOT009,2020_Dec_12_1007,EmoCon_Pilot_120Hz,2020.2.4,120.25633841109189,
,,,,0,0,0,0,106,0,106,0,,,,,,,,,,,,,,,,,,,,,,,,,,,,,,,,,,,,,,,,,,,,,106,7.0,f,012_o_f_n_a.jpg,neutral,s,3,1,858.0923769999999,858.38671593,858.5970399,858.6241565299999,858.624311,858.65845433,858.6588661000001,859.2142845300002,s,1,0.5397051000002193,539.7051000002193,858.6588661000001,859.2142845300002,859.2259902999999,860.2783698300002,EMOCONPILOT009,2020_Dec_12_1007,EmoCon_Pilot_120Hz,2020.2.4,120.25633841109189,
,,,,0,0,0,0,107,0,107,0,,,,,,,,,,,,,,,,,,,,,,,,,,,,,,,,,,,,,,,,,,,,,107,11.0,f,030_o_f_h_a.jpg,happy,d,3,1,860.2837620999999,860.5784689300001,860.7773914999998,860.80317193,860.8040004,860.8396113299998,860.8393123000001,861.50034673,d,1,0.6473461000000498,647.3461000000498,860.8393123000001,861.50034673,861.5094764999999,862.96166853,EMOCONPILOT009,2020_Dec_12_1007,EmoCon_Pilot_120Hz,2020.2.4,120.25633841109189,
,,,,0,0,0,0,108,0,108,0,,,,,,,,,,,,,,,,,,,,,,,,,,,,,,,,,,,,,,,,,,,,,108,1.0,m,004_o_m_s_a.jpg,sad,a,3,1,862.9648348999999,863.2616897300002,863.2820397999999,863.30409803,863.3048300999999,863.3403475299999,863.3405951999998,864.2245175300002,s,0,0.8739286999998512,873.9286999998512,863.3405951999998,864.2245175300002,864.2330256999999,865.22854553,EMOCONPILOT009,2020_Dec_12_1007,EmoCon_Pilot_120Hz,2020.2.4,120.25633841109189,
,,,,0,0,0,0,109,0,109,0,,,,,,,,,,,,,,,,,,,,,,,,,,,,,,,,,,,,,,,,,,,,,109,3.0,m,013_y_m_n_a.jpg,neutral,s,3,1,865.2326730999998,865.52850023,865.7719861999999,865.79787693,865.7983118000002,865.8322120300002,865.8325708000002,867.4639232299999,None,0,,,865.8325708000002,867.4639232299999,867.4694746,868.72026123,EMOCONPILOT009,2020_Dec_12_1007,EmoCon_Pilot_120Hz,2020.2.4,120.25633841109189,
,,,,0,0,0,0,110,0,110,0,,,,,,,,,,,,,,,,,,,,,,,,,,,,,,,,,,,,,,,,,,,,,110,10.0,f,028_y_f_s_a.jpg,sad,a,3,1,868.7257027,869.0202611299999,869.0399330999999,869.0632404300002,869.0638754000001,869.0982477300001,869.0981200000001,869.67048043,s,0,0.5644102999999632,564.4102999999632,869.0981200000001,869.67048043,869.6780472999999,871.1287072299999,EMOCONPILOT009,2020_Dec_12_1007,EmoCon_Pilot_120Hz,2020.2.4,120.25633841109189,
,,,,0,0,0,0,111,0,111,0,,,,,,,,,,,,,,,,,,,,,,,,,,,,,,,,,,,,,,,,,,,,,111,11.0,f,030_o_f_h_a.jpg,happy,d,3,1,871.1345087,871.4286912300001,871.6232116000001,871.6502999299998,871.6512585,871.6881223299999,871.6895758999999,872.2458695299999,d,1,0.5410384000001613,541.0384000001613,871.6895758999999,872.2458695299999,872.2540988999999,873.7535857300002,EMOCONPILOT009,2020_Dec_12_1007,EmoCon_Pilot_120Hz,2020.2.4,120.25633841109189,
,,,,0,0,0,0,112,0,112,0,,,,,,,,,,,,,,,,,,,,,,,,,,,,,,,,,,,,,,,,,,,,,112,7.0,f,012_o_f_n_a.jpg,neutral,s,3,1,873.7566895999998,874.0537221299999,874.2689688,874.2950964300001,874.2959943999999,874.33050033,874.3301038999998,874.8457990300001,d,0,0.5085353999998006,508.5353999998006,874.3301038999998,874.8457990300001,874.8554008000001,875.9285690300001,EMOCONPILOT009,2020_Dec_12_1007,EmoCon_Pilot_120Hz,2020.2.4,120.25633841109189,
,,,,0,0,0,0,113,0,113,0,,,,,,,,,,,,,,,,,,,,,,,,,,,,,,,,,,,,,,,,,,,,,113,2.0,m,008_y_m_s_a.jpg,sad,a,3,1,875.9313886999998,876.2288196299999,876.4725248999998,876.50025863,876.5050876999999,876.54544753,876.5504550999999,877.1598844299999,a,1,0.5922448999999688,592.2448999999688,876.5504550999999,877.1598844299999,877.1713770000001,878.29550313,EMOCONPILOT009,2020_Dec_12_1007,EmoCon_Pilot_120Hz,2020.2.4,120.25633841109189,
,,,,0,0,0,0,114,0,114,0,,,,,,,,,,,,,,,,,,,,,,,,,,,,,,,,,,,,,,,,,,,,,114,11.0,f,030_o_f_h_a.jpg,happy,d,3,1,878.3007016000001,878.5954113300002,878.8010942999999,878.8271140300001,878.8276246,878.86311443,878.8632532000001,879.6628840300002,d,1,0.7912416999997731,791.2416999997731,878.8632532000001,879.6628840300002,879.6713206999998,881.4536684299999,EMOCONPILOT009,2020_Dec_12_1007,EmoCon_Pilot_120Hz,2020.2.4,120.25633841109189,
,,,,0,0,0,0,115,0,115,0,,,,,,,,,,,,,,,,,,,,,,,,,,,,,,,,,,,,,,,,,,,,,115,3.0,m,013_y_m_h_a.jpg,happy,d,3,1,881.4563641,881.7537786300002,881.9848321,882.01081533,882.0110930000001,882.0466437299999,882.0467186000001,882.4553868300002,d,1,0.3997591000002103,399.7591000002103,882.0467186000001,882.4553868300002,882.4619120000002,883.9621634299999,EMOCONPILOT009,2020_Dec_12_1007,EmoCon_Pilot_120Hz,2020.2.4,120.25633841109189,
,,,,0,0,0,0,116,0,116,0,,,,,,,,,,,,,,,,,,,,,,,,,,,,,,,,,,,,,,,,,,,,,116,2.0,m,008_y_m_s_a.jpg,sad,a,3,1,883.9673938999999,884.2621500299999,884.5004262000002,884.5260443300001,884.5297712000001,884.5687899299999,884.5737647000001,885.2855398300001,a,1,0.7048517999996875,704.8517999996875,884.5737647000001,885.2855398300001,885.2970516,887.2622655299999,EMOCONPILOT009,2020_Dec_12_1007,EmoCon_Pilot_120Hz,2020.2.4,120.25633841109189,
,,,,0,0,0,0,117,0,117,0,,,,,,,,,,,,,,,,,,,,,,,,,,,,,,,,,,,,,,,,,,,,,117,3.0,m,013_y_m_n_a.jpg,neutral,s,3,1,887.2684732000002,887.5622733299999,887.8017043999998,887.8274884300001,887.8276353000001,887.8633570300001,887.8646964999998,888.5434351299998,s,1,0.6619031000000177,661.9031000000177,887.8646964999998,888.5434351299998,888.5526074999998,890.1207428300002,EMOCONPILOT009,2020_Dec_12_1007,EmoCon_Pilot_120Hz,2020.2.4,120.25633841109189,
,,,,0,0,0,0,118,0,118,0,,,,,,,,,,,,,,,,,,,,,,,,,,,,,,,,,,,,,,,,,,,,,118,6.0,m,033_o_m_n_a.jpg,neutral,s,3,1,890.1263058999998,890.4206637300001,890.6203903999999,890.6461900299998,890.6470635999999,890.6875806300002,890.6924082999999,891.2635639299999,s,1,0.5541152999999213,554.1152999999213,890.6924082999999,891.2635639299999,891.2749533000001,892.7290811300002,EMOCONPILOT009,2020_Dec_12_1007,EmoCon_Pilot_120Hz,2020.2.4,120.25633841109189,
,,,,0,0,0,0,119,0,119,0,,,,,,,,,,,,,,,,,,,,,,,,,,,,,,,,,,,,,,,,,,,,,119,6.0,m,033_o_m_n_a.jpg,neutral,s,3,1,892.7329843000002,893.02906263,893.2226633999999,893.2496959299999,893.2527885999998,893.29213783,893.2962053000001,894.0392454300002,s,1,0.7265438000003996,726.5438000003996,893.2962053000001,894.0392454300002,894.0516805000002,895.2123944299999,EMOCONPILOT009,2020_Dec_12_1007,EmoCon_Pilot_120Hz,2020.2.4,120.25633841109189,
,,,,1,0,1,0,0,0,0,0,,,,,,,,,,,,,,,,,,,,,,,,,,,,,,,,,,,,,,895.3062957000002,896.7635154299999,s,1.4441965000000891,1444.1965000000891,895.3062957000002,896.7635154299999,0,1.0,m,004_o_m_s_a.jpg,sad,a,2,2,896.7681355,897.0623612299999,897.0734425,897.0886736300001,897.0904138000001,897.12506633,897.1253250999998,897.96230343,s,0,0.825407400000131,825.407400000131,897.1253250999998,897.96230343,897.9714961,899.3208488299999,EMOCONPILOT009,2020_Dec_12_1007,EmoCon_Pilot_120Hz,2020.2.4,120.25633841109189,
,,,,1,0,1,0,1,0,1,0,,,,,,,,,,,,,,,,,,,,,,,,,,,,,,,,,,,,,,,,,,,,,1,9.0,f,021_o_f_n_a.jpg,neutral,s,2,2,899.3271101999999,899.6208499299998,899.8339068,899.8512407300002,899.8516144999999,899.8886552299998,899.8888488000002,900.8042401300002,a,0,0.9017776000000595,901.7776000000595,899.8888488000002,900.8042401300002,900.8073720000002,902.0291508299999,EMOCONPILOT009,2020_Dec_12_1007,EmoCon_Pilot_120Hz,2020.2.4,120.25633841109189,
,,,,1,0,1,0,2,0,2,0,,,,,,,,,,,,,,,,,,,,,,,,,,,,,,,,,,,,,,,,,,,,,2,11.0,f,030_o_f_s_a.jpg,sad,a,2,2,902.0294444000001,902.32931343,902.5385605000001,902.55553523,902.5588547000002,902.5978604300001,902.6031536,903.3568864299998,s,0,0.7393974000001435,739.3974000001435,902.6031536,903.3568864299998,903.3636870999999,905.0959159299998,EMOCONPILOT009,2020_Dec_12_1007,EmoCon_Pilot_120Hz,2020.2.4,120.25633841109189,
,,,,1,0,1,0,3,0,3,0,,,,,,,,,,,,,,,,,,,,,,,,,,,,,,,,,,,,,,,,,,,,,3,10.0,f,028_y_f_s_a.jpg,sad,a,17,2,905.1001482000001,905.3959290300002,905.4168269000002,905.5486110300001,905.5520824999999,905.5910219300001,905.5946067999998,906.4969798300001,a,1,0.8920123999996576,892.0123999996576,905.5946067999998,906.4969798300001,906.507811,907.6543055300001,EMOCONPILOT009,2020_Dec_12_1007,EmoCon_Pilot_120Hz,2020.2.4,120.25633841109189,
,,,,1,0,1,0,4,0,4,0,,,,,,,,,,,,,,,,,,,,,,,,,,,,,,,,,,,,,,,,,,,,,4,6.0,m,033_o_m_n_a.jpg,neutral,s,2,2,907.6581851999999,907.9543553299998,908.1649980000002,908.18235923,908.1835719999999,908.2215877299998,908.2269302,909.6457739300001,s,1,1.403733099999954,1403.733099999954,908.2269302,909.6457739300001,909.6572231,911.2043503299999,EMOCONPILOT009,2020_Dec_12_1007,EmoCon_Pilot_120Hz,2020.2.4,120.25633841109189,
,,,,1,0,1,0,5,0,5,0,,,,,,,,,,,,,,,,,,,,,,,,,,,,,,,,,,,,,,,,,,,,,5,1.0,m,004_o_m_n_a.jpg,neutral,s,2,2,911.2072090000001,911.5043102299999,911.7189478999999,911.7362716300001,911.7368001,911.7721769299999,911.7720794000002,913.3081622299999,s,1,1.5224313000003349,1522.4313000003349,911.7720794000002,913.3081622299999,913.3165125999999,915.0961811300001,EMOCONPILOT009,2020_Dec_12_1007,EmoCon_Pilot_120Hz,2020.2.4,120.25633841109189,
,,,,1,0,1,0,6,0,6,0,,,,,,,,,,,,,,,,,,,,,,,,,,,,,,,,,,,,,,,,,,,,,6,12.0,f,040_y_f_s_a.jpg,sad,a,17,2,915.1012209,915.3961311300002,915.4080226000001,915.5398011300001,915.5432924000002,915.58433403,915.5897863,916.28095663,a,1,0.6808007000004181,680.8007000004181,915.5897863,916.28095663,916.2916528000001,918.0294906299998,EMOCONPILOT009,2020_Dec_12_1007,EmoCon_Pilot_120Hz,2020.2.4,120.25633841109189,
,,,,1,0,1,0,7,0,7,0,,,,,,,,,,,,,,,,,,,,,,,,,,,,,,,,,,,,,,,,,,,,,7,9.0,f,021_o_f_n_a.jpg,neutral,s,17,2,918.0334699,918.32955943,918.5464056999999,918.7089796299999,918.7132968000001,918.7536597300002,918.7587002999999,919.8700792299999,s,1,1.1039842999998655,1103.9842999998655,918.7587002999999,919.8700792299999,919.8818159000002,921.6712992300002,EMOCONPILOT009,2020_Dec_12_1007,EmoCon_Pilot_120Hz,2020.2.4,120.25633841109189,
,,,,1,0,1,0,8,0,8,0,,,,,,,,,,,,,,,,,,,,,,,,,,,,,,,,,,,,,,,,,,,,,8,9.0,f,021_o_f_s_a.jpg,sad,a,17,2,921.6769327000002,921.9713079300002,921.9952822999999,922.1313158300002,922.1356231999998,922.1766512299998,922.1821251000001,922.7328927299998,a,1,0.5365486999999121,536.5486999999121,922.1821251000001,922.7328927299998,922.7441795999998,924.5546538299998,EMOCONPILOT009,2020_Dec_12_1007,EmoCon_Pilot_120Hz,2020.2.4,120.25633841109189,
,,,,1,0,1,0,9,0,9,0,,,,,,,,,,,,,,,,,,,,,,,,,,,,,,,,,,,,,,,,,,,,,9,4.0,m,016_y_m_s_a.jpg,sad,a,17,2,924.5589052,924.8548059299999,924.878103,925.0147696299998,925.0182934999998,925.0573433299999,925.0607633,925.6299193299999,a,1,0.5538815999998405,553.8815999998405,925.0607633,925.6299193299999,925.6397642000002,927.5213934300002,EMOCONPILOT009,2020_Dec_12_1007,EmoCon_Pilot_120Hz,2020.2.4,120.25633841109189,
,,,,1,0,1,0,10,0,10,0,,,,,,,,,,,,,,,,,,,,,,,,,,,,,,,,,,,,,,,,,,,,,10,7.0,f,012_o_f_n_a.jpg,neutral,s,2,2,927.5266342999998,927.8213929299998,928.0471089000002,928.0647593299998,928.0656844999999,928.0999863300001,928.0996734,929.0076544299998,s,1,0.8989126000001306,898.9126000001306,928.0996734,929.0076544299998,929.0152529000002,930.08813003,EMOCONPILOT009,2020_Dec_12_1007,EmoCon_Pilot_120Hz,2020.2.4,120.25633841109189,
,,,,1,0,1,0,11,0,11,0,,,,,,,,,,,,,,,,,,,,,,,,,,,,,,,,,,,,,,,,,,,,,11,2.0,m,008_y_m_n_a.jpg,neutral,s,2,2,930.0923748,930.3881207299999,930.6194332,930.6363177300002,930.6363308999998,930.67270153,930.6727946000001,931.5912958299998,a,0,0.9019521000000168,901.9521000000168,930.6727946000001,931.5912958299998,931.6007417000001,933.5215226299999,EMOCONPILOT009,2020_Dec_12_1007,EmoCon_Pilot_120Hz,2020.2.4,120.25633841109189,
,,,,1,0,1,0,12,0,12,0,,,,,,,,,,,,,,,,,,,,,,,,,,,,,,,,,,,,,,,,,,,,,12,1.0,m,004_o_m_s_a.jpg,sad,a,2,2,933.5256994000001,933.82166213,933.8438047,933.8586707299999,933.8595679999999,933.8977612299998,933.8988872999998,934.93704413,s,0,1.0276984999995875,1027.6984999995875,933.8988872999998,934.93704413,934.9460494,936.3882412300002,EMOCONPILOT009,2020_Dec_12_1007,EmoCon_Pilot_120Hz,2020.2.4,120.25633841109189,
,,,,1,0,1,0,13,0,13,0,,,,,,,,,,,,,,,,,,,,,,,,,,,,,,,,,,,,,,,,,,,,,13,7.0,f,012_o_f_h_a.jpg,happy,d,17,2,936.3922874,936.6882975299998,936.7132701999999,936.8482732300001,936.8520428000002,936.8895756300001,936.8926827,937.3432107299998,d,1,0.43403140000009444,434.03140000009444,936.8926827,937.3432107299998,937.3526382999999,938.6217284299998,EMOCONPILOT009,2020_Dec_12_1007,EmoCon_Pilot_120Hz,2020.2.4,120.25633841109189,
,,,,1,0,1,0,14,0,14,0,,,,,,,,,,,,,,,,,,,,,,,,,,,,,,,,,,,,,,,,,,,,,14,3.0,m,013_y_m_h_a.jpg,happy,d,17,2,938.6257838000001,938.9216321299998,939.1635633000001,939.3186157299999,939.3226694,939.3636816300002,939.3686392,939.7248378299998,d,1,0.3419733000000633,341.9733000000633,939.3686392,939.7248378299998,939.7360973999998,940.8966764300001,EMOCONPILOT009,2020_Dec_12_1007,EmoCon_Pilot_120Hz,2020.2.4,120.25633841109189,
,,,,1,0,1,0,15,0,15,0,,,,,,,,,,,,,,,,,,,,,,,,,,,,,,,,,,,,,,,,,,,,,15,11.0,f,030_o_f_n_a.jpg,neutral,s,17,2,940.9008159999998,941.1966644299998,941.3877198999999,941.5580095299999,941.5625089,941.6032637300002,941.6081906999998,942.1886103300001,s,1,0.566381900000124,566.381900000124,941.6081906999998,942.1886103300001,942.1999666000002,943.5384388300001,EMOCONPILOT009,2020_Dec_12_1007,EmoCon_Pilot_120Hz,2020.2.4,120.25633841109189,
,,,,1,0,1,0,16,0,16,0,,,,,,,,,,,,,,,,,,,,,,,,,,,,,,,,,,,,,,,,,,,,,16,3.0,m,013_y_m_n_a.jpg,neutral,s,2,2,943.5438064999998,943.8385096300001,944.0727663000002,944.0897069300001,944.0901144999998,944.1242238299999,944.1239749000001,944.73315463,s,1,0.5947049000001243,594.7049000001243,944.1239749000001,944.73315463,944.7422815,946.0134626299998,EMOCONPILOT009,2020_Dec_12_1007,EmoCon_Pilot_120Hz,2020.2.4,120.25633841109189,
,,,,1,0,1,0,17,0,17,0,,,,,,,,,,,,,,,,,,,,,,,,,,,,,,,,,,,,,,,,,,,,,17,9.0,f,021_o_f_h_a.jpg,happy,d,2,2,946.0190674999999,946.3134860299999,946.5254970999999,946.5426942299998,946.5427964,946.5786315299999,946.5789684000001,947.2149007300002,d,1,0.6276793000001817,627.6793000001817,946.5789684000001,947.2149007300002,947.2232542000002,948.38021933,EMOCONPILOT009,2020_Dec_12_1007,EmoCon_Pilot_120Hz,2020.2.4,120.25633841109189,
,,,,1,0,1,0,18,0,18,0,,,,,,,,,,,,,,,,,,,,,,,,,,,,,,,,,,,,,,,,,,,,,18,3.0,m,013_y_m_s_a.jpg,sad,a,2,2,948.384372,948.68016173,948.6980687,948.71360493,948.7143377000002,948.7487237299999,948.7483022000001,949.33509433,d,0,0.5782291000000441,578.2291000000441,948.7483022000001,949.33509433,949.3435783999998,951.14690193,EMOCONPILOT009,2020_Dec_12_1007,EmoCon_Pilot_120Hz,2020.2.4,120.25633841109189,
,,,,1,0,1,0,19,0,19,0,,,,,,,,,,,,,,,,,,,,,,,,,,,,,,,,,,,,,,,,,,,,,19,10.0,f,028_y_f_h_a.jpg,happy,d,2,2,951.1511550999999,951.44691463,951.4692286,951.4841695299999,951.4843701,951.52306613,951.523209,952.9906283299999,a,0,1.4514075000001867,1451.4075000001867,951.523209,952.9906283299999,952.9971916,954.7635324300002,EMOCONPILOT009,2020_Dec_12_1007,EmoCon_Pilot_120Hz,2020.2.4,120.25633841109189,
,,,,1,0,1,0,20,0,20,0,,,,,,,,,,,,,,,,,,,,,,,,,,,,,,,,,,,,,,,,,,,,,20,4.0,m,016_y_m_h_a.jpg,happy,d,17,2,954.7665407999998,955.0636163299998,955.0897460000001,955.2236791299999,955.2278669000002,955.2689404300002,955.2743276000001,955.80633883,d,1,0.5162715000001299,516.2715000001299,955.2743276000001,955.80633883,955.8180222999999,957.4803769299999,EMOCONPILOT009,2020_Dec_12_1007,EmoCon_Pilot_120Hz,2020.2.4,120.25633841109189,
,,,,1,0,1,0,21,0,21,0,,,,,,,,,,,,,,,,,,,,,,,,,,,,,,,,,,,,,,,,,,,,,21,6.0,m,033_o_m_h_a.jpg,happy,d,17,2,957.4865433,957.78047343,957.8163599999998,957.9485726300002,957.9505095,957.9899210299998,957.9927327,958.2492576299999,d,1,0.24581440000019938,245.81440000019938,957.9927327,958.2492576299999,958.2576935000002,959.42204513,EMOCONPILOT009,2020_Dec_12_1007,EmoCon_Pilot_120Hz,2020.2.4,120.25633841109189,
,,,,1,0,1,0,22,0,22,0,,,,,,,,,,,,,,,,,,,,,,,,,,,,,,,,,,,,,,,,,,,,,22,5.0,m,027_o_m_s_a.jpg,sad,a,2,2,959.4264164000001,959.72205603,959.7452825999999,959.76033373,959.7623205,959.7988028299999,959.8002144000002,960.54918453,s,0,0.7344284999999218,734.4284999999218,959.8002144000002,960.54918453,960.5599787000001,962.3054791299999,EMOCONPILOT009,2020_Dec_12_1007,EmoCon_Pilot_120Hz,2020.2.4,120.25633841109189,
,,,,1,0,1,0,23,0,23,0,,,,,,,,,,,,,,,,,,,,,,,,,,,,,,,,,,,,,,,,,,,,,23,10.0,f,028_y_f_n_a.jpg,neutral,s,2,2,962.3110360000001,962.6055042300002,962.8139489999999,962.8303405300001,962.8307447000002,962.8655623299999,962.8651513999998,963.5109119299998,s,1,0.6373515000000225,637.3515000000225,962.8651513999998,963.5109119299998,963.5193239,965.4639161299999,EMOCONPILOT009,2020_Dec_12_1007,EmoCon_Pilot_120Hz,2020.2.4,120.25633841109189,
,,,,1,0,1,0,24,0,24,0,,,,,,,,,,,,,,,,,,,,,,,,,,,,,,,,,,,,,,,,,,,,,24,9.0,f,021_o_f_n_a.jpg,neutral,s,2,2,965.468183,965.7639965300002,965.9670037000001,965.98507133,965.9887597000002,966.02821703,966.0327888000002,966.5580049299999,s,1,0.5177647999998953,517.7647999998953,966.0327888000002,966.5580049299999,966.5621163000001,968.1473247299998,EMOCONPILOT009,2020_Dec_12_1007,EmoCon_Pilot_120Hz,2020.2.4,120.25633841109189,
,,,,1,0,1,0,25,0,25,0,,,,,,,,,,,,,,,,,,,,,,,,,,,,,,,,,,,,,,,,,,,,,25,8.0,f,019_m_f_h_a.jpg,happy,d,2,2,968.1516538000001,968.4472818299998,968.4641704000001,968.4790957299999,968.4792843999999,968.5156507300001,968.5154059000001,969.1567440299998,d,1,0.6349006999998892,634.9006999998892,968.5154059000001,969.1567440299998,969.1610193000001,970.7140562299999,EMOCONPILOT009,2020_Dec_12_1007,EmoCon_Pilot_120Hz,2020.2.4,120.25633841109189,
,,,,1,0,1,0,26,0,26,0,,,,,,,,,,,,,,,,,,,,,,,,,,,,,,,,,,,,,,,,,,,,,26,4.0,m,016_y_m_n_a.jpg,neutral,s,2,2,970.719443,971.0140518300002,971.2593473000002,971.2762845300001,971.2799107999999,971.3202248300001,971.3241323000002,972.1430008300001,s,1,0.8026912000000266,802.6912000000266,971.3241323000002,972.1430008300001,972.1536986000001,973.4474696300001,EMOCONPILOT009,2020_Dec_12_1007,EmoCon_Pilot_120Hz,2020.2.4,120.25633841109189,
,,,,1,0,1,0,27,0,27,0,,,,,,,,,,,,,,,,,,,,,,,,,,,,,,,,,,,,,,,,,,,,,27,1.0,m,004_o_m_h_a.jpg,happy,d,17,2,973.4528968,973.7474724299998,973.9472519000001,974.10927203,974.1131586000001,974.1536121299998,974.1586633000002,975.1670842299998,d,1,0.9999403000001621,999.9403000001621,974.1586633000002,975.1670842299998,975.1788092000002,976.2308519300002,EMOCONPILOT009,2020_Dec_12_1007,EmoCon_Pilot_120Hz,2020.2.4,120.25633841109189,
,,,,1,0,1,0,28,0,28,0,,,,,,,,,,,,,,,,,,,,,,,,,,,,,,,,,,,,,,,,,,,,,28,10.0,f,028_y_f_s_a.jpg,sad,a,2,2,976.2364950000001,976.5307879300001,976.5467116,976.5620605299998,976.5627525999998,976.5985990299998,976.6000064,977.24591493,d,0,0.6305373000000145,630.5373000000145,976.6000064,977.24591493,977.2550363999999,978.7724919300001,EMOCONPILOT009,2020_Dec_12_1007,EmoCon_Pilot_120Hz,2020.2.4,120.25633841109189,
,,,,1,0,1,0,29,0,29,0,,,,,,,,,,,,,,,,,,,,,,,,,,,,,,,,,,,,,,,,,,,,,29,5.0,m,027_o_m_h_a.jpg,happy,d,17,2,978.7786187000002,979.0725955300002,979.2910388,979.45633213,979.4608736999999,979.5005772299999,979.5052485000001,979.7816420299998,d,1,0.26151089999984833,261.51089999984833,979.5052485000001,979.7816420299998,979.7930299,981.6975845300001,EMOCONPILOT009,2020_Dec_12_1007,EmoCon_Pilot_120Hz,2020.2.4,120.25633841109189,
,,,,1,0,1,0,30,0,30,0,,,,,,,,,,,,,,,,,,,,,,,,,,,,,,,,,,,,,,,,,,,,,30,10.0,f,028_y_f_h_a.jpg,happy,d,17,2,981.7022476000002,981.99764523,982.0189003999999,982.1491951300002,982.1524760000002,982.1904151299998,982.1939545999999,983.0237857300001,d,1,0.8127461999997649,812.7461999997649,982.1939545999999,983.0237857300001,983.0334837,984.1225964299999,EMOCONPILOT009,2020_Dec_12_1007,EmoCon_Pilot_120Hz,2020.2.4,120.25633841109189,
,,,,1,0,1,0,31,0,31,0,,,,,,,,,,,,,,,,,,,,,,,,,,,,,,,,,,,,,,,,,,,,,31,5.0,m,027_o_m_h_a.jpg,happy,d,17,2,984.1286881999999,984.42261093,984.6418896999999,984.81407393,984.8186721000002,984.8600038299999,984.8650785,985.27264163,d,1,0.397531699999945,397.531699999945,984.8650785,985.27264163,985.2843324,987.2393290299999,EMOCONPILOT009,2020_Dec_12_1007,EmoCon_Pilot_120Hz,2020.2.4,120.25633841109189,
,,,,1,0,1,0,32,0,32,0,,,,,,,,,,,,,,,,,,,,,,,,,,,,,,,,,,,,,,,,,,,,,32,9.0,f,021_o_f_n_a.jpg,neutral,s,17,2,987.2435432000002,987.53930453,987.7484027999999,987.91798683,987.9216096,987.9627572299999,987.9677175000002,988.4874827299998,s,1,0.5108673999998246,510.86739999982456,987.9677175000002,988.4874827299998,988.4991702000002,990.4811141299999,EMOCONPILOT009,2020_Dec_12_1007,EmoCon_Pilot_120Hz,2020.2.4,120.25633841109189,
,,,,1,0,1,0,33,0,33,0,,,,,,,,,,,,,,,,,,,,,,,,,,,,,,,,,,,,,,,,,,,,,33,3.0,m,013_y_m_s_a.jpg,sad,a,17,2,990.4850787,990.7810013300002,990.8044058999999,990.9410206300001,990.9441109999998,990.98228743,990.9857069999998,991.8885550299999,a,1,0.8927419999999984,892.7419999999984,990.9857069999998,991.8885550299999,991.8947327999999,993.78121893,EMOCONPILOT009,2020_Dec_12_1007,EmoCon_Pilot_120Hz,2020.2.4,120.25633841109189,
,,,,1,0,1,0,34,0,34,0,,,,,,,,,,,,,,,,,,,,,,,,,,,,,,,,,,,,,,,,,,,,,34,1.0,m,004_o_m_n_a.jpg,neutral,s,2,2,993.7854195,994.0811162299999,994.2938171999999,994.3106134299999,994.3110058000002,994.3489290300001,994.3503178000001,995.0256622300001,s,1,0.6642712000002575,664.2712000002575,994.3503178000001,995.0256622300001,995.0353584999998,996.9229839299999,EMOCONPILOT009,2020_Dec_12_1007,EmoCon_Pilot_120Hz,2020.2.4,120.25633841109189,
,,,,1,0,1,0,35,0,35,0,,,,,,,,,,,,,,,,,,,,,,,,,,,,,,,,,,,,,,,,,,,,,35,12.0,f,040_y_f_h_a.jpg,happy,d,17,2,996.9286032,997.2229642300001,997.2473371000001,997.3828559299998,997.3869441000002,997.4275441299999,997.4325770999999,997.9825409299999,d,1,0.5339668000001438,533.9668000001438,997.4325770999999,997.9825409299999,997.9938187000002,999.5396511299998,EMOCONPILOT009,2020_Dec_12_1007,EmoCon_Pilot_120Hz,2020.2.4,120.25633841109189,
,,,,1,0,1,0,36,0,36,0,,,,,,,,,,,,,,,,,,,,,,,,,,,,,,,,,,,,,,,,,,,,,36,10.0,f,028_y_f_n_a.jpg,neutral,s,17,2,999.5436740999999,999.8396737300002,1000.0401139,1000.1999974299999,1000.2046940999999,1000.2453272300002,1000.2505224000001,1000.5971375299998,s,1,0.3320671000001312,332.0671000001312,1000.2505224000001,1000.5971375299998,1000.6036576000001,1002.0396189300002,EMOCONPILOT009,2020_Dec_12_1007,EmoCon_Pilot_120Hz,2020.2.4,120.25633841109189,
,,,,1,0,1,0,37,0,37,0,,,,,,,,,,,,,,,,,,,,,,,,,,,,,,,,,,,,,,,,,,,,,37,11.0,f,030_o_f_n_a.jpg,neutral,s,2,2,1002.0435023999999,1002.3396280300001,1002.5306199000001,1002.5478445299998,1002.5480053000001,1002.58343283,1002.5833892,1003.1076939299999,s,1,0.5110905999999886,511.0905999999886,1002.5833892,1003.1076939299999,1003.1148397000002,1004.83130383,EMOCONPILOT009,2020_Dec_12_1007,EmoCon_Pilot_120Hz,2020.2.4,120.25633841109189,
,,,,1,0,1,0,38,0,38,0,,,,,,,,,,,,,,,,,,,,,,,,,,,,,,,,,,,,,,,,,,,,,38,1.0,m,004_o_m_h_a.jpg,happy,d,17,2,1004.8344643,1005.13139153,1005.3265501000001,1005.4960918300001,1005.5007716,1005.5420181299999,1005.5471640999999,1006.3097661300001,d,1,0.755659999999807,755.659999999807,1005.5471640999999,1006.3097661300001,1006.3205278999999,1007.67307413,EMOCONPILOT009,2020_Dec_12_1007,EmoCon_Pilot_120Hz,2020.2.4,120.25633841109189,
,,,,1,0,1,0,39,0,39,0,,,,,,,,,,,,,,,,,,,,,,,,,,,,,,,,,,,,,,,,,,,,,39,6.0,m,033_o_m_h_a.jpg,happy,d,17,2,1007.6776823999999,1007.9730697299999,1007.9975739000001,1008.1338518300001,1008.1371493000001,1008.1742889300001,1008.1774108,1008.4455857300002,d,1,0.2612007999996422,261.2007999996422,1008.1774108,1008.4455857300002,1008.4542689999998,1009.8147676299998,EMOCONPILOT009,2020_Dec_12_1007,EmoCon_Pilot_120Hz,2020.2.4,120.25633841109189,
,,,,1,0,1,0,40,0,40,0,,,,,,,,,,,,,,,,,,,,,,,,,,,,,,,,,,,,,,,,,,,,,40,7.0,f,012_o_f_h_a.jpg,happy,d,2,2,1009.8191499999998,1010.1148223299999,1010.1348839000002,1010.1504221299999,1010.1506697,1010.1849546300002,1010.1857116000001,1010.6791107299998,d,1,0.47692989999995916,476.92989999995916,1010.1857116000001,1010.6791107299998,1010.6872159999998,1011.8981403300002,EMOCONPILOT009,2020_Dec_12_1007,EmoCon_Pilot_120Hz,2020.2.4,120.25633841109189,
,,,,1,0,1,0,41,0,41,0,,,,,,,,,,,,,,,,,,,,,,,,,,,,,,,,,,,,,,,,,,,,,41,6.0,m,033_o_m_n_a.jpg,neutral,s,17,2,1011.8979135,1012.1982598299999,1012.4005829000002,1012.56916093,1012.57285,1012.6136969299998,1012.6185961000001,1013.0070070300001,s,1,0.3720797999999377,372.0797999999377,1012.6185961000001,1013.0070070300001,1013.0162473,1014.9483023300002,EMOCONPILOT009,2020_Dec_12_1007,EmoCon_Pilot_120Hz,2020.2.4,120.25633841109189,
,,,,1,0,1,0,42,0,42,0,,,,,,,,,,,,,,,,,,,,,,,,,,,,,,,,,,,,,,,,,,,,,42,7.0,f,012_o_f_h_a.jpg,happy,d,2,2,1014.9537264999999,1015.24827093,1015.2711715999999,1015.2861106299999,1015.2864671000002,1015.3243931300001,1015.3245992000002,1015.9257218300002,d,1,0.5942575000003671,594.2575000003671,1015.3245992000002,1015.9257218300002,1015.9371701,1017.88157953,EMOCONPILOT009,2020_Dec_12_1007,EmoCon_Pilot_120Hz,2020.2.4,120.25633841109189,
,,,,1,0,1,0,43,0,43,0,,,,,,,,,,,,,,,,,,,,,,,,,,,,,,,,,,,,,,,,,,,,,43,5.0,m,027_o_m_h_a.jpg,happy,d,17,2,1017.8845575,1018.1816869299998,1018.3943909999998,1018.5641139299998,1018.5688665000002,1018.6102810300001,1018.6144035000002,1018.9201054299999,d,1,0.28834009999991395,288.34009999991395,1018.6144035000002,1018.9201054299999,1018.9306790999999,1020.7900955299999,EMOCONPILOT009,2020_Dec_12_1007,EmoCon_Pilot_120Hz,2020.2.4,120.25633841109189,
,,,,1,0,1,0,44,0,44,0,,,,,,,,,,,,,,,,,,,,,,,,,,,,,,,,,,,,,,,,,,,,,44,10.0,f,028_y_f_s_a.jpg,sad,a,17,2,1020.7940850999998,1021.09009743,1021.1126168999999,1021.2500409299998,1021.2551398999999,1021.2961048300001,1021.3013513000001,1021.9821515299998,a,1,0.6733382000002166,673.3382000002166,1021.3013513000001,1021.9821515299998,1021.9937811,1023.5400809300002,EMOCONPILOT009,2020_Dec_12_1007,EmoCon_Pilot_120Hz,2020.2.4,120.25633841109189,
,,,,1,0,1,0,45,0,45,0,,,,,,,,,,,,,,,,,,,,,,,,,,,,,,,,,,,,,,,,,,,,,45,7.0,f,012_o_f_n_a.jpg,neutral,s,17,2,1023.544288,1023.8400792300001,1024.0548401,1024.2235908300001,1024.2282713999998,1024.2694898299999,1024.2730596000001,1024.7028898299998,s,1,0.4137390000000778,413.7390000000778,1024.2730596000001,1024.7028898299998,1024.7142562,1026.46518103,EMOCONPILOT009,2020_Dec_12_1007,EmoCon_Pilot_120Hz,2020.2.4,120.25633841109189,
,,,,1,0,1,0,46,0,46,0,,,,,,,,,,,,,,,,,,,,,,,,,,,,,,,,,,,,,,,,,,,,,46,1.0,m,004_o_m_n_a.jpg,neutral,s,2,2,1026.4705410000001,1026.7649674299998,1026.9490408000001,1026.96656663,1026.970097,1027.0092793299998,1027.0143008999999,1027.4717182299999,s,1,0.44836309999982404,448.36309999982404,1027.0143008999999,1027.4717182299999,1027.4822043,1028.7652684299999,EMOCONPILOT009,2020_Dec_12_1007,EmoCon_Pilot_120Hz,2020.2.4,120.25633841109189,
,,,,1,0,1,0,47,0,47,0,,,,,,,,,,,,,,,,,,,,,,,,,,,,,,,,,,,,,,,,,,,,,47,9.0,f,021_o_f_h_a.jpg,happy,d,2,2,1028.769311,1029.0651728300002,1029.2748101000002,1029.29200333,1029.2920577999998,1029.32695713,1029.3267246,1029.9600440299998,d,1,0.6239055999999437,623.9055999999437,1029.3267246,1029.9600440299998,1029.9728642999999,1031.77363403,EMOCONPILOT009,2020_Dec_12_1007,EmoCon_Pilot_120Hz,2020.2.4,120.25633841109189,
,,,,1,0,1,0,48,0,48,0,,,,,,,,,,,,,,,,,,,,,,,,,,,,,,,,,,,,,,,,,,,,,48,10.0,f,028_y_f_n_a.jpg,neutral,s,2,2,1031.7793421000001,1032.07361483,1032.2802196000002,1032.29657153,1032.2972495,1032.33301203,1032.3330376,1033.1116297299998,s,1,0.7695080999997117,769.5080999997117,1032.3330376,1033.1116297299998,1033.1192294000002,1034.28204183,EMOCONPILOT009,2020_Dec_12_1007,EmoCon_Pilot_120Hz,2020.2.4,120.25633841109189,
,,,,1,0,1,0,49,0,49,0,,,,,,,,,,,,,,,,,,,,,,,,,,,,,,,,,,,,,,,,,,,,,49,7.0,f,012_o_f_h_a.jpg,happy,d,17,2,1034.2859798999998,1034.5819640299999,1034.6046244,1034.7419888299999,1034.7454796000002,1034.7854202299998,1034.7898356,1035.1056519299998,s,0,0.3047594999998182,304.7594999998182,1034.7898356,1035.1056519299998,1035.1151595000001,1037.0070256299998,EMOCONPILOT009,2020_Dec_12_1007,EmoCon_Pilot_120Hz,2020.2.4,120.25633841109189,
,,,,1,0,1,0,50,0,50,0,,,,,,,,,,,,,,,,,,,,,,,,,,,,,,,,,,,,,,,,,,,,,50,5.0,m,027_o_m_h_a.jpg,happy,d,2,2,1037.0123353,1037.30709693,1037.5281583,1037.5454548300002,1037.5457163,1037.58329033,1037.5833483000001,1038.15945803,d,1,0.5593343999998979,559.3343999998979,1037.5833483000001,1038.15945803,1038.1672797,1039.8905157299998,EMOCONPILOT009,2020_Dec_12_1007,EmoCon_Pilot_120Hz,2020.2.4,120.25633841109189,
,,,,1,0,1,0,51,0,51,0,,,,,,,,,,,,,,,,,,,,,,,,,,,,,,,,,,,,,,,,,,,,,51,12.0,f,040_y_f_n_a.jpg,neutral,s,17,2,1039.8960513000002,1040.1902191299998,1040.3961610000001,1040.56159603,1040.5662271,1040.60564313,1040.6106975000002,1041.0176994300002,s,1,0.3958937999996124,395.8937999996124,1040.6106975000002,1041.0176994300002,1041.0283614,1042.55720783,EMOCONPILOT009,2020_Dec_12_1007,EmoCon_Pilot_120Hz,2020.2.4,120.25633841109189,
,,,,1,0,1,0,52,0,52,0,,,,,,,,,,,,,,,,,,,,,,,,,,,,,,,,,,,,,,,,,,,,,52,2.0,m,008_y_m_h_a.jpg,happy,d,17,2,1042.5624672,1042.85717413,1042.8720852000001,1043.00947093,1043.0139602,1043.05494553,1043.0600889000002,1043.43627343,d,1,0.362438099999963,362.438099999963,1043.0600889000002,1043.43627343,1043.4478761,1045.17387123,EMOCONPILOT009,2020_Dec_12_1007,EmoCon_Pilot_120Hz,2020.2.4,120.25633841109189,
,,,,1,0,1,0,53,0,53,0,,,,,,,,,,,,,,,,,,,,,,,,,,,,,,,,,,,,,,,,,,,,,53,6.0,m,033_o_m_h_a.jpg,happy,d,2,2,1045.1779433000002,1045.4739336300001,1045.4961674,1045.5110830299998,1045.5122559000001,1045.5500223299998,1045.5514652000002,1046.0983088300002,d,1,0.535257300000012,535.257300000012,1045.5514652000002,1046.0983088300002,1046.1089462999998,1047.9739633299998,EMOCONPILOT009,2020_Dec_12_1007,EmoCon_Pilot_120Hz,2020.2.4,120.25633841109189,
,,,,1,0,1,0,54,0,54,0,,,,,,,,,,,,,,,,,,,,,,,,,,,,,,,,,,,,,,,,,,,,,54,2.0,m,008_y_m_h_a.jpg,happy,d,17,2,1047.9770769000002,1048.2739727300002,1048.2962725000002,1048.4339747299998,1048.4373636999999,1048.47568453,1048.4786681,1048.8057658300002,d,1,0.3120171999999002,312.0171999999002,1048.4786681,1048.8057658300002,1048.8142327,1050.15733953,EMOCONPILOT009,2020_Dec_12_1007,EmoCon_Pilot_120Hz,2020.2.4,120.25633841109189,
,,,,1,0,1,0,55,0,55,0,,,,,,,,,,,,,,,,,,,,,,,,,,,,,,,,,,,,,,,,,,,,,55,12.0,f,040_y_f_h_a.jpg,happy,d,17,2,1050.1628609999998,1050.45740443,1050.4846917999998,1050.61732813,1050.6205909999999,1050.6599773300002,1050.6643564,1051.4068807299998,d,1,0.7263364000000365,726.3364000000365,1050.6643564,1051.4068807299998,1051.4188975000002,1052.7823807299999,EMOCONPILOT009,2020_Dec_12_1007,EmoCon_Pilot_120Hz,2020.2.4,120.25633841109189,
,,,,1,0,1,0,56,0,56,0,,,,,,,,,,,,,,,,,,,,,,,,,,,,,,,,,,,,,,,,,,,,,56,10.0,f,028_y_f_n_a.jpg,neutral,s,2,2,1052.7878578999998,1053.0823796299999,1053.2952906,1053.3123720299998,1053.3127712,1053.3501558300002,1053.3499913,1053.89240593,s,1,0.5285206999997172,528.5206999997172,1053.3499913,1053.89240593,1053.8988760000002,1055.04078143,EMOCONPILOT009,2020_Dec_12_1007,EmoCon_Pilot_120Hz,2020.2.4,120.25633841109189,
,,,,1,0,1,0,57,0,57,0,,,,,,,,,,,,,,,,,,,,,,,,,,,,,,,,,,,,,,,,,,,,,57,12.0,f,040_y_f_s_a.jpg,sad,a,17,2,1055.0448221000001,1055.34068563,1055.3639496,1055.5007671300002,1055.5040560000002,1055.54260313,1055.5478613999999,1056.1601812299998,a,1,0.6025477000002866,602.5477000002866,1055.5478613999999,1056.1601812299998,1056.1639771999999,1057.2074236299998,EMOCONPILOT009,2020_Dec_12_1007,EmoCon_Pilot_120Hz,2020.2.4,120.25633841109189,
,,,,1,0,1,0,58,0,58,0,,,,,,,,,,,,,,,,,,,,,,,,,,,,,,,,,,,,,,,,,,,,,58,5.0,m,027_o_m_n_a.jpg,neutral,s,2,2,1057.2116164,1057.50742753,1057.7185247000002,1057.7359840299998,1057.7369552999999,1057.77145843,1057.7712323,1058.5113717299998,s,1,0.7313174000000799,731.3174000000799,1057.7712323,1058.5113717299998,1058.5188191000002,1060.04918543,EMOCONPILOT009,2020_Dec_12_1007,EmoCon_Pilot_120Hz,2020.2.4,120.25633841109189,
,,,,1,0,1,0,59,0,59,0,,,,,,,,,,,,,,,,,,,,,,,,,,,,,,,,,,,,,,,,,,,,,59,4.0,m,016_y_m_s_a.jpg,sad,a,2,2,1060.0555663999999,1060.3492852299999,1060.3754103,1060.39126693,1060.3919976000002,1060.4280759300002,1060.4285243,1061.70514123,s,0,1.2660132999999405,1266.0132999999405,1060.4285243,1061.70514123,1061.713468,1063.3493301299998,EMOCONPILOT009,2020_Dec_12_1007,EmoCon_Pilot_120Hz,2020.2.4,120.25633841109189,
,,,,1,0,1,0,60,0,60,0,,,,,,,,,,,,,,,,,,,,,,,,,,,,,,,,,,,,,,,,,,,,,60,5.0,m,027_o_m_n_a.jpg,neutral,s,17,2,1063.3534902000001,1063.64929173,1063.8703403,1064.0321200300002,1064.0369223000002,1064.07825033,1064.0826124,1064.6288971299998,s,1,0.5320701000000554,532.0701000000554,1064.0826124,1064.6288971299998,1064.6372876,1065.8909414299999,EMOCONPILOT009,2020_Dec_12_1007,EmoCon_Pilot_120Hz,2020.2.4,120.25633841109189,
,,,,1,0,1,0,61,0,61,0,,,,,,,,,,,,,,,,,,,,,,,,,,,,,,,,,,,,,,,,,,,,,61,10.0,f,028_y_f_s_a.jpg,sad,a,17,2,1065.8955685,1066.19094763,1066.2116935,1066.3433152300001,1066.3467833,1066.3848190299998,1066.3880318000001,1066.80448443,s,0,0.4027197000000342,402.7197000000342,1066.3880318000001,1066.80448443,1066.8148904,1068.2660029299998,EMOCONPILOT009,2020_Dec_12_1007,EmoCon_Pilot_120Hz,2020.2.4,120.25633841109189,
,,,,1,0,1,0,62,0,62,0,,,,,,,,,,,,,,,,,,,,,,,,,,,,,,,,,,,,,,,,,,,,,62,3.0,m,013_y_m_n_a.jpg,neutral,s,2,2,1068.2701131,1068.5660531299998,1068.8103107000002,1068.8278149300002,1068.8310539,1068.8681576299998,1068.8710471,1069.77773043,s,1,0.8955590000000484,895.5590000000484,1068.8710471,1069.77773043,1069.7886658000002,1070.9244808300002,EMOCONPILOT009,2020_Dec_12_1007,EmoCon_Pilot_120Hz,2020.2.4,120.25633841109189,
,,,,1,0,1,0,63,0,63,0,,,,,,,,,,,,,,,,,,,,,,,,,,,,,,,,,,,,,,,,,,,,,63,4.0,m,016_y_m_s_a.jpg,sad,a,2,2,1070.9305267,1071.2244188299999,1071.2497712,1071.2648044300001,1071.2650307,1071.30107703,1071.3014099000002,1071.9930412299998,s,0,0.6810654000000795,681.0654000000795,1071.3014099000002,1071.9930412299998,1072.0004524,1073.8578948299999,EMOCONPILOT009,2020_Dec_12_1007,EmoCon_Pilot_120Hz,2020.2.4,120.25633841109189,
,,,,1,0,1,0,64,0,64,0,,,,,,,,,,,,,,,,,,,,,,,,,,,,,,,,,,,,,,,,,,,,,64,12.0,f,040_y_f_h_a.jpg,happy,d,17,2,1073.8631133,1074.15782083,1074.1830851999998,1074.3178160300001,1074.3221638999999,1074.36316783,1074.3684349,1074.8064594300001,d,1,0.4223425000000134,422.3425000000134,1074.3684349,1074.8064594300001,1074.8176269,1076.23286583,EMOCONPILOT009,2020_Dec_12_1007,EmoCon_Pilot_120Hz,2020.2.4,120.25633841109189,
,,,,1,0,1,0,65,0,65,0,,,,,,,,,,,,,,,,,,,,,,,,,,,,,,,,,,,,,,,,,,,,,65,5.0,m,027_o_m_n_a.jpg,neutral,s,2,2,1076.2366224000002,1076.5328210300002,1076.75907,1076.7763977299999,1076.7772112000002,1076.81185923,1076.8117029999999,1077.6879783299999,d,0,0.8669348000003083,866.9348000003083,1076.8117029999999,1077.6879783299999,1077.699802,1079.5162664299999,EMOCONPILOT009,2020_Dec_12_1007,EmoCon_Pilot_120Hz,2020.2.4,120.25633841109189,
,,,,1,0,1,0,66,0,66,0,,,,,,,,,,,,,,,,,,,,,,,,,,,,,,,,,,,,,,,,,,,,,66,6.0,m,033_o_m_s_a.jpg,sad,a,2,2,1079.5224392999999,1079.81626653,1079.8406052,1079.8555435300002,1079.8556131999999,1079.8924518299998,1079.8936905,1080.6465857300002,s,0,0.7450823000003766,745.0823000003766,1079.8936905,1080.6465857300002,1080.6568388,1081.8496597300002,EMOCONPILOT009,2020_Dec_12_1007,EmoCon_Pilot_120Hz,2020.2.4,120.25633841109189,
,,,,1,0,1,0,67,0,67,0,,,,,,,,,,,,,,,,,,,,,,,,,,,,,,,,,,,,,,,,,,,,,67,6.0,m,033_o_m_h_a.jpg,happy,d,2,2,1081.8537648000001,1082.1496275299999,1082.1727989,1082.18797733,1082.1884881,1082.2258290299999,1082.2258924000002,1082.8642566299998,d,1,0.6287695999999414,628.7695999999414,1082.2258924000002,1082.8642566299998,1082.8715972,1084.10806913,EMOCONPILOT009,2020_Dec_12_1007,EmoCon_Pilot_120Hz,2020.2.4,120.25633841109189,
,,,,1,0,1,0,68,0,68,0,,,,,,,,,,,,,,,,,,,,,,,,,,,,,,,,,,,,,,,,,,,,,68,2.0,m,008_y_m_s_a.jpg,sad,a,2,2,1084.1140786,1084.4080252299998,1084.6445546999998,1084.66156883,1084.6619731,1084.69661113,1084.6966077000002,1085.79296073,a,1,1.0859111999998277,1085.9111999998277,1084.6966077000002,1085.79296073,1085.8003552999999,1087.44134473,EMOCONPILOT009,2020_Dec_12_1007,EmoCon_Pilot_120Hz,2020.2.4,120.25633841109189,
,,,,1,0,1,0,69,0,69,0,,,,,,,,,,,,,,,,,,,,,,,,,,,,,,,,,,,,,,,,,,,,,69,1.0,m,004_o_m_n_a.jpg,neutral,s,2,2,1087.4453795,1087.7413638300002,1087.9361706,1087.9538690299999,1087.9571356000001,1087.9949497300001,1087.9992432,1088.66979613,s,1,0.655405200000132,655.405200000132,1087.9992432,1088.66979613,1088.6826252,1090.1248137300001,EMOCONPILOT009,2020_Dec_12_1007,EmoCon_Pilot_120Hz,2020.2.4,120.25633841109189,
,,,,1,0,1,0,70,0,70,0,,,,,,,,,,,,,,,,,,,,,,,,,,,,,,,,,,,,,,,,,,,,,70,2.0,m,008_y_m_s_a.jpg,sad,a,17,2,1090.1297123,1090.4248405300002,1090.6644018000002,1090.82012073,1090.8236361,1090.86364123,1090.8688634999999,1091.4692308299998,a,1,0.5858616000000438,585.8616000000438,1090.8688634999999,1091.4692308299998,1091.4806189,1092.9998616300002,EMOCONPILOT009,2020_Dec_12_1007,EmoCon_Pilot_120Hz,2020.2.4,120.25633841109189,
,,,,1,0,1,0,71,0,71,0,,,,,,,,,,,,,,,,,,,,,,,,,,,,,,,,,,,,,,,,,,,,,71,11.0,f,030_o_f_n_a.jpg,neutral,s,17,2,1093.0039428,1093.2998527299999,1093.4986268000002,1093.6594114299999,1093.6641527000002,1093.7050686300001,1093.7103487,1094.64582753,s,1,0.9282707999996092,928.2707999996092,1093.7103487,1094.64582753,1094.6577053,1096.16658283,EMOCONPILOT009,2020_Dec_12_1007,EmoCon_Pilot_120Hz,2020.2.4,120.25633841109189,
,,,,1,0,1,0,72,0,72,0,,,,,,,,,,,,,,,,,,,,,,,,,,,,,,,,,,,,,,,,,,,,,72,11.0,f,030_o_f_n_a.jpg,neutral,s,2,2,1096.1704733000001,1096.4665923300001,1096.6704433999998,1096.68790723,1096.6912312,1096.7311668300001,1096.7362506,1097.2879746299998,s,1,0.5423141000001124,542.3141000001124,1096.7362506,1097.2879746299998,1097.2962860000002,1098.7582954299999,EMOCONPILOT009,2020_Dec_12_1007,EmoCon_Pilot_120Hz,2020.2.4,120.25633841109189,
,,,,1,0,1,0,73,0,73,0,,,,,,,,,,,,,,,,,,,,,,,,,,,,,,,,,,,,,,,,,,,,,73,2.0,m,008_y_m_s_a.jpg,sad,a,2,2,1098.7624096999998,1099.0583149299998,1099.2876660000002,1099.3048080299998,1099.3078224,1099.34576073,1099.3501999999999,1100.15676793,a,1,0.7924348999999893,792.4348999999893,1099.3501999999999,1100.15676793,1100.1680412,1101.6083669299999,EMOCONPILOT009,2020_Dec_12_1007,EmoCon_Pilot_120Hz,2020.2.4,120.25633841109189,
,,,,1,0,1,0,74,0,74,0,,,,,,,,,,,,,,,,,,,,,,,,,,,,,,,,,,,,,,,,,,,,,74,11.0,f,030_o_f_n_a.jpg,neutral,s,17,2,1101.6126711000002,1101.9083496300002,1102.1115441000002,1102.27409783,1102.2787572000002,1102.3197302299998,1102.3238181000002,1103.18901643,s,1,0.8509776000000784,850.9776000000784,1102.3238181000002,1103.18901643,1103.2002839000002,1104.9418001299998,EMOCONPILOT009,2020_Dec_12_1007,EmoCon_Pilot_120Hz,2020.2.4,120.25633841109189,
,,,,1,0,1,0,75,0,75,0,,,,,,,,,,,,,,,,,,,,,,,,,,,,,,,,,,,,,,,,,,,,,75,1.0,m,004_o_m_s_a.jpg,sad,a,2,2,1104.9472643,1105.24184843,1105.2656831,1105.28126223,1105.2819998999998,1105.3179474299998,1105.3178956000002,1106.1671328300001,d,0,0.8407219000000623,840.7219000000623,1105.3178956000002,1106.1671328300001,1106.1754592000002,1107.2501473300001,EMOCONPILOT009,2020_Dec_12_1007,EmoCon_Pilot_120Hz,2020.2.4,120.25633841109189,
,,,,1,0,1,0,76,0,76,0,,,,,,,,,,,,,,,,,,,,,,,,,,,,,,,,,,,,,,,,,,,,,76,3.0,m,013_y_m_n_a.jpg,neutral,s,2,2,1107.2542572000002,1107.55021483,1107.7948852999998,1107.8123219299998,1107.8126575000001,1107.84739053,1107.8472897000001,1108.44141663,s,1,0.5833904999999504,583.3904999999504,1107.8472897000001,1108.44141663,1108.4490927000002,1110.1419090299999,EMOCONPILOT009,2020_Dec_12_1007,EmoCon_Pilot_120Hz,2020.2.4,120.25633841109189,
,,,,1,0,1,0,77,0,77,0,,,,,,,,,,,,,,,,,,,,,,,,,,,,,,,,,,,,,,,,,,,,,77,7.0,f,012_o_f_s_a.jpg,sad,a,17,2,1110.1472273,1110.4419912300002,1110.4654147,1110.6020915299998,1110.6055907999998,1110.64633273,1110.6508182000002,1111.19191123,a,1,0.5240995999997722,524.0995999997722,1110.6508182000002,1111.19191123,1111.2032669,1112.91691913,EMOCONPILOT009,2020_Dec_12_1007,EmoCon_Pilot_120Hz,2020.2.4,120.25633841109189,
,,,,1,0,1,0,78,0,78,0,,,,,,,,,,,,,,,,,,,,,,,,,,,,,,,,,,,,,,,,,,,,,78,12.0,f,040_y_f_n_a.jpg,neutral,s,2,2,1112.9210013000002,1113.21694133,1113.4443058000002,1113.46210073,1113.4632304000002,1113.5032472300002,1113.5075084999999,1114.1997371300001,s,1,0.6752185000000281,675.2185000000281,1113.5075084999999,1114.1997371300001,1114.2111223000002,1115.76701763,EMOCONPILOT009,2020_Dec_12_1007,EmoCon_Pilot_120Hz,2020.2.4,120.25633841109189,
,,,,1,0,1,0,79,0,79,0,,,,,,,,,,,,,,,,,,,,,,,,,,,,,,,,,,,,,,,,,,,,,79,6.0,m,033_o_m_h_a.jpg,happy,d,17,2,1115.7730737000002,1116.06709033,1116.0916057,1116.2270526300001,1116.2303740000002,1116.2715933299999,1116.2769643000001,1116.6243188300002,d,1,0.3378308000001198,337.8308000001198,1116.2769643000001,1116.6243188300002,1116.6356144000001,1118.6170260299998,EMOCONPILOT009,2020_Dec_12_1007,EmoCon_Pilot_120Hz,2020.2.4,120.25633841109189,
,,,,1,0,1,0,80,0,80,0,,,,,,,,,,,,,,,,,,,,,,,,,,,,,,,,,,,,,,,,,,,,,80,2.0,m,008_y_m_n_a.jpg,neutral,s,2,2,1118.6211754,1118.9170814299998,1119.1623386,1119.1792096299998,1119.1799136999998,1119.2156504299999,1119.2154344,1120.75686303,a,0,1.5271692000001167,1527.1692000001167,1119.2154344,1120.75686303,1120.7659377999998,1122.0920680299998,EMOCONPILOT009,2020_Dec_12_1007,EmoCon_Pilot_120Hz,2020.2.4,120.25633841109189,
,,,,1,0,1,0,81,0,81,0,,,,,,,,,,,,,,,,,,,,,,,,,,,,,,,,,,,,,,,,,,,,,81,12.0,f,040_y_f_h_a.jpg,happy,d,17,2,1122.0949206999999,1122.3920933299999,1122.4153388,1122.5523460299999,1122.5558569999998,1122.5970896299998,1122.6022408,1123.05054473,d,1,0.43648380000013276,436.48380000013276,1122.6022408,1123.05054473,1123.0621039000002,1124.6089107300002,EMOCONPILOT009,2020_Dec_12_1007,EmoCon_Pilot_120Hz,2020.2.4,120.25633841109189,
,,,,1,0,1,0,82,0,82,0,,,,,,,,,,,,,,,,,,,,,,,,,,,,,,,,,,,,,,,,,,,,,82,9.0,f,021_o_f_h_a.jpg,happy,d,17,2,1124.6130291999998,1124.90890913,1125.1283754,1125.28891753,1125.2936134000001,1125.3347642299998,1125.3397704,1125.6366111300001,d,1,0.283030300000064,283.030300000064,1125.3397704,1125.6366111300001,1125.6480755000002,1126.9839512299998,EMOCONPILOT009,2020_Dec_12_1007,EmoCon_Pilot_120Hz,2020.2.4,120.25633841109189,
,,,,1,0,1,0,83,0,83,0,,,,,,,,,,,,,,,,,,,,,,,,,,,,,,,,,,,,,,,,,,,,,83,6.0,m,033_o_m_h_a.jpg,happy,d,17,2,1126.9866517,1127.2839181299998,1127.2989388,1127.4355747299999,1127.4385984,1127.47741923,1127.4814539,1127.7750650300002,d,1,0.2853576000002249,285.3576000002249,1127.4814539,1127.7750650300002,1127.7856508,1129.0673828299998,EMOCONPILOT009,2020_Dec_12_1007,EmoCon_Pilot_120Hz,2020.2.4,120.25633841109189,
,,,,1,0,1,0,84,0,84,0,,,,,,,,,,,,,,,,,,,,,,,,,,,,,,,,,,,,,,,,,,,,,84,2.0,m,008_y_m_n_a.jpg,neutral,s,17,2,1129.0725888000002,1129.36731373,1129.6055084999998,1129.77431293,1129.7791981999999,1129.81873423,1129.8228502000002,1130.4157400299998,s,1,0.5759201999999277,575.9201999999277,1129.8228502000002,1130.4157400299998,1130.4286035,1131.55898293,EMOCONPILOT009,2020_Dec_12_1007,EmoCon_Pilot_120Hz,2020.2.4,120.25633841109189,
,,,,1,0,1,0,85,0,85,0,,,,,,,,,,,,,,,,,,,,,,,,,,,,,,,,,,,,,,,,,,,,,85,10.0,f,028_y_f_n_a.jpg,neutral,s,2,2,1131.5631254999998,1131.85898913,1132.0623956999998,1132.0792862300002,1132.0814891999999,1132.1185189300002,1132.1228904,1132.69221403,s,1,0.5559759999996459,555.9759999996459,1132.1228904,1132.69221403,1132.7035787999998,1134.46746263,EMOCONPILOT009,2020_Dec_12_1007,EmoCon_Pilot_120Hz,2020.2.4,120.25633841109189,
,,,,1,0,1,0,86,0,86,0,,,,,,,,,,,,,,,,,,,,,,,,,,,,,,,,,,,,,,,,,,,,,86,6.0,m,033_o_m_h_a.jpg,happy,d,17,2,1134.4712052,1134.76737063,1134.7886009,1134.9190258299998,1134.9219491,1134.96033273,1134.96447,1135.44026533,d,1,0.4661631000003581,466.1631000003581,1134.96447,1135.44026533,1135.4511088,1137.25087603,EMOCONPILOT009,2020_Dec_12_1007,EmoCon_Pilot_120Hz,2020.2.4,120.25633841109189,
,,,,1,0,1,0,87,0,87,0,,,,,,,,,,,,,,,,,,,,,,,,,,,,,,,,,,,,,,,,,,,,,87,5.0,m,027_o_m_s_a.jpg,sad,a,2,2,1137.2566284,1137.55083103,1137.5721919000002,1137.58779893,1137.5883595999999,1137.6232456300002,1137.6233109,1138.31383243,s,0,0.6792736000002151,679.2736000002151,1137.6233109,1138.31383243,1138.3226725999998,1139.9758413299999,EMOCONPILOT009,2020_Dec_12_1007,EmoCon_Pilot_120Hz,2020.2.4,120.25633841109189,
,,,,1,0,1,0,88,0,88,0,,,,,,,,,,,,,,,,,,,,,,,,,,,,,,,,,,,,,,,,,,,,,88,7.0,f,012_o_f_s_a.jpg,sad,a,2,2,1139.9791621,1140.2758596299998,1140.3008596,1140.31687033,1140.3183935000002,1140.3558896299999,1140.3572954,1140.85490473,s,0,0.48927139999977953,489.27139999977953,1140.3572954,1140.85490473,1140.8615153,1141.8675353299998,EMOCONPILOT009,2020_Dec_12_1007,EmoCon_Pilot_120Hz,2020.2.4,120.25633841109189,
,,,,1,0,1,0,89,0,89,0,,,,,,,,,,,,,,,,,,,,,,,,,,,,,,,,,,,,,,,,,,,,,89,2.0,m,008_y_m_h_a.jpg,happy,d,17,2,1141.8717514,1142.16749933,1142.1823826999998,1142.3191687299998,1142.3199791000002,1142.36039993,1142.3615666,1142.96063793,d,1,0.589117499999702,589.117499999702,1142.3615666,1142.96063793,1142.969724,1144.95106543,EMOCONPILOT009,2020_Dec_12_1007,EmoCon_Pilot_120Hz,2020.2.4,120.25633841109189,
,,,,1,0,1,0,90,0,90,0,,,,,,,,,,,,,,,,,,,,,,,,,,,,,,,,,,,,,,,,,,,,,90,7.0,f,012_o_f_h_a.jpg,happy,d,17,2,1144.9566495,1145.25091833,1145.2713168999999,1145.40261243,1145.4068827,1145.44791143,1145.4530300000001,1145.8124313300002,d,1,0.34580400000004374,345.80400000004374,1145.4530300000001,1145.8124313300002,1145.8234974000002,1147.05926793,EMOCONPILOT009,2020_Dec_12_1007,EmoCon_Pilot_120Hz,2020.2.4,120.25633841109189,
,,,,1,0,1,0,91,0,91,0,,,,,,,,,,,,,,,,,,,,,,,,,,,,,,,,,,,,,,,,,,,,,91,10.0,f,028_y_f_s_a.jpg,sad,a,17,2,1147.0622033999998,1147.3593901299998,1147.3794695000001,1147.51121553,1147.5158938,1147.55558463,1147.5600512,1148.2214815300001,a,1,0.6466120999998566,646.6120999998566,1147.5600512,1148.2214815300001,1148.2330086000002,1149.86754163,EMOCONPILOT009,2020_Dec_12_1007,EmoCon_Pilot_120Hz,2020.2.4,120.25633841109189,
,,,,1,0,1,0,92,0,92,0,,,,,,,,,,,,,,,,,,,,,,,,,,,,,,,,,,,,,,,,,,,,,92,12.0,f,040_y_f_s_a.jpg,sad,a,17,2,1149.8682385000002,1150.1678362300001,1150.1933654,1150.3277485299998,1150.3319106,1150.3706860300001,1150.3740763,1151.28629733,a,1,0.8965327000000798,896.5327000000798,1150.3740763,1151.28629733,1151.29677,1153.0011120299998,EMOCONPILOT009,2020_Dec_12_1007,EmoCon_Pilot_120Hz,2020.2.4,120.25633841109189,
,,,,1,0,1,0,93,0,93,0,,,,,,,,,,,,,,,,,,,,,,,,,,,,,,,,,,,,,,,,,,,,,93,2.0,m,008_y_m_n_a.jpg,neutral,s,2,2,1153.0066307000002,1153.30119963,1153.554986,1153.57250293,1153.5752889,1153.6126188300002,1153.6172405000002,1154.21785863,s,1,0.589361899999858,589.361899999858,1153.6172405000002,1154.21785863,1154.2263297999998,1155.9596073300002,EMOCONPILOT009,2020_Dec_12_1007,EmoCon_Pilot_120Hz,2020.2.4,120.25633841109189,
,,,,1,0,1,0,94,0,94,0,,,,,,,,,,,,,,,,,,,,,,,,,,,,,,,,,,,,,,,,,,,,,94,11.0,f,030_o_f_s_a.jpg,sad,a,2,2,1155.9653655000002,1156.25950563,1156.4695995000002,1156.4870560299998,1156.4879277999999,1156.52366083,1156.5229874000001,1157.2060665299998,s,0,0.6756169000000227,675.6169000000227,1156.5229874000001,1157.2060665299998,1157.2135297,1158.62620223,EMOCONPILOT009,2020_Dec_12_1007,EmoCon_Pilot_120Hz,2020.2.4,120.25633841109189,
,,,,1,0,1,0,95,0,95,0,,,,,,,,,,,,,,,,,,,,,,,,,,,,,,,,,,,,,,,,,,,,,95,9.0,f,021_o_f_n_a.jpg,neutral,s,17,2,1158.630458,1158.9263165300001,1159.137464,1159.30125953,1159.3058099999998,1159.34605163,1159.3503777,1159.91100283,s,1,0.5523404999999002,552.3404999999002,1159.3503777,1159.91100283,1159.9186374,1161.28465403,EMOCONPILOT009,2020_Dec_12_1007,EmoCon_Pilot_120Hz,2020.2.4,120.25633841109189,
,,,,1,0,1,0,96,0,96,0,,,,,,,,,,,,,,,,,,,,,,,,,,,,,,,,,,,,,,,,,,,,,96,6.0,m,033_o_m_h_a.jpg,happy,d,2,2,1161.2896878000001,1161.5845863299999,1161.6076386,1161.62295693,1161.6249773999998,1161.66265623,1161.6645109,1162.1684106300002,d,1,0.4940314999998918,494.0314999998918,1161.6645109,1162.1684106300002,1162.1757056000001,1163.67609673,EMOCONPILOT009,2020_Dec_12_1007,EmoCon_Pilot_120Hz,2020.2.4,120.25633841109189,
,,,,1,0,1,0,97,0,97,0,,,,,,,,,,,,,,,,,,,,,,,,,,,,,,,,,,,,,,,,,,,,,97,3.0,m,013_y_m_s_a.jpg,sad,a,2,2,1163.6761551,1163.97644293,1163.9972332000002,1164.0125540299998,1164.0130969000002,1164.04791623,1164.0484052000002,1164.99869083,a,1,0.9341878999998698,934.1878999998698,1164.0484052000002,1164.99869083,1165.0067986,1166.0763991299998,EMOCONPILOT009,2020_Dec_12_1007,EmoCon_Pilot_120Hz,2020.2.4,120.25633841109189,
,,,,1,0,1,0,98,0,98,0,,,,,,,,,,,,,,,,,,,,,,,,,,,,,,,,,,,,,,,,,,,,,98,12.0,f,040_y_f_s_a.jpg,sad,a,2,2,1166.0815659999998,1166.3764819300002,1166.4025507000001,1166.4179538300002,1166.4184353,1166.4527531299998,1166.4525975000001,1167.15010943,s,0,0.6820366000001741,682.0366000001741,1166.4525975000001,1167.15010943,1167.1574296,1168.2261817299998,EMOCONPILOT009,2020_Dec_12_1007,EmoCon_Pilot_120Hz,2020.2.4,120.25633841109189,
,,,,1,0,1,0,99,0,99,0,,,,,,,,,,,,,,,,,,,,,,,,,,,,,,,,,,,,,,,,,,,,,99,11.0,f,030_o_f_s_a.jpg,sad,a,2,2,1168.2263589,1168.5264211299998,1168.7300461,1168.74741243,1168.7493402,1168.78676693,1168.7898860999999,1169.3096879299999,s,0,0.5128004000002875,512.8004000002875,1168.7898860999999,1169.3096879299999,1169.3213167,1170.42647823,EMOCONPILOT009,2020_Dec_12_1007,EmoCon_Pilot_120Hz,2020.2.4,120.25633841109189,
,,,,1,0,1,0,100,0,100,0,,,,,,,,,,,,,,,,,,,,,,,,,,,,,,,,,,,,,,,,,,,,,100,8.0,f,019_m_f_n_a.jpg,neutral,s,17,2,1170.4307279999998,1170.7264788300001,1170.9542587,1171.1161758300002,1171.1206461000002,1171.15977163,1171.163451,1171.5494799300002,s,1,0.3712041999997382,371.2041999997382,1171.163451,1171.5494799300002,1171.5601753,1172.6848335299999,EMOCONPILOT009,2020_Dec_12_1007,EmoCon_Pilot_120Hz,2020.2.4,120.25633841109189,
,,,,1,0,1,0,101,0,101,0,,,,,,,,,,,,,,,,,,,,,,,,,,,,,,,,,,,,,,,,,,,,,101,6.0,m,033_o_m_h_a.jpg,happy,d,17,2,1172.6899804999998,1172.98482983,1172.9969114,1173.12812073,1173.1308429,1173.16940313,1173.1716216,1173.65184863,d,1,0.4669549999998708,466.9549999998708,1173.1716216,1173.65184863,1173.6597849,1175.1849407299999,EMOCONPILOT009,2020_Dec_12_1007,EmoCon_Pilot_120Hz,2020.2.4,120.25633841109189,
,,,,1,0,1,0,102,0,102,0,,,,,,,,,,,,,,,,,,,,,,,,,,,,,,,,,,,,,,,,,,,,,102,9.0,f,021_o_f_s_a.jpg,sad,a,17,2,1175.1889851,1175.4849802299998,1175.5080008,1175.64494133,1175.6485650999998,1175.6899076299999,1175.6951,1176.38214073,a,1,0.6716450999997505,671.6450999997505,1175.6951,1176.38214073,1176.3898986,1178.38497123,EMOCONPILOT009,2020_Dec_12_1007,EmoCon_Pilot_120Hz,2020.2.4,120.25633841109189,
,,,,1,0,1,0,103,0,103,0,,,,,,,,,,,,,,,,,,,,,,,,,,,,,,,,,,,,,,,,,,,,,103,4.0,m,016_y_m_n_a.jpg,neutral,s,2,2,1178.3890468999998,1178.68495853,1178.9318567999999,1178.94885163,1178.9500656,1178.98763153,1178.9915289,1179.6954438300002,s,1,0.6870943000003535,687.0943000003535,1178.9915289,1179.6954438300002,1179.7033067000002,1180.91835823,EMOCONPILOT009,2020_Dec_12_1007,EmoCon_Pilot_120Hz,2020.2.4,120.25633841109189,
,,,,1,0,1,0,104,0,104,0,,,,,,,,,,,,,,,,,,,,,,,,,,,,,,,,,,,,,,,,,,,,,104,8.0,f,019_m_f_h_a.jpg,happy,d,17,2,1180.9226210000002,1181.2183578299998,1181.2406569999998,1181.37833063,1181.3818777000001,1181.42002213,1181.4230808000002,1181.72627563,d,1,0.29552190000003975,295.52190000003975,1181.4230808000002,1181.72627563,1181.7374067,1183.0934810299998,EMOCONPILOT009,2020_Dec_12_1007,EmoCon_Pilot_120Hz,2020.2.4,120.25633841109189,
,,,,1,0,1,0,105,0,105,0,,,,,,,,,,,,,,,,,,,,,,,,,,,,,,,,,,,,,,,,,,,,,105,3.0,m,013_y_m_n_a.jpg,neutral,s,2,2,1183.0978448,1183.39338063,1183.6263804,1183.6434184299999,1183.6439335999999,1183.6783588300002,1183.6793065000002,1184.20451703,d,0,0.5113426000002619,511.3426000002619,1183.6793065000002,1184.20451703,1184.2111537,1186.17678383,EMOCONPILOT009,2020_Dec_12_1007,EmoCon_Pilot_120Hz,2020.2.4,120.25633841109189,
,,,,1,0,1,0,106,0,106,0,,,,,,,,,,,,,,,,,,,,,,,,,,,,,,,,,,,,,,,,,,,,,106,12.0,f,040_y_f_s_a.jpg,sad,a,2,2,1186.1809521,1186.4767782299998,1186.502797,1186.51854833,1186.5192419,1186.55551863,1186.5559736,1187.2734624299999,s,0,0.7065883999998732,706.5883999998732,1186.5559736,1187.2734624299999,1187.2809963999998,1188.3850761299998,EMOCONPILOT009,2020_Dec_12_1007,EmoCon_Pilot_120Hz,2020.2.4,120.25633841109189,
,,,,1,0,1,0,107,0,107,0,,,,,,,,,,,,,,,,,,,,,,,,,,,,,,,,,,,,,,,,,,,,,107,4.0,m,016_y_m_h_a.jpg,happy,d,2,2,1188.3881528000002,1188.68512213,1188.7041196,1188.72004813,1188.7203760000002,1188.7546619299999,1188.7545553999998,1189.6645746299998,s,0,0.9000459999997474,900.0459999997474,1188.7545553999998,1189.6645746299998,1189.6728754,1190.8685183300001,EMOCONPILOT009,2020_Dec_12_1007,EmoCon_Pilot_120Hz,2020.2.4,120.25633841109189,
,,,,1,0,1,0,108,0,108,0,,,,,,,,,,,,,,,,,,,,,,,,,,,,,,,,,,,,,,,,,,,,,108,11.0,f,030_o_f_s_a.jpg,sad,a,2,2,1190.8713122,1191.1684997300001,1191.3786997000002,1191.39622273,1191.3969742,1191.4311178300002,1191.431357,1192.00082283,s,0,0.5592808000001241,559.2808000001241,1191.431357,1192.00082283,1192.008093,1193.1269727299998,EMOCONPILOT009,2020_Dec_12_1007,EmoCon_Pilot_120Hz,2020.2.4,120.25633841109189,
,,,,1,0,1,0,109,0,109,0,,,,,,,,,,,,,,,,,,,,,,,,,,,,,,,,,,,,,,,,,,,,,109,9.0,f,021_o_f_s_a.jpg,sad,a,2,2,1193.1322623,1193.4269517300002,1193.4490581999999,1193.4639801300002,1193.4647873,1193.50312073,1193.5042477000002,1194.0160182299999,s,0,0.5024631000001136,502.4631000001136,1193.5042477000002,1194.0160182299999,1194.0273868,1195.3269704299998,EMOCONPILOT009,2020_Dec_12_1007,EmoCon_Pilot_120Hz,2020.2.4,120.25633841109189,
