trials_example.thisRepN,trials_example.thisTrialN,trials_example.thisN,trials_example.thisIndex,block.thisRepN,block.thisTrialN,block.thisN,block.thisIndex,trials_study.thisRepN,trials_study.thisTrialN,trials_study.thisN,trials_study.thisIndex,text_welcome.started,text_welcome.stopped,text_intro.started,text_intro.stopped,key_resp_intro.keys,key_resp_intro.rt,key_resp_intro.started,key_resp_intro.stopped,text_intro2.started,text_intro2.stopped,key_resp_intro2.keys,key_resp_intro2.rt,key_resp_intro2.started,key_resp_intro2.stopped,example trial,personPrimeExample,genderPrimeExample,primeExample,emotionPrimeExample,corrAnsPrimeExample,example mask time,fix300_example.started,fix300_example.stopped,image_primer_example.started,image_primer_example.stopped,scrambled.started,scrambled.stopped,text_response_example.started,text_response_example.stopped,key_resp_example.keys,key_resp_example.corr,key_resp_example.rt,key_resp_example.rt in ms,key_resp_example.started,key_resp_example.stopped,Jitter_example.started,Jitter_example.stopped,text_start.started,text_start.stopped,text_pause.started,text_pause.stopped,key_resp_pause.keys,key_resp_pause.rt,key_resp_pause.rt in ms,key_resp_pause.started,key_resp_pause.stopped,study trial,personPrimeStudy,genderPrimeStudy,primeStudy,emotionPrimeStudy,corrAnsPrimeStudy,study mask time,Block,fix300_study.started,fix300_study.stopped,image_primer_study.started,image_primer_study.stopped,scrambled_study.started,scrambled_study.stopped,text_response_study.started,text_response_study.stopped,key_resp_study.keys,key_resp_study.corr,key_resp_study.started,key_resp_study.stopped,Jitter_study.started,Jitter_study.stopped,key_resp_study.rt,key_resp_study.rt in ms,text_end.started,text_end.stopped,participant,date,expName,psychopyVersion,frameRate,
,,,,,,,,,,,,24.068150200066157,27.073282820056193,27.07331890007481,27.964957720017992,s,0.8787438999861479,27.07331890007481,27.964957720017992,,,,,,,,,,,,,,,,,,,,,,,,,,,,,,,,,,,,,,,,,,,,,,,,,,,,,,,,,,,,,,,,,EMOCONPILOT005_120HZ,2021_Feb_25_1138,EmoCon_Pilot_120Hz,2020.2.4,119.99299241175999,
,,,,,,,,,,,,,,,,,,,,27.96498460008297,29.914982120040804,s,1.939117499976419,27.96498460008297,29.914982120040804,,,,,,,,,,,,,,,,,,,,,,,,,,,,,,,,,,,,,,,,,,,,,,,,,,,,,,,,,,,EMOCONPILOT005_120HZ,2021_Feb_25_1138,EmoCon_Pilot_120Hz,2020.2.4,119.99299241175999,
0,0,0,0,,,,,,,,,,,,,,,,,,,,,,,0,3.0,f,1113_y_f_s_a.jpg,sad,a,17,29.923316200030968,30.22328242007643,30.80747360002715,30.948318320093676,30.948351200087927,30.990026220097207,30.99002270004712,31.92334912007209,a,1,0.9221244000364095,922.1244000364095,30.99002270004712,31.92334912007209,31.923313200008124,33.173313520033844,,,,,,,,,,,,,,,,,,,,,,,,,,,,,,,,,,,,EMOCONPILOT005_120HZ,2021_Feb_25_1138,EmoCon_Pilot_120Hz,2020.2.4,119.99299241175999,
1,0,1,0,,,,,,,,,,,,,,,,,,,,,,,1,1.0,m,1111_m_m_s_a.jpg,sad,a,17,33.17342590005137,33.47331442008726,33.59832920006011,33.74001142010093,33.74001400009729,33.78163852007128,33.78170970000792,34.481723720091395,s,0,0.6906601999653503,690.6601999653503,33.78170970000792,34.481723720091395,34.49001529999077,36.289935620035976,,,,,,,,,,,,,,,,,,,,,,,,,,,,,,,,,,,,EMOCONPILOT005_120HZ,2021_Feb_25_1138,EmoCon_Pilot_120Hz,2020.2.4,119.99299241175999,
2,0,2,0,,,,,,,,,,,,,,,,,,,,,,,2,3.0,f,1113_y_f_n_a.jpg,neutral,s,3,36.28997100004926,36.59001532010734,36.723308000015095,36.74831052008085,36.7483527000295,36.79001762007829,36.79005569999572,38.298357520019636,None,0,,,36.79005569999572,38.298357520019636,38.298429600079544,40.206614320049994,,,,,,,,,,,,,,,,,,,,,,,,,,,,,,,,,,,,EMOCONPILOT005_120HZ,2021_Feb_25_1138,EmoCon_Pilot_120Hz,2020.2.4,119.99299241175999,
3,0,3,0,,,,,,,,,,,,,,,,,,,,,,,3,2.0,f,1112_m_f_h_a.jpg,happy,d,17,40.20664129999932,40.50662832008675,40.63163810002152,40.77326422010083,40.7732995999977,40.815029920078814,40.815003400086425,41.29833172005601,d,1,0.4733320999657735,473.3320999657735,40.815003400086425,41.29833172005601,41.298349100048654,42.92324822000228,,,,,,,,,,,,,,,,,,,,,,,,,,,,,,,,,,,,EMOCONPILOT005_120HZ,2021_Feb_25_1138,EmoCon_Pilot_120Hz,2020.2.4,119.99299241175999,
4,0,4,0,,,,,,,,,,,,,,,,,,,,,,,4,2.0,f,1112_m_f_n_a.jpg,neutral,s,3,42.92329690000042,43.223260420025326,43.33996740006842,43.36501002009027,43.365007400047034,43.406590020051226,43.40662860008888,44.131719320081174,s,1,0.7136580999940634,713.6580999940634,43.40662860008888,44.131719320081174,44.131682500010356,46.123255920014344,,,,,,,,,,,,,,,,,,,,,,,,,,,,,,,,,,,,EMOCONPILOT005_120HZ,2021_Feb_25_1138,EmoCon_Pilot_120Hz,2020.2.4,119.99299241175999,
,,,,0,0,0,0,0,0,0,0,,,,,,,,,,,,,,,,,,,,,,,,,,,,,,,,,,,,,,46.14830040000379,49.14829422009643,49.14830610004719,67.33195911999792,s,18.16399409994483,18163.99409994483,49.14830610004719,67.33195911999792,0,8.0,f,019_m_f_s_a.jpg,sad,a,3,1,67.34188710001763,67.64032152004074,68.29135360009968,68.33192262006924,68.34121860004961,68.39856842008885,68.40857590001542,70.75687962002121,None,0,68.40857590001542,70.75687962002121,70.76528690010309,72.20689272007439,,,,,EMOCONPILOT005_120HZ,2021_Feb_25_1138,EmoCon_Pilot_120Hz,2020.2.4,119.99299241175999,
,,,,0,0,0,0,1,0,1,0,,,,,,,,,,,,,,,,,,,,,,,,,,,,,,,,,,,,,,,,,,,,,,,1,6.0,m,033_o_m_n_a.jpg,neutral,s,17,1,72.21526299999095,72.51523132005241,72.64860710001085,72.88987932004966,72.89003840007354,72.93157542007975,72.94001870008651,73.32323092001025,s,1,72.94001870008651,73.32323092001025,73.32324410008732,74.70654022006784,0.3719445000169799,371.9445000169799,,,EMOCONPILOT005_120HZ,2021_Feb_25_1138,EmoCon_Pilot_120Hz,2020.2.4,119.99299241175999,
,,,,0,0,0,0,2,0,2,0,,,,,,,,,,,,,,,,,,,,,,,,,,,,,,,,,,,,,,,,,,,,,,,2,2.0,m,008_y_m_s_a.jpg,sad,a,17,1,74.71497339999769,75.01486822008155,75.16491390008014,75.30653892003465,75.3065788000822,75.34820882009808,75.34824040008243,76.11496372008696,a,1,75.34824040008243,76.11496372008696,76.12328780000098,78.04820482002106,0.7559214000357315,755.9214000357315,,,EMOCONPILOT005_120HZ,2021_Feb_25_1138,EmoCon_Pilot_120Hz,2020.2.4,119.99299241175999,
,,,,0,0,0,0,3,0,3,0,,,,,,,,,,,,,,,,,,,,,,,,,,,,,,,,,,,,,,,,,,,,,,,3,11.0,f,030_o_f_h_a.jpg,happy,d,3,1,78.04823519999627,78.34820622007828,78.47329990006983,78.49825371999759,78.49827570002526,78.53988142008893,78.53991050005425,79.1399563200539,d,1,78.53991050005425,79.1399563200539,79.14828630001284,80.97325182007626,0.5882643000222743,588.2643000222743,,,EMOCONPILOT005_120HZ,2021_Feb_25_1138,EmoCon_Pilot_120Hz,2020.2.4,119.99299241175999,
,,,,0,0,0,0,4,0,4,0,,,,,,,,,,,,,,,,,,,,,,,,,,,,,,,,,,,,,,,,,,,,,,,4,11.0,f,030_o_f_s_a.jpg,sad,a,17,1,80.97334640007466,81.27319782006089,81.39823680010159,81.53995012002997,81.5400317000458,81.58155992010143,81.58995340007823,82.34821722004563,a,1,81.58995340007823,82.34821722004563,82.35656380001456,83.98153992008884,0.746078799944371,746.078799944371,,,EMOCONPILOT005_120HZ,2021_Feb_25_1138,EmoCon_Pilot_120Hz,2020.2.4,119.99299241175999,
,,,,0,0,0,0,5,0,5,0,,,,,,,,,,,,,,,,,,,,,,,,,,,,,,,,,,,,,,,,,,,,,,,5,11.0,f,030_o_f_s_a.jpg,sad,a,3,1,83.98156190000009,84.28152782004327,84.40662430005614,84.4315054200124,84.43163550004829,84.47323992010206,84.4816082000034,85.54831332003232,s,0,84.4816082000034,85.54831332003232,85.5566295000026,87.47320322005544,1.0545587000669912,1054.5587000669912,,,EMOCONPILOT005_120HZ,2021_Feb_25_1138,EmoCon_Pilot_120Hz,2020.2.4,119.99299241175999,
,,,,0,0,0,0,6,0,6,0,,,,,,,,,,,,,,,,,,,,,,,,,,,,,,,,,,,,,,,,,,,,,,,6,5.0,m,027_o_m_n_a.jpg,neutral,s,3,1,87.47322370007169,87.77323672000784,87.91490800003521,87.93985212000553,87.93990310002118,87.9815237200819,87.98155390005559,88.89829611999448,s,1,87.98155390005559,88.89829611999448,88.90658539999276,90.57323502004147,0.9071335999760777,907.1335999760777,,,EMOCONPILOT005_120HZ,2021_Feb_25_1138,EmoCon_Pilot_120Hz,2020.2.4,119.99299241175999,
,,,,0,0,0,0,7,0,7,0,,,,,,,,,,,,,,,,,,,,,,,,,,,,,,,,,,,,,,,,,,,,,,,7,8.0,f,019_m_f_n_a.jpg,neutral,s,17,1,90.57322300004307,90.87318382004742,91.03155290009454,91.17318122007418,91.17321480007377,91.2148485200014,91.21501510008238,91.60656442004256,s,1,91.21501510008238,91.60656442004256,91.61493470007554,93.51484221999999,0.3771187999518588,377.1187999518588,,,EMOCONPILOT005_120HZ,2021_Feb_25_1138,EmoCon_Pilot_120Hz,2020.2.4,119.99299241175999,
,,,,0,0,0,0,8,0,8,0,,,,,,,,,,,,,,,,,,,,,,,,,,,,,,,,,,,,,,,,,,,,,,,8,5.0,m,027_o_m_h_a.jpg,happy,d,3,1,93.51499980001245,93.81484322005417,93.93985690001864,93.96480682003312,93.9650024001021,94.0065399199957,94.01493000006303,94.50652532000095,d,1,94.01493000006303,94.50652532000095,94.50654329999816,96.27318352006841,0.4810393999796361,481.0393999796361,,,EMOCONPILOT005_120HZ,2021_Feb_25_1138,EmoCon_Pilot_120Hz,2020.2.4,119.99299241175999,
,,,,0,0,0,0,9,0,9,0,,,,,,,,,,,,,,,,,,,,,,,,,,,,,,,,,,,,,,,,,,,,,,,9,8.0,f,019_m_f_n_a.jpg,neutral,s,17,1,96.27320739999413,96.57322442007717,96.73994840006344,96.88153832009993,96.88161450007465,96.92322602006607,96.9232085000258,97.31490622006822,s,1,96.9232085000258,97.31490622006822,97.3232602000935,98.75650272006169,0.3810008999425918,381.0008999425918,,,EMOCONPILOT005_120HZ,2021_Feb_25_1138,EmoCon_Pilot_120Hz,2020.2.4,119.99299241175999,
,,,,0,0,0,0,10,0,10,0,,,,,,,,,,,,,,,,,,,,,,,,,,,,,,,,,,,,,,,,,,,,,,,10,11.0,f,030_o_f_h_a.jpg,happy,d,17,1,98.75653950008564,99.05650042009074,99.17321250005625,99.31483502010815,99.31487040000502,99.35650192003231,99.35655260004569,99.69817002001218,d,1,99.35655260004569,99.69817002001218,99.69820360001177,101.48153122002259,0.3314102999866009,331.4102999866009,,,EMOCONPILOT005_120HZ,2021_Feb_25_1138,EmoCon_Pilot_120Hz,2020.2.4,119.99299241175999,
,,,,0,0,0,0,11,0,11,0,,,,,,,,,,,,,,,,,,,,,,,,,,,,,,,,,,,,,,,,,,,,,,,11,3.0,m,013_y_m_s_a.jpg,sad,a,3,1,101.48992180009373,101.78989932010882,101.84035130008124,101.86487092007883,101.86486690002494,101.90649832005147,101.90653350006323,102.92337122000754,a,1,101.90653350006323,102.92337122000754,102.92319640005007,104.88149322010577,1.0056735000107437,1005.6735000107437,,,EMOCONPILOT005_120HZ,2021_Feb_25_1138,EmoCon_Pilot_120Hz,2020.2.4,119.99299241175999,
,,,,0,0,0,0,12,0,12,0,,,,,,,,,,,,,,,,,,,,,,,,,,,,,,,,,,,,,,,,,,,,,,,12,12.0,f,040_y_f_n_a.jpg,neutral,s,17,1,104.88155540009029,105.18149152002297,105.78172930004075,105.9231501200702,105.92319380003028,105.9648229200393,105.96485680004116,106.48983922007028,s,1,105.96485680004116,106.48983922007028,106.48987730010413,107.49820902000647,0.5151105999248102,515.1105999248102,,,EMOCONPILOT005_120HZ,2021_Feb_25_1138,EmoCon_Pilot_120Hz,2020.2.4,119.99299241175999,
,,,,0,0,0,0,13,0,13,0,,,,,,,,,,,,,,,,,,,,,,,,,,,,,,,,,,,,,,,,,,,,,,,13,12.0,f,040_y_f_h_a.jpg,happy,d,3,1,107.4982280000113,107.79820432001725,107.83986210008152,107.86481992003974,107.86484840000048,107.90648912009783,107.9065235001035,108.53983472008258,d,1,107.9065235001035,108.53983472008258,108.54824640008155,110.16490472003352,0.6215404999675229,621.5404999675229,,,EMOCONPILOT005_120HZ,2021_Feb_25_1138,EmoCon_Pilot_120Hz,2020.2.4,119.99299241175999,
,,,,0,0,0,0,14,0,14,0,,,,,,,,,,,,,,,,,,,,,,,,,,,,,,,,,,,,,,,,,,,,,,,14,7.0,f,012_o_f_h_a.jpg,happy,d,3,1,110.1649025999941,110.46495012007654,110.48998160008341,110.51501222001389,110.51504620001651,110.55663502006792,110.56502139999066,111.02329661999829,d,1,110.56502139999066,111.02329661999829,111.03164659999311,112.54001762007829,0.4430605999659747,443.0605999659747,,,EMOCONPILOT005_120HZ,2021_Feb_25_1138,EmoCon_Pilot_120Hz,2020.2.4,119.99299241175999,
,,,,0,0,0,0,15,0,15,0,,,,,,,,,,,,,,,,,,,,,,,,,,,,,,,,,,,,,,,,,,,,,,,15,9.0,f,021_o_f_n_a.jpg,neutral,s,17,1,112.54002170008607,112.83995252009481,113.4412244000705,113.71523732005153,113.72338040010072,113.7651087200502,113.76506760006305,114.03169352002442,s,1,113.76506760006305,114.03169352002442,114.04159410006832,116.04011222010013,0.25887250003870577,258.87250003870577,,,EMOCONPILOT005_120HZ,2021_Feb_25_1138,EmoCon_Pilot_120Hz,2020.2.4,119.99299241175999,
,,,,0,0,0,0,16,0,16,0,,,,,,,,,,,,,,,,,,,,,,,,,,,,,,,,,,,,,,,,,,,,,,,16,10.0,f,028_y_f_s_a.jpg,sad,a,17,1,116.04841490008403,116.3483570200624,116.39006250002421,116.5825602200348,116.59007330005988,116.63169232010841,116.63172699999996,117.36502462008502,s,0,116.63172699999996,117.36502462008502,117.37492329999804,118.56504792009946,0.7203040999593213,720.3040999593213,,,EMOCONPILOT005_120HZ,2021_Feb_25_1138,EmoCon_Pilot_120Hz,2020.2.4,119.99299241175999,
,,,,0,0,0,0,17,0,17,0,,,,,,,,,,,,,,,,,,,,,,,,,,,,,,,,,,,,,,,,,,,,,,,17,10.0,f,028_y_f_h_a.jpg,happy,d,17,1,118.57386930007488,118.87340122007299,118.90673750010319,119.06483502010815,119.06487160001416,119.10648322000634,119.10652020003181,119.4898050200427,d,1,119.10652020003181,119.4898050200427,119.48983540001791,120.49813322001137,0.37344100000336766,373.44100000336766,,,EMOCONPILOT005_120HZ,2021_Feb_25_1138,EmoCon_Pilot_120Hz,2020.2.4,119.99299241175999,
,,,,0,0,0,0,18,0,18,0,,,,,,,,,,,,,,,,,,,,,,,,,,,,,,,,,,,,,,,,,,,,,,,18,9.0,f,021_o_f_h_a.jpg,happy,d,3,1,120.4981685000239,120.79819382005371,121.39847370004281,121.423194120056,121.423202300095,121.46479922009166,121.46496150002349,122.03146542003378,d,1,121.46496150002349,122.03146542003378,122.03988410008606,123.88149232009891,0.558963599964045,558.963599964045,,,EMOCONPILOT005_120HZ,2021_Feb_25_1138,EmoCon_Pilot_120Hz,2020.2.4,119.99299241175999,
,,,,0,0,0,0,19,0,19,0,,,,,,,,,,,,,,,,,,,,,,,,,,,,,,,,,,,,,,,,,,,,,,,19,6.0,m,033_o_m_h_a.jpg,happy,d,3,1,123.8815128999995,124.18149502004962,124.23151310009416,124.25646582001355,124.25657600001432,124.29813612008002,124.29816230002325,124.75650602008682,d,1,124.29816230002325,124.75650602008682,124.76487590000033,126.28987022000365,0.4459617999382317,445.9617999382317,,,EMOCONPILOT005_120HZ,2021_Feb_25_1138,EmoCon_Pilot_120Hz,2020.2.4,119.99299241175999,
,,,,0,0,0,0,20,0,20,0,,,,,,,,,,,,,,,,,,,,,,,,,,,,,,,,,,,,,,,,,,,,,,,20,1.0,m,004_o_m_h_a.jpg,happy,d,3,1,126.2898722999962,126.58980592002627,127.17351420002524,127.19813632010482,127.19816780008841,127.23980282002594,127.239836200024,127.77317332010716,d,1,127.239836200024,127.77317332010716,127.78150620008819,129.29813142004423,0.5202683999668807,520.2683999668807,,,EMOCONPILOT005_120HZ,2021_Feb_25_1138,EmoCon_Pilot_120Hz,2020.2.4,119.99299241175999,
,,,,0,0,0,0,21,0,21,0,,,,,,,,,,,,,,,,,,,,,,,,,,,,,,,,,,,,,,,,,,,,,,,21,2.0,m,008_y_m_s_a.jpg,sad,a,17,1,129.2981534000719,129.59812822006643,129.7481600000756,129.8898652200587,129.88995760004036,129.9314226200804,129.9399266000837,130.30651362007484,a,1,129.9399266000837,130.30651362007484,130.314872500021,131.35646822000854,0.3481839000014588,348.1839000014588,,,EMOCONPILOT005_120HZ,2021_Feb_25_1138,EmoCon_Pilot_120Hz,2020.2.4,119.99299241175999,
,,,,0,0,0,0,22,0,22,0,,,,,,,,,,,,,,,,,,,,,,,,,,,,,,,,,,,,,,,,,,,,,,,22,4.0,m,016_y_m_s_a.jpg,sad,a,17,1,131.35650100000203,131.65645232005045,131.68982140009757,131.83147272001952,131.83150730002671,131.8731184200151,131.8731509000063,132.2815093200188,a,1,131.8731509000063,132.2815093200188,132.28986910008825,134.04811372002587,0.398859899956733,398.859899956733,,,EMOCONPILOT005_120HZ,2021_Feb_25_1138,EmoCon_Pilot_120Hz,2020.2.4,119.99299241175999,
,,,,0,0,0,0,23,0,23,0,,,,,,,,,,,,,,,,,,,,,,,,,,,,,,,,,,,,,,,,,,,,,,,23,8.0,f,019_m_f_h_a.jpg,happy,d,3,1,134.04814850003459,134.34813252009917,134.37315420003142,134.39811632002238,134.3981466999976,134.4397971200524,134.4399535000557,134.94825572008267,d,1,134.4399535000557,134.94825572008267,134.95650980004575,136.0814554200042,0.4961928999982774,496.1928999982774,,,EMOCONPILOT005_120HZ,2021_Feb_25_1138,EmoCon_Pilot_120Hz,2020.2.4,119.99299241175999,
,,,,0,0,0,0,24,0,24,0,,,,,,,,,,,,,,,,,,,,,,,,,,,,,,,,,,,,,,,,,,,,,,,24,8.0,f,019_m_f_h_a.jpg,happy,d,17,1,136.08990090002771,136.38976682000794,136.41482040006667,136.55644372000825,136.55649490002543,136.59812032000627,136.5981440000469,136.8898065200774,d,1,136.5981440000469,136.8898065200774,136.89815020002425,138.75647132005543,0.28183739993255585,281.83739993255585,,,EMOCONPILOT005_120HZ,2021_Feb_25_1138,EmoCon_Pilot_120Hz,2020.2.4,119.99299241175999,
,,,,0,0,0,0,25,0,25,0,,,,,,,,,,,,,,,,,,,,,,,,,,,,,,,,,,,,,,,,,,,,,,,25,4.0,m,016_y_m_n_a.jpg,neutral,s,3,1,138.76486240001395,139.06478812010027,139.681714400067,139.70646232005674,139.70653160009533,139.74816042010207,139.7481677000178,140.4064822200453,s,1,139.7481677000178,140.4064822200453,140.41482430009637,142.3398436200805,0.6518989999312907,651.8989999312907,,,EMOCONPILOT005_120HZ,2021_Feb_25_1138,EmoCon_Pilot_120Hz,2020.2.4,119.99299241175999,
,,,,0,0,0,0,26,0,26,0,,,,,,,,,,,,,,,,,,,,,,,,,,,,,,,,,,,,,,,,,,,,,,,26,4.0,m,016_y_m_h_a.jpg,happy,d,17,1,142.33985570003279,142.63977062003687,142.67315370007418,142.81476832006592,142.8148177000694,142.8564489200944,142.8564830000978,143.1314848200418,d,1,142.8564830000978,143.1314848200418,143.13981870003045,144.43985382001847,0.2635730999754742,263.5730999754742,,,EMOCONPILOT005_120HZ,2021_Feb_25_1138,EmoCon_Pilot_120Hz,2020.2.4,119.99299241175999,
,,,,0,0,0,0,27,0,27,0,,,,,,,,,,,,,,,,,,,,,,,,,,,,,,,,,,,,,,,,,,,,,,,27,8.0,f,019_m_f_h_a.jpg,happy,d,17,1,144.43985020008404,144.73984182009008,144.77313830005005,144.91476622002665,144.91482230008114,144.95644142001402,144.95646370004397,145.32322102005128,d,1,144.95646370004397,145.32322102005128,145.3315026999917,147.0981117200572,0.3556590999942273,355.6590999942273,,,EMOCONPILOT005_120HZ,2021_Feb_25_1138,EmoCon_Pilot_120Hz,2020.2.4,119.99299241175999,
,,,,0,0,0,0,28,0,28,0,,,,,,,,,,,,,,,,,,,,,,,,,,,,,,,,,,,,,,,,,,,,,,,28,8.0,f,019_m_f_s_a.jpg,sad,a,17,1,147.09812800004147,147.39815572008956,148.01502819999587,148.1564442201052,148.15653350006323,148.1981472200714,148.19817670003977,148.64821782009676,a,1,148.19817670003977,148.64821782009676,148.65648500004318,149.9231385200983,0.44219309999607503,442.19309999607503,,,EMOCONPILOT005_120HZ,2021_Feb_25_1138,EmoCon_Pilot_120Hz,2020.2.4,119.99299241175999,
,,,,0,0,0,0,29,0,29,0,,,,,,,,,,,,,,,,,,,,,,,,,,,,,,,,,,,,,,,,,,,,,,,29,10.0,f,028_y_f_n_a.jpg,neutral,s,17,1,149.92322810005862,150.22314032004215,150.3564623000566,150.49810111999977,150.4981377000222,150.5397989200428,150.53992660006043,150.94822152005509,s,1,150.53992660006043,150.94822152005509,150.9564794000471,152.73975552001502,0.39616210001986474,396.16210001986474,,,EMOCONPILOT005_120HZ,2021_Feb_25_1138,EmoCon_Pilot_120Hz,2020.2.4,119.99299241175999,
,,,,0,0,0,0,30,0,30,0,,,,,,,,,,,,,,,,,,,,,,,,,,,,,,,,,,,,,,,,,,,,,,,30,12.0,f,040_y_f_n_a.jpg,neutral,s,17,1,152.73988030001055,153.03975072002504,153.17312280007172,153.31476482003927,153.31480510008987,153.3564171200851,153.3564544999972,153.7397527199937,s,1,153.3564544999972,153.7397527199937,153.7398017999949,154.97308452008292,0.3714487999677658,371.4487999677658,,,EMOCONPILOT005_120HZ,2021_Feb_25_1138,EmoCon_Pilot_120Hz,2020.2.4,119.99299241175999,
,,,,0,0,0,0,31,0,31,0,,,,,,,,,,,,,,,,,,,,,,,,,,,,,,,,,,,,,,,,,,,,,,,31,5.0,m,027_o_m_n_a.jpg,neutral,s,17,1,154.97311870008707,155.2730976199964,155.40652720001526,155.54813472006936,155.54815060005058,155.58974772004876,155.5897819000529,156.25645992008504,s,1,155.5897819000529,156.25645992008504,156.2648351000389,157.75644122005906,0.6582051999866962,658.2051999866962,,,EMOCONPILOT005_120HZ,2021_Feb_25_1138,EmoCon_Pilot_120Hz,2020.2.4,119.99299241175999,
,,,,0,0,0,0,32,0,32,0,,,,,,,,,,,,,,,,,,,,,,,,,,,,,,,,,,,,,,,,,,,,,,,32,8.0,f,019_m_f_n_a.jpg,neutral,s,17,1,157.76485280005727,158.06475732009858,158.22312290000264,158.36474312003702,158.36491600004956,158.40641732001677,158.40644530009013,158.71483312000055,s,1,158.40644530009013,158.71483312000055,158.72315800003707,160.2732332200976,0.2976596000371501,297.6596000371501,,,EMOCONPILOT005_120HZ,2021_Feb_25_1138,EmoCon_Pilot_120Hz,2020.2.4,119.99299241175999,
,,,,0,0,0,0,33,0,33,0,,,,,,,,,,,,,,,,,,,,,,,,,,,,,,,,,,,,,,,,,,,,,,,33,4.0,m,016_y_m_n_a.jpg,neutral,s,3,1,160.27324850007426,160.57322982000187,160.73156030010432,160.7565353200771,160.7649435000494,160.8065626200987,160.806595900096,161.33986892004032,s,1,160.806595900096,161.33986892004032,161.34831360005774,162.7066381199984,0.5215274000074714,521.5274000074714,,,EMOCONPILOT005_120HZ,2021_Feb_25_1138,EmoCon_Pilot_120Hz,2020.2.4,119.99299241175999,
,,,,0,0,0,0,34,0,34,0,,,,,,,,,,,,,,,,,,,,,,,,,,,,,,,,,,,,,,,,,,,,,,,34,11.0,f,030_o_f_n_a.jpg,neutral,s,3,1,162.71505060000345,163.01495232002344,163.15736120007932,163.19827792001888,163.20746090007015,163.24828702001832,163.2483305000933,163.7066221201094,s,1,163.2483305000933,163.7066221201094,163.71504680009093,164.9816471200902,0.4476063000038266,447.6063000038266,,,EMOCONPILOT005_120HZ,2021_Feb_25_1138,EmoCon_Pilot_120Hz,2020.2.4,119.99299241175999,
,,,,0,0,0,0,35,0,35,0,,,,,,,,,,,,,,,,,,,,,,,,,,,,,,,,,,,,,,,,,,,,,,,35,9.0,f,021_o_f_h_a.jpg,happy,d,17,1,164.99004540010355,165.29001982009504,165.44866750005167,165.72332092002034,165.73161420004908,165.7732627200894,165.78158589999657,166.0148678200785,d,1,165.78158589999657,166.0148678200785,166.02329830010422,167.42321982001886,0.22642970003653318,226.42970003653318,,,EMOCONPILOT005_120HZ,2021_Feb_25_1138,EmoCon_Pilot_120Hz,2020.2.4,119.99299241175999,
,,,,0,0,0,0,36,0,36,0,,,,,,,,,,,,,,,,,,,,,,,,,,,,,,,,,,,,,,,,,,,,,,,36,11.0,f,030_o_f_s_a.jpg,sad,a,17,1,167.42324690008536,167.7232095201034,167.8567202000413,168.11484592000488,168.1148807000136,168.15652632003184,168.1565697999904,168.95658102002926,a,1,168.1565697999904,168.95658102002926,168.96494320000056,170.33151642000303,0.7795857000164688,779.5857000164688,,,EMOCONPILOT005_120HZ,2021_Feb_25_1138,EmoCon_Pilot_120Hz,2020.2.4,119.99299241175999,
,,,,0,0,0,0,37,0,37,0,,,,,,,,,,,,,,,,,,,,,,,,,,,,,,,,,,,,,,,,,,,,,,,37,12.0,f,040_y_f_n_a.jpg,neutral,s,17,1,170.33154790010303,170.6315148200374,170.7733268000884,170.91491712001152,170.91497979999986,170.95651142008137,170.9565459000878,171.31485562003218,s,1,170.9565459000878,171.31485562003218,171.3232161999913,172.48984572000336,0.3474284000694752,347.4284000694752,,,EMOCONPILOT005_120HZ,2021_Feb_25_1138,EmoCon_Pilot_120Hz,2020.2.4,119.99299241175999,
,,,,0,0,0,0,38,0,38,0,,,,,,,,,,,,,,,,,,,,,,,,,,,,,,,,,,,,,,,,,,,,,,,38,9.0,f,021_o_f_s_a.jpg,sad,a,3,1,172.48988050001208,172.7898442200385,172.8315925000934,172.85654532001354,172.8649208000861,172.9065104200272,172.9149303000886,173.82319152005948,a,1,172.9149303000886,173.82319152005948,173.83154690009542,175.63985762000084,0.9009359999326989,900.9359999326989,,,EMOCONPILOT005_120HZ,2021_Feb_25_1138,EmoCon_Pilot_120Hz,2020.2.4,119.99299241175999,
,,,,0,0,0,0,39,0,39,0,,,,,,,,,,,,,,,,,,,,,,,,,,,,,,,,,,,,,,,,,,,,,,,39,4.0,m,016_y_m_n_a.jpg,neutral,s,17,1,175.6400064000627,175.939812620054,176.55674800009,176.69817292003427,176.69820149999578,176.73983342002612,176.74824940005783,177.0732282201061,s,1,176.74824940005783,177.0732282201061,177.08153490000404,179.01491272007115,0.31573120004031807,315.7312000403181,,,EMOCONPILOT005_120HZ,2021_Feb_25_1138,EmoCon_Pilot_120Hz,2020.2.4,119.99299241175999,
,,,,0,0,0,0,40,0,40,0,,,,,,,,,,,,,,,,,,,,,,,,,,,,,,,,,,,,,,,,,,,,,,,40,9.0,f,021_o_f_s_a.jpg,sad,a,3,1,179.0149148000637,179.3149135200074,179.36487180006225,179.38989852007944,179.38991590007208,179.4314979200717,179.4400249000173,180.5982134200167,a,1,179.4400249000173,180.5982134200167,180.60654629999772,182.46483932004776,1.14404220005963,1144.04220005963,,,EMOCONPILOT005_120HZ,2021_Feb_25_1138,EmoCon_Pilot_120Hz,2020.2.4,119.99299241175999,
,,,,0,0,0,0,41,0,41,0,,,,,,,,,,,,,,,,,,,,,,,,,,,,,,,,,,,,,,,,,,,,,,,41,11.0,f,030_o_f_h_a.jpg,happy,d,17,1,182.46486470010132,182.76489262003452,183.36556390009355,183.50649272010196,183.5065300000133,183.5481597200269,183.5482077000197,183.90654062002432,d,1,183.5482077000197,183.90654062002432,183.91491150006186,185.28152402001433,0.34779959998559207,347.79959998559207,,,EMOCONPILOT005_120HZ,2021_Feb_25_1138,EmoCon_Pilot_120Hz,2020.2.4,119.99299241175999,
,,,,0,0,0,0,42,0,42,0,,,,,,,,,,,,,,,,,,,,,,,,,,,,,,,,,,,,,,,,,,,,,,,42,4.0,m,016_y_m_h_a.jpg,happy,d,17,1,185.28992960008327,185.58986002008896,185.631555100088,185.77316392003559,185.77319209999405,185.81481922010425,185.8148565000156,186.23988712008577,d,1,185.8148565000156,186.23988712008577,186.24823900009505,187.5231535200728,0.417233599931933,417.233599931933,,,EMOCONPILOT005_120HZ,2021_Feb_25_1138,EmoCon_Pilot_120Hz,2020.2.4,119.99299241175999,
,,,,0,0,0,0,43,0,43,0,,,,,,,,,,,,,,,,,,,,,,,,,,,,,,,,,,,,,,,,,,,,,,,43,1.0,m,004_o_m_s_a.jpg,sad,a,17,1,187.5231899000937,187.82315712003037,187.8482079000678,187.98982252005953,187.99001950002275,188.03149232000578,188.03152429999318,188.44832042010967,a,1,188.03152429999318,188.44832042010967,188.45653349999338,189.6814873201074,0.4086179999867454,408.6179999867454,,,EMOCONPILOT005_120HZ,2021_Feb_25_1138,EmoCon_Pilot_120Hz,2020.2.4,119.99299241175999,
,,,,0,0,0,0,44,0,44,0,,,,,,,,,,,,,,,,,,,,,,,,,,,,,,,,,,,,,,,,,,,,,,,44,4.0,m,016_y_m_h_a.jpg,happy,d,17,1,189.6815268000355,189.98148432001472,190.006519400049,190.14820962003432,190.15656870009843,190.19819732010365,190.19818460009992,190.5565204200102,d,1,190.19818460009992,190.5565204200102,190.56488130008802,191.88149912003428,0.3458944000303745,345.8944000303745,,,EMOCONPILOT005_120HZ,2021_Feb_25_1138,EmoCon_Pilot_120Hz,2020.2.4,119.99299241175999,
,,,,0,0,0,0,45,0,45,0,,,,,,,,,,,,,,,,,,,,,,,,,,,,,,,,,,,,,,,,,,,,,,,45,7.0,f,012_o_f_s_a.jpg,sad,a,17,1,191.8815417001024,192.18150762002915,192.20659900002647,192.3481984200189,192.3482063000556,192.3898952200543,192.39821780007333,192.81483842001762,a,1,192.39821780007333,192.81483842001762,192.82319930009544,194.2564794200007,0.4017841999884695,401.7841999884695,,,EMOCONPILOT005_120HZ,2021_Feb_25_1138,EmoCon_Pilot_120Hz,2020.2.4,119.99299241175999,
,,,,0,0,0,0,46,0,46,0,,,,,,,,,,,,,,,,,,,,,,,,,,,,,,,,,,,,,,,,,,,,,,,46,8.0,f,019_m_f_n_a.jpg,neutral,s,3,1,194.25652910000645,194.5565046200063,195.19892620004248,195.22315322002396,195.22319100005552,195.26482012006454,195.2648522000527,195.96482152002864,s,1,195.2648522000527,195.96482152002864,195.97328310005832,197.45647442003246,0.6871423000702634,687.1423000702634,,,EMOCONPILOT005_120HZ,2021_Feb_25_1138,EmoCon_Pilot_120Hz,2020.2.4,119.99299241175999,
,,,,0,0,0,0,47,0,47,0,,,,,,,,,,,,,,,,,,,,,,,,,,,,,,,,,,,,,,,,,,,,,,,47,2.0,m,008_y_m_h_a.jpg,happy,d,17,1,197.45651060005184,197.7564851200441,197.78998450003564,197.9314811200602,197.94000740000047,197.9814675200032,197.98151800001506,198.30648202006705,d,1,197.98151800001506,198.30648202006705,198.31486250006128,199.6981519201072,0.31439810001756996,314.39810001756996,,,EMOCONPILOT005_120HZ,2021_Feb_25_1138,EmoCon_Pilot_120Hz,2020.2.4,119.99299241175999,
,,,,0,0,0,0,48,0,48,0,,,,,,,,,,,,,,,,,,,,,,,,,,,,,,,,,,,,,,,,,,,,,,,48,12.0,f,040_y_f_n_a.jpg,neutral,s,17,1,199.6982043000171,199.99818552006036,200.60721710009966,200.7481836200459,200.75654540001415,200.7981356200762,200.79817910003476,201.60649332008325,s,1,200.79817910003476,201.60649332008325,201.61488830007147,202.78986742009874,0.7938297999789938,793.8297999789938,,,EMOCONPILOT005_120HZ,2021_Feb_25_1138,EmoCon_Pilot_120Hz,2020.2.4,119.99299241175999,
,,,,0,0,0,0,49,0,49,0,,,,,,,,,,,,,,,,,,,,,,,,,,,,,,,,,,,,,,,,,,,,,,,49,11.0,f,030_o_f_n_a.jpg,neutral,s,3,1,202.78988739999477,203.08986782003194,203.23150690004695,203.25646391999908,203.25651410000864,203.29812772001605,203.2981635000324,204.35648992005736,s,1,203.2981635000324,204.35648992005736,204.36483380000573,206.048127320013,1.0458936999784783,1045.8936999784783,,,EMOCONPILOT005_120HZ,2021_Feb_25_1138,EmoCon_Pilot_120Hz,2020.2.4,119.99299241175999,
,,,,0,0,0,0,50,0,50,0,,,,,,,,,,,,,,,,,,,,,,,,,,,,,,,,,,,,,,,,,,,,,,,50,8.0,f,019_m_f_h_a.jpg,happy,d,3,1,206.0481787000317,206.34817452006973,206.38982919999398,206.41480172006413,206.41482770000584,206.4564722200157,206.456509700045,206.97318061999977,d,1,206.456509700045,206.97318061999977,206.98152170004323,208.4982625200646,0.49567989993374795,495.67989993374795,,,EMOCONPILOT005_120HZ,2021_Feb_25_1138,EmoCon_Pilot_120Hz,2020.2.4,119.99299241175999,
,,,,0,0,0,0,51,0,51,0,,,,,,,,,,,,,,,,,,,,,,,,,,,,,,,,,,,,,,,,,,,,,,,51,8.0,f,019_m_f_n_a.jpg,neutral,s,17,1,208.4982777000405,208.79823612002656,209.44872179999948,209.72325262008235,209.73162120010238,209.7732373200124,209.77325120009482,210.04977762000635,s,1,209.77325120009482,210.04977762000635,210.0649483000161,211.89822922006715,0.25872449995949864,258.72449995949864,,,EMOCONPILOT005_120HZ,2021_Feb_25_1138,EmoCon_Pilot_120Hz,2020.2.4,119.99299241175999,
,,,,0,0,0,0,52,0,52,0,,,,,,,,,,,,,,,,,,,,,,,,,,,,,,,,,,,,,,,,,,,,,,,52,12.0,f,040_y_f_n_a.jpg,neutral,s,17,1,211.89828250010032,212.198218620033,212.35730180004612,212.63146391999908,212.6400444000028,212.68148072005715,212.68151170003694,212.83980472001713,s,1,212.68151170003694,212.83980472001713,212.84816670010332,214.4981453201035,0.15030679991468787,150.30679991468787,,,EMOCONPILOT005_120HZ,2021_Feb_25_1138,EmoCon_Pilot_120Hz,2020.2.4,119.99299241175999,
,,,,0,0,0,0,53,0,53,0,,,,,,,,,,,,,,,,,,,,,,,,,,,,,,,,,,,,,,,,,,,,,,,53,9.0,f,021_o_f_h_a.jpg,happy,d,3,1,214.49817530007567,214.79816112003755,214.94058030005544,214.98161422007252,214.98988310003188,215.03147352009546,215.0315089999931,215.52317352010868,d,1,215.0315089999931,215.52317352010868,215.5314992000349,217.13146321999375,0.4725668999599293,472.5668999599293,,,EMOCONPILOT005_120HZ,2021_Feb_25_1138,EmoCon_Pilot_120Hz,2020.2.4,119.99299241175999,
,,,,0,0,0,0,54,0,54,0,,,,,,,,,,,,,,,,,,,,,,,,,,,,,,,,,,,,,,,,,,,,,,,54,2.0,m,008_y_m_n_a.jpg,neutral,s,17,1,217.13150850008242,217.4314736200031,217.6066204000963,217.74811392009724,217.74817530007567,217.78985441999976,217.79819770005997,218.23979512008373,s,1,217.79819770005997,218.23979512008373,218.24816160008777,219.52316822006833,0.43375680001918226,433.75680001918226,,,EMOCONPILOT005_120HZ,2021_Feb_25_1138,EmoCon_Pilot_120Hz,2020.2.4,119.99299241175999,
,,,,0,0,0,0,55,0,55,0,,,,,,,,,,,,,,,,,,,,,,,,,,,,,,,,,,,,,,,,,,,,,,,55,10.0,f,028_y_f_n_a.jpg,neutral,s,3,1,219.52317450009286,219.82312902004924,219.9481513000792,219.97316672001034,219.98151720000897,220.02311321999878,220.02314699999988,220.58150782005396,s,1,220.02314699999988,220.58150782005396,220.58986639999785,222.1897738201078,0.5448871999979019,544.8871999979019,,,EMOCONPILOT005_120HZ,2021_Feb_25_1138,EmoCon_Pilot_120Hz,2020.2.4,119.99299241175999,
,,,,0,0,0,0,56,0,56,0,,,,,,,,,,,,,,,,,,,,,,,,,,,,,,,,,,,,,,,,,,,,,,,56,12.0,f,040_y_f_h_a.jpg,happy,d,17,1,222.18983560008928,222.48978542000987,222.53147859999444,222.67316142003983,222.67317890003324,222.7147874200018,222.7148246000288,223.08144012000412,d,1,222.7148246000288,223.08144012000412,223.08980640000664,224.6148306200048,0.35703579999972135,357.03579999972135,,,EMOCONPILOT005_120HZ,2021_Feb_25_1138,EmoCon_Pilot_120Hz,2020.2.4,119.99299241175999,
,,,,0,0,0,0,57,0,57,0,,,,,,,,,,,,,,,,,,,,,,,,,,,,,,,,,,,,,,,,,,,,,,,57,2.0,m,008_y_m_n_a.jpg,neutral,s,17,1,224.61484789999668,224.91480472008698,225.54040600010194,225.68146052001975,225.68147900002077,225.72314782009926,225.72316680010408,226.10646182007622,s,1,225.72316680010408,226.10646182007622,226.11485290003475,227.14811722002923,0.3727833000011742,372.7833000011742,,,EMOCONPILOT005_120HZ,2021_Feb_25_1138,EmoCon_Pilot_120Hz,2020.2.4,119.99299241175999,
,,,,0,0,0,0,58,0,58,0,,,,,,,,,,,,,,,,,,,,,,,,,,,,,,,,,,,,,,,,,,,,,,,58,9.0,f,021_o_f_n_a.jpg,neutral,s,17,1,227.14815000002272,227.44810392009094,227.58981989999302,227.7314334200928,227.73146860010456,227.7730984200025,227.77313320001122,228.1231000201078,s,1,227.77313320001122,228.1231000201078,228.13146649999544,229.831466820091,0.33872430003248155,338.72430003248155,,,EMOCONPILOT005_120HZ,2021_Feb_25_1138,EmoCon_Pilot_120Hz,2020.2.4,119.99299241175999,
,,,,0,0,0,0,59,0,59,0,,,,,,,,,,,,,,,,,,,,,,,,,,,,,,,,,,,,,,,,,,,,,,,59,4.0,m,016_y_m_n_a.jpg,neutral,s,17,1,229.83147259999532,230.13145532005,230.30646880005952,230.44809562002774,230.4481474000495,230.489824420074,230.49817410006654,230.86478411999997,s,1,230.49817410006654,230.86478411999997,230.86482650006656,232.62313952005934,0.3577802999643609,357.7802999643609,,,EMOCONPILOT005_120HZ,2021_Feb_25_1138,EmoCon_Pilot_120Hz,2020.2.4,119.99299241175999,
,,,,0,0,0,0,60,0,60,0,,,,,,,,,,,,,,,,,,,,,,,,,,,,,,,,,,,,,,,,,,,,,,,60,6.0,m,033_o_m_s_a.jpg,sad,a,3,1,232.62314979999792,232.92311502003577,232.964795100037,232.9897613200592,232.98990750010125,233.03142802009825,233.03145720006432,233.73983132001013,a,1,233.03145720006432,233.73983132001013,233.74817150004674,234.9647502200678,0.6966108001070097,696.6108001070097,,,EMOCONPILOT005_120HZ,2021_Feb_25_1138,EmoCon_Pilot_120Hz,2020.2.4,119.99299241175999,
,,,,0,0,0,0,61,0,61,0,,,,,,,,,,,,,,,,,,,,,,,,,,,,,,,,,,,,,,,,,,,,,,,61,7.0,f,012_o_f_n_a.jpg,neutral,s,3,1,234.96490980009548,235.2647788200993,235.85707090003416,235.88142962008715,235.88147190003656,235.9231113200076,235.92312280007172,236.42318601999432,s,1,235.92312280007172,236.42318601999432,236.43149610003456,238.1814172200393,0.49293629999738187,492.93629999738187,,,EMOCONPILOT005_120HZ,2021_Feb_25_1138,EmoCon_Pilot_120Hz,2020.2.4,119.99299241175999,
,,,,0,0,0,0,62,0,62,0,,,,,,,,,,,,,,,,,,,,,,,,,,,,,,,,,,,,,,,,,,,,,,,62,2.0,m,008_y_m_h_a.jpg,happy,d,3,1,238.1814660000382,238.4814197201049,238.5314536000369,238.55641452001873,238.55646280001383,238.59802882000804,238.59811350004748,239.16476412001066,d,1,238.59811350004748,239.16476412001066,239.16481780004688,240.93141912005376,0.5537989999866113,553.7989999866113,,,EMOCONPILOT005_120HZ,2021_Feb_25_1138,EmoCon_Pilot_120Hz,2020.2.4,119.99299241175999,
,,,,0,0,0,0,63,0,63,0,,,,,,,,,,,,,,,,,,,,,,,,,,,,,,,,,,,,,,,,,,,,,,,63,10.0,f,028_y_f_h_a.jpg,happy,d,17,1,240.93144519999623,241.23141332005616,241.25652140006423,241.3980785200838,241.39811460010242,241.43974682001863,241.44815870001912,241.85645612003282,d,1,241.44815870001912,241.85645612003282,241.86482910008635,242.97307462000754,0.39976539998315275,399.76539998315275,,,EMOCONPILOT005_120HZ,2021_Feb_25_1138,EmoCon_Pilot_120Hz,2020.2.4,119.99299241175999,
,,,,0,0,0,0,64,0,64,0,,,,,,,,,,,,,,,,,,,,,,,,,,,,,,,,,,,,,,,,,,,,,,,64,4.0,m,016_y_m_h_a.jpg,happy,d,3,1,242.97310890001245,243.27309781999793,243.2981262000976,243.32311892008875,243.32313540007453,243.36481552000623,243.3732663000701,243.9731169200968,d,1,243.3732663000701,243.9731169200968,243.981457100017,245.9147384200478,0.5867822000291198,586.7822000291198,,,EMOCONPILOT005_120HZ,2021_Feb_25_1138,EmoCon_Pilot_120Hz,2020.2.4,119.99299241175999,
,,,,0,0,0,0,65,0,65,0,,,,,,,,,,,,,,,,,,,,,,,,,,,,,,,,,,,,,,,,,,,,,,,65,9.0,f,021_o_f_s_a.jpg,sad,a,17,1,245.91479070007335,246.2147481200518,246.23988570005167,246.3814191200072,246.38146589999087,246.42308112001047,246.4231177000329,247.0563988200156,a,1,246.4231177000329,247.0563988200156,247.06476860004477,249.0148124200059,0.6247634999454021,624.7634999454021,,,EMOCONPILOT005_120HZ,2021_Feb_25_1138,EmoCon_Pilot_120Hz,2020.2.4,119.99299241175999,
,,,,0,0,0,0,66,0,66,0,,,,,,,,,,,,,,,,,,,,,,,,,,,,,,,,,,,,,,,,,,,,,,,66,7.0,f,012_o_f_h_a.jpg,happy,d,3,1,249.01481990003958,249.3147021200275,249.3397695000749,249.36482772009913,249.36487759999,249.40642562007997,249.41481790004764,249.98979852010962,d,1,249.41481790004764,249.98979852010962,249.9981206000084,251.88126912002917,0.5612873999634758,561.2873999634758,,,EMOCONPILOT005_120HZ,2021_Feb_25_1138,EmoCon_Pilot_120Hz,2020.2.4,119.99299241175999,
,,,,0,0,0,0,67,0,67,0,,,,,,,,,,,,,,,,,,,,,,,,,,,,,,,,,,,,,,,,,,,,,,,67,9.0,f,021_o_f_h_a.jpg,happy,d,17,1,251.88130300003104,252.18126892007422,252.7815399999963,252.922958620009,252.92296550003812,252.96460022008978,252.96464540006127,253.32293372007553,d,1,252.96464540006127,253.32293372007553,253.3229885000037,254.70628332009073,0.34723140008281916,347.23140008281916,,,EMOCONPILOT005_120HZ,2021_Feb_25_1138,EmoCon_Pilot_120Hz,2020.2.4,119.99299241175999,
,,,,0,0,0,0,68,0,68,0,,,,,,,,,,,,,,,,,,,,,,,,,,,,,,,,,,,,,,,,,,,,,,,68,8.0,f,019_m_f_h_a.jpg,happy,d,17,1,254.70631560008042,255.00627912010532,255.03978190000635,255.18128022004385,255.18138150009327,255.22299902001396,255.2230314000044,255.52307312004268,d,1,255.2230314000044,255.52307312004268,255.531329200021,257.18980032007676,0.2890248999465257,289.0248999465257,,,EMOCONPILOT005_120HZ,2021_Feb_25_1138,EmoCon_Pilot_120Hz,2020.2.4,119.99299241175999,
,,,,0,0,0,0,69,0,69,0,,,,,,,,,,,,,,,,,,,,,,,,,,,,,,,,,,,,,,,,,,,,,,,69,9.0,f,021_o_f_s_a.jpg,sad,a,3,1,257.18980749999173,257.4897921200609,257.5314226000337,257.55641522002406,257.5564217000501,257.5980636200402,257.5980902001029,258.3647196200909,a,1,257.5980902001029,258.3647196200909,258.3647578000091,259.4981500200229,0.7538927999557927,753.8927999557927,,,EMOCONPILOT005_120HZ,2021_Feb_25_1138,EmoCon_Pilot_120Hz,2020.2.4,119.99299241175999,
,,,,0,0,0,0,70,0,70,0,,,,,,,,,,,,,,,,,,,,,,,,,,,,,,,,,,,,,,,,,,,,,,,70,2.0,m,008_y_m_h_a.jpg,happy,d,3,1,259.49817090004217,259.7981217200868,259.8315470000962,259.8648086200701,259.8740267000394,259.931474920013,259.94139910000376,260.37316922005266,d,1,259.94139910000376,260.37316922005266,260.3815103000961,262.0069071199978,0.41862650006078184,418.62650006078184,,,EMOCONPILOT005_120HZ,2021_Feb_25_1138,EmoCon_Pilot_120Hz,2020.2.4,119.99299241175999,
,,,,0,0,0,0,71,0,71,0,,,,,,,,,,,,,,,,,,,,,,,,,,,,,,,,,,,,,,,,,,,,,,,71,1.0,m,004_o_m_h_a.jpg,happy,d,17,1,262.0069183000596,262.3068715200061,262.90392960002646,263.0403586199973,263.0402126000263,263.0815196200274,263.0814012000337,263.5232826200081,d,1,263.0814012000337,263.5232826200081,263.53184260008857,265.27363882004283,0.430629099952057,430.629099952057,,,EMOCONPILOT005_120HZ,2021_Feb_25_1138,EmoCon_Pilot_120Hz,2020.2.4,119.99299241175999,
,,,,0,0,0,0,72,0,72,0,,,,,,,,,,,,,,,,,,,,,,,,,,,,,,,,,,,,,,,,,,,,,,,72,11.0,f,030_o_f_h_a.jpg,happy,d,17,1,265.2738681000192,265.57366372004617,265.71089109999593,265.8485670200316,265.8485310000833,265.8903490200173,265.89866559999064,266.215036920039,d,1,265.89866559999064,266.215036920039,266.2163509000093,267.5321787199937,0.30940869997721165,309.40869997721165,,,EMOCONPILOT005_120HZ,2021_Feb_25_1138,EmoCon_Pilot_120Hz,2020.2.4,119.99299241175999,
,,,,0,0,0,0,73,0,73,0,,,,,,,,,,,,,,,,,,,,,,,,,,,,,,,,,,,,,,,,,,,,,,,73,8.0,f,019_m_f_s_a.jpg,sad,a,17,1,267.53422290005255,267.83201962010935,267.99750340008177,268.1319203200983,268.1319879000075,268.17368992010597,268.1738946000114,268.6234915200621,a,1,268.1738946000114,268.6234915200621,268.6248336000135,270.48201102006715,0.44258889998309314,442.58889998309314,,,EMOCONPILOT005_120HZ,2021_Feb_25_1138,EmoCon_Pilot_120Hz,2020.2.4,119.99299241175999,
,,,,0,0,0,0,74,0,74,0,,,,,,,,,,,,,,,,,,,,,,,,,,,,,,,,,,,,,,,,,,,,,,,74,5.0,m,027_o_m_h_a.jpg,happy,d,3,1,270.4831158000743,270.78183242003433,270.9232281000586,270.9399877201067,270.94002510001883,270.9817920200294,270.9817714000819,272.25661872001365,s,0,270.9817714000819,272.25661872001365,272.2580245001009,273.5318992200773,1.2664904999546707,1266.4904999546707,,,EMOCONPILOT005_120HZ,2021_Feb_25_1138,EmoCon_Pilot_120Hz,2020.2.4,119.99299241175999,
,,,,0,0,0,0,75,0,75,0,,,,,,,,,,,,,,,,,,,,,,,,,,,,,,,,,,,,,,,,,,,,,,,75,8.0,f,019_m_f_s_a.jpg,sad,a,17,1,273.53164190007374,273.83197252009995,274.005848800065,274.1402184200706,274.14015350001864,274.1820009200601,274.18197640008293,274.66492452006787,a,1,274.18197640008293,274.66492452006787,274.6651830000337,276.3819753200514,0.4744090000167489,474.4090000167489,,,EMOCONPILOT005_120HZ,2021_Feb_25_1138,EmoCon_Pilot_120Hz,2020.2.4,119.99299241175999,
,,,,0,0,0,0,76,0,76,0,,,,,,,,,,,,,,,,,,,,,,,,,,,,,,,,,,,,,,,,,,,,,,,76,7.0,f,012_o_f_n_a.jpg,neutral,s,17,1,276.38223000010476,276.6819864200661,276.828146200045,276.9651540199993,276.96520400000736,277.0067890200298,277.0067851000931,277.41502181999385,a,0,277.0067851000931,277.41502181999385,277.4169518999988,278.52346022007987,0.39319880004040897,393.19880004040897,,,EMOCONPILOT005_120HZ,2021_Feb_25_1138,EmoCon_Pilot_120Hz,2020.2.4,119.99299241175999,
,,,,0,0,0,0,77,0,77,0,,,,,,,,,,,,,,,,,,,,,,,,,,,,,,,,,,,,,,,,,,,,,,,77,6.0,m,033_o_m_s_a.jpg,sad,a,17,1,278.5233558000764,278.82362212007865,278.87051330006216,279.0067299200455,279.0067634000443,279.04859242006205,279.0482538000215,279.639933819999,s,0,279.0482538000215,279.639933819999,279.6413481000345,280.7152125200955,0.583761699963361,583.761699963361,,,EMOCONPILOT005_120HZ,2021_Feb_25_1138,EmoCon_Pilot_120Hz,2020.2.4,119.99299241175999,
,,,,0,0,0,0,78,0,78,0,,,,,,,,,,,,,,,,,,,,,,,,,,,,,,,,,,,,,,,,,,,,,,,78,1.0,m,004_o_m_h_a.jpg,happy,d,17,1,280.7149061000673,281.0151708200574,281.61288560007233,281.74855502007995,281.74858860007953,281.79023172007874,281.7986171999946,282.2732073200168,d,1,281.7986171999946,282.2732073200168,282.2735227000667,283.4568257200299,0.46543690003454685,465.43690003454685,,,EMOCONPILOT005_120HZ,2021_Feb_25_1138,EmoCon_Pilot_120Hz,2020.2.4,119.99299241175999,
,,,,0,0,0,0,79,0,79,0,,,,,,,,,,,,,,,,,,,,,,,,,,,,,,,,,,,,,,,,,,,,,,,79,5.0,m,027_o_m_s_a.jpg,sad,a,3,1,283.4568607000401,283.7567050200887,283.7916384000564,283.815002520103,283.8150370999938,283.8567333200481,283.85675060003996,285.18993092002347,s,0,283.85675060003996,285.18993092002347,285.1911410000175,286.7985033200821,1.3193697000388056,1319.3697000388056,,,EMOCONPILOT005_120HZ,2021_Feb_25_1138,EmoCon_Pilot_120Hz,2020.2.4,119.99299241175999,
,,,,0,0,0,0,80,0,80,0,,,,,,,,,,,,,,,,,,,,,,,,,,,,,,,,,,,,,,,,,,,,,,,80,9.0,f,021_o_f_s_a.jpg,sad,a,3,1,286.80009890010115,287.09813232009765,287.1230252000969,287.1397307200823,287.1397459000582,287.1813859200338,287.18157770007383,288.68176301999483,None,0,287.18157770007383,288.68176301999483,288.68160220002756,289.7652018200606,,,,,EMOCONPILOT005_120HZ,2021_Feb_25_1138,EmoCon_Pilot_120Hz,2020.2.4,119.99299241175999,
,,,,0,0,0,0,81,0,81,0,,,,,,,,,,,,,,,,,,,,,,,,,,,,,,,,,,,,,,,,,,,,,,,81,5.0,m,027_o_m_s_a.jpg,sad,a,17,1,289.765229600016,290.0651733200066,290.09939019999,290.2400099200895,290.24000109999906,290.2818092200905,290.28181469999254,291.7817601200659,None,0,290.28181469999254,291.7817601200659,291.7817858000053,293.5567905200878,,,,,EMOCONPILOT005_120HZ,2021_Feb_25_1138,EmoCon_Pilot_120Hz,2020.2.4,119.99299241175999,
,,,,0,0,0,0,82,0,82,0,,,,,,,,,,,,,,,,,,,,,,,,,,,,,,,,,,,,,,,,,,,,,,,82,7.0,f,012_o_f_h_a.jpg,happy,d,17,1,293.5652546000201,293.85675642010756,293.8939836000791,294.0322465200443,294.0326847000979,294.0734380200738,294.07381860003807,294.5233344200533,d,1,294.07381860003807,294.5233344200533,294.5241240999894,295.9817483200459,0.4381055999547243,438.1055999547243,,,EMOCONPILOT005_120HZ,2021_Feb_25_1138,EmoCon_Pilot_120Hz,2020.2.4,119.99299241175999,
,,,,0,0,0,0,83,0,83,0,,,,,,,,,,,,,,,,,,,,,,,,,,,,,,,,,,,,,,,,,,,,,,,83,3.0,m,013_y_m_s_a.jpg,sad,a,17,1,295.99012170010246,296.2819580200594,296.32004200003576,296.45682042010594,296.4569743000902,296.49855812010355,296.49851890001446,297.1650413200259,s,0,296.49851890001446,297.1650413200259,297.164932899992,298.6235642200336,0.6533844000659883,653.3844000659883,,,EMOCONPILOT005_120HZ,2021_Feb_25_1138,EmoCon_Pilot_120Hz,2020.2.4,119.99299241175999,
,,,,0,0,0,0,84,0,84,0,,,,,,,,,,,,,,,,,,,,,,,,,,,,,,,,,,,,,,,,,,,,,,,84,5.0,m,027_o_m_s_a.jpg,sad,a,3,1,298.6249509000918,298.9236093200743,298.9479176000459,298.96507402008865,298.9650940001011,299.0067151200492,299.0067743000109,299.88979472010396,a,1,299.0067743000109,299.88979472010396,299.89085260010324,300.9565566200763,0.873388700070791,873.388700070791,,,EMOCONPILOT005_120HZ,2021_Feb_25_1138,EmoCon_Pilot_120Hz,2020.2.4,119.99299241175999,
,,,,0,0,0,0,85,0,85,0,,,,,,,,,,,,,,,,,,,,,,,,,,,,,,,,,,,,,,,,,,,,,,,85,4.0,m,016_y_m_s_a.jpg,sad,a,3,1,300.9565615000902,301.2568232200574,301.29149279999547,301.3150305200834,301.3150997000048,301.35665732005145,301.35655350005254,302.61511662008706,d,0,301.35655350005254,302.61511662008706,302.6163629000075,304.2818594200071,1.2435373000334948,1243.5373000334948,,,EMOCONPILOT005_120HZ,2021_Feb_25_1138,EmoCon_Pilot_120Hz,2020.2.4,119.99299241175999,
,,,,0,0,0,0,86,0,86,0,,,,,,,,,,,,,,,,,,,,,,,,,,,,,,,,,,,,,,,,,,,,,,,86,5.0,m,027_o_m_n_a.jpg,neutral,s,3,1,304.2818709000712,304.58180562010966,305.1956977000227,305.21853572002146,305.21685700002126,305.2567185200751,305.25676380004734,306.2399194200989,a,0,305.25676380004734,306.2399194200989,306.24113280000165,308.24043492006604,0.9752400000579655,975.2400000579655,,,EMOCONPILOT005_120HZ,2021_Feb_25_1138,EmoCon_Pilot_120Hz,2020.2.4,119.99299241175999,
,,,,0,0,0,0,87,0,87,0,,,,,,,,,,,,,,,,,,,,,,,,,,,,,,,,,,,,,,,,,,,,,,,87,3.0,m,013_y_m_h_a.jpg,happy,d,17,1,308.2415489000268,308.5403570201015,308.69970320002176,308.8319023200311,308.8318021000596,308.87346552009694,308.87431450001895,309.25651032000314,d,1,308.87431450001895,309.25651032000314,309.25673270004336,311.2230799200479,0.373633399954997,373.633399954997,,,EMOCONPILOT005_120HZ,2021_Feb_25_1138,EmoCon_Pilot_120Hz,2020.2.4,119.99299241175999,
,,,,0,0,0,0,88,0,88,0,,,,,,,,,,,,,,,,,,,,,,,,,,,,,,,,,,,,,,,,,,,,,,,88,5.0,m,027_o_m_s_a.jpg,sad,a,3,1,311.2239189000102,311.52356712007895,311.57257110008504,311.58997152000666,311.5898603000678,311.6314905200852,311.63175290008076,312.590128520038,a,1,311.63175290008076,312.590128520038,312.59056879999116,314.298504620092,0.9443781999871135,944.3781999871135,,,EMOCONPILOT005_120HZ,2021_Feb_25_1138,EmoCon_Pilot_120Hz,2020.2.4,119.99299241175999,
,,,,0,0,0,0,89,0,89,0,,,,,,,,,,,,,,,,,,,,,,,,,,,,,,,,,,,,,,,,,,,,,,,89,5.0,m,027_o_m_s_a.jpg,sad,a,17,1,314.2983583000023,314.59850412001833,314.6334567000158,314.77336942008696,314.77342260000296,314.81522722006775,314.81518000003416,315.523463520105,a,1,314.81518000003416,315.523463520105,315.52474520006217,317.0486414200859,0.6967751999618486,696.7751999618486,,,EMOCONPILOT005_120HZ,2021_Feb_25_1138,EmoCon_Pilot_120Hz,2020.2.4,119.99299241175999,
,,,,0,0,0,0,90,0,90,0,,,,,,,,,,,,,,,,,,,,,,,,,,,,,,,,,,,,,,,,,,,,,,,90,12.0,f,040_y_f_s_a.jpg,sad,a,3,1,317.04892940004356,317.34865982003976,317.38991680007894,317.4064887200948,317.4066660000244,317.4482659200439,317.44818790000863,318.7151347200852,d,0,317.44818790000863,318.7151347200852,318.71622960001696,320.28161172010005,1.2559375000419095,1255.9375000419095,,,EMOCONPILOT005_120HZ,2021_Feb_25_1138,EmoCon_Pilot_120Hz,2020.2.4,119.99299241175999,
,,,,0,0,0,0,91,0,91,0,,,,,,,,,,,,,,,,,,,,,,,,,,,,,,,,,,,,,,,,,,,,,,,91,3.0,m,013_y_m_n_a.jpg,neutral,s,17,1,320.2818366000429,320.58184832008556,321.2134272000985,321.34861822007224,321.3483266000403,321.3900984200882,321.3908675001003,321.8897728200536,s,1,321.3908675001003,321.8897728200536,321.89076950005256,323.64847602008376,0.4892083000158891,489.2083000158891,,,EMOCONPILOT005_120HZ,2021_Feb_25_1138,EmoCon_Pilot_120Hz,2020.2.4,119.99299241175999,
,,,,0,0,0,0,92,0,92,0,,,,,,,,,,,,,,,,,,,,,,,,,,,,,,,,,,,,,,,,,,,,,,,92,12.0,f,040_y_f_s_a.jpg,sad,a,3,1,323.64956900000107,323.9485495201079,323.9964040000923,324.01494302006904,324.01500470004976,324.05667472002096,324.0567372000078,324.8400064200396,d,0,324.0567372000078,324.8400064200396,324.8407231000019,326.58183872001246,0.7755081000505015,775.5081000505015,,,EMOCONPILOT005_120HZ,2021_Feb_25_1138,EmoCon_Pilot_120Hz,2020.2.4,119.99299241175999,
,,,,0,0,0,0,93,0,93,0,,,,,,,,,,,,,,,,,,,,,,,,,,,,,,,,,,,,,,,,,,,,,,,93,6.0,m,033_o_m_s_a.jpg,sad,a,17,1,326.58240630000364,326.8819182200823,326.9199341000058,327.0566245201044,327.0567716000369,327.0984569200082,327.09841140010394,327.60676132002845,s,0,327.09841140010394,327.60676132002845,327.607857300085,329.2234233201016,0.49372600007336587,493.72600007336587,,,EMOCONPILOT005_120HZ,2021_Feb_25_1138,EmoCon_Pilot_120Hz,2020.2.4,119.99299241175999,
,,,,0,0,0,0,94,0,94,0,,,,,,,,,,,,,,,,,,,,,,,,,,,,,,,,,,,,,,,,,,,,,,,94,2.0,m,008_y_m_s_a.jpg,sad,a,3,1,329.22349390003365,329.523020020104,330.1441271000076,330.16495402005967,330.1649812000105,330.206687220023,330.20675610005856,331.7066671201028,None,0,330.20675610005856,331.7066671201028,331.70669480005745,333.14846342010424,,,,,EMOCONPILOT005_120HZ,2021_Feb_25_1138,EmoCon_Pilot_120Hz,2020.2.4,119.99299241175999,
,,,,0,0,0,0,95,0,95,0,,,,,,,,,,,,,,,,,,,,,,,,,,,,,,,,,,,,,,,,,,,,,,,95,8.0,f,019_m_f_s_a.jpg,sad,a,17,1,333.1566831000382,333.44845762010664,333.6207798999967,333.75665862008464,333.75686260010116,333.7985258200206,333.7983436000068,334.2981772200437,a,1,333.7983436000068,334.2981772200437,334.2995617000852,336.0734352200525,0.4897447000257671,489.7447000257671,,,EMOCONPILOT005_120HZ,2021_Feb_25_1138,EmoCon_Pilot_120Hz,2020.2.4,119.99299241175999,
,,,,0,0,0,0,96,0,96,0,,,,,,,,,,,,,,,,,,,,,,,,,,,,,,,,,,,,,,,,,,,,,,,96,9.0,f,021_o_f_n_a.jpg,neutral,s,3,1,336.07352340000216,336.3734232200077,336.5246271000942,336.5399094200693,336.5398693000898,336.5816055200994,336.5816874000011,337.84000522003043,d,0,336.5816874000011,337.84000522003043,337.842080200091,339.45668452000245,1.250395700102672,1250.395700102672,,,EMOCONPILOT005_120HZ,2021_Feb_25_1138,EmoCon_Pilot_120Hz,2020.2.4,119.99299241175999,
,,,,0,0,0,0,97,0,97,0,,,,,,,,,,,,,,,,,,,,,,,,,,,,,,,,,,,,,,,,,,,,,,,97,11.0,f,030_o_f_h_a.jpg,happy,d,17,1,339.45676229998935,339.75682342005894,339.8978887000121,340.03189962008037,340.0317129000323,340.07357322005555,340.08192510006484,340.4405487200711,d,1,340.08192510006484,340.4405487200711,340.4497419000836,342.43183472007513,0.35008460003882647,350.08460003882647,,,EMOCONPILOT005_120HZ,2021_Feb_25_1138,EmoCon_Pilot_120Hz,2020.2.4,119.99299241175999,
,,,,0,0,0,0,98,0,98,0,,,,,,,,,,,,,,,,,,,,,,,,,,,,,,,,,,,,,,,,,,,,,,,98,12.0,f,040_y_f_n_a.jpg,neutral,s,17,1,342.44031400000677,342.7316973200068,342.8886513999896,343.02352652000263,343.0235449000029,343.0653557199985,343.0666798000457,343.6149903200567,s,1,343.0666798000457,343.6149903200567,343.6156439000042,345.02339712006506,0.5334134000586346,533.4134000586346,,,EMOCONPILOT005_120HZ,2021_Feb_25_1138,EmoCon_Pilot_120Hz,2020.2.4,119.99299241175999,
,,,,0,0,0,0,99,0,99,0,,,,,,,,,,,,,,,,,,,,,,,,,,,,,,,,,,,,,,,,,,,,,,,99,12.0,f,040_y_f_s_a.jpg,sad,a,3,1,345.0240046000108,345.32342732010875,345.36880370008294,345.38986352004576,345.38979750010185,345.4316531200893,345.4317197999917,346.13129122008104,a,1,345.4317197999917,346.13129122008104,346.1313194000395,347.5983314201003,0.6881137999007478,688.1137999007478,,,EMOCONPILOT005_120HZ,2021_Feb_25_1138,EmoCon_Pilot_120Hz,2020.2.4,119.99299241175999,
,,,,0,0,0,0,100,0,100,0,,,,,,,,,,,,,,,,,,,,,,,,,,,,,,,,,,,,,,,,,,,,,,,100,4.0,m,016_y_m_n_a.jpg,neutral,s,3,1,347.59818570001516,347.8981947200373,348.53385920007713,348.55661392002366,348.55662190006115,348.59838352003135,348.59818080009427,349.81511702004354,a,0,348.59818080009427,349.81511702004354,349.81552649999503,350.9647634200519,1.2019474999979138,1201.9474999979138,,,EMOCONPILOT005_120HZ,2021_Feb_25_1138,EmoCon_Pilot_120Hz,2020.2.4,119.99299241175999,
,,,,0,0,0,0,101,0,101,0,,,,,,,,,,,,,,,,,,,,,,,,,,,,,,,,,,,,,,,,,,,,,,,101,11.0,f,030_o_f_s_a.jpg,sad,a,3,1,350.96496500005014,351.2651314201066,351.4055028000148,351.42323592002504,351.42327170004137,351.46499462006614,351.46505630004685,352.32328862010036,a,1,351.46505630004685,352.32328862010036,352.331678400049,353.65683132002596,0.8469977000495419,846.9977000495419,,,EMOCONPILOT005_120HZ,2021_Feb_25_1138,EmoCon_Pilot_120Hz,2020.2.4,119.99299241175999,
,,,,0,0,0,0,102,0,102,0,,,,,,,,,,,,,,,,,,,,,,,,,,,,,,,,,,,,,,,,,,,,,,,102,3.0,m,013_y_m_h_a.jpg,happy,d,17,1,353.6651786000002,353.9566559200175,354.1140918000601,354.24842482001986,354.2482776000397,354.2901369200554,354.290112500079,354.6565844200086,d,1,354.290112500079,354.6565844200086,354.6573364000069,356.47349422005937,0.35809080000035465,358.09080000035465,,,EMOCONPILOT005_120HZ,2021_Feb_25_1138,EmoCon_Pilot_120Hz,2020.2.4,119.99299241175999,
,,,,0,0,0,0,103,0,103,0,,,,,,,,,,,,,,,,,,,,,,,,,,,,,,,,,,,,,,,,,,,,,,,103,2.0,m,008_y_m_s_a.jpg,sad,a,3,1,356.47331180004403,356.77348742005415,356.9422417000169,356.9649147200398,356.964836500003,357.0064938199939,357.0066870000446,358.1315081201028,s,0,357.0066870000446,358.1315081201028,358.1325818999903,359.2149843201041,1.1133304999675602,1113.3304999675602,,,EMOCONPILOT005_120HZ,2021_Feb_25_1138,EmoCon_Pilot_120Hz,2020.2.4,119.99299241175999,
,,,,0,0,0,0,104,0,104,0,,,,,,,,,,,,,,,,,,,,,,,,,,,,,,,,,,,,,,,,,,,,,,,104,11.0,f,030_o_f_s_a.jpg,sad,a,3,1,359.215140699991,359.5151144200936,359.6545165000716,359.6732419200707,359.673287200043,359.7147584200138,359.7147974000545,361.03997422009706,a,1,359.7147974000545,361.03997422009706,361.0408643000992,362.3317470200127,1.3173602999886498,1317.3602999886498,,,EMOCONPILOT005_120HZ,2021_Feb_25_1138,EmoCon_Pilot_120Hz,2020.2.4,119.99299241175999,
,,,,0,0,0,0,105,0,105,0,,,,,,,,,,,,,,,,,,,,,,,,,,,,,,,,,,,,,,,,,,,,,,,105,4.0,m,016_y_m_h_a.jpg,happy,d,3,1,362.331576500088,362.631757020019,362.6684911000775,362.68976102001034,362.68992910010274,362.7315948200412,362.7317456000019,363.8981326200301,d,1,362.7317456000019,363.8981326200301,363.8997304000659,365.5065722200088,1.1562689000274986,1156.2689000274986,,,EMOCONPILOT005_120HZ,2021_Feb_25_1138,EmoCon_Pilot_120Hz,2020.2.4,119.99299241175999,
,,,,0,0,0,0,106,0,106,0,,,,,,,,,,,,,,,,,,,,,,,,,,,,,,,,,,,,,,,,,,,,,,,106,7.0,f,012_o_f_n_a.jpg,neutral,s,3,1,365.5067681000801,365.8066485200543,366.4039413999999,366.42323952005245,366.42326810001396,366.4649657200789,366.4650238000322,367.9649548199959,None,0,366.4650238000322,367.9649548199959,367.96494430000894,369.11516842001583,,,,,EMOCONPILOT005_120HZ,2021_Feb_25_1138,EmoCon_Pilot_120Hz,2020.2.4,119.99299241175999,
,,,,0,0,0,0,107,0,107,0,,,,,,,,,,,,,,,,,,,,,,,,,,,,,,,,,,,,,,,,,,,,,,,107,11.0,f,030_o_f_h_a.jpg,happy,d,3,1,369.1156952000456,369.4147472199984,369.54161630000453,369.5577755200211,369.55643460003193,369.59831502009183,369.59831979998853,370.41497352009173,s,0,369.59831979998853,370.41497352009173,370.4231505000498,371.83162291999906,0.8018096999730915,801.8096999730915,,,EMOCONPILOT005_120HZ,2021_Feb_25_1138,EmoCon_Pilot_120Hz,2020.2.4,119.99299241175999,
,,,,0,0,0,0,108,0,108,0,,,,,,,,,,,,,,,,,,,,,,,,,,,,,,,,,,,,,,,,,,,,,,,108,1.0,m,004_o_m_s_a.jpg,sad,a,3,1,371.83169900008943,372.1317839201074,372.177565400023,372.19807392009534,372.1982517000288,372.23993372009136,372.23997160000727,373.189848320093,d,0,372.23997160000727,373.189848320093,373.1911827001022,374.9233708200045,0.9360844000475481,936.0844000475481,,,EMOCONPILOT005_120HZ,2021_Feb_25_1138,EmoCon_Pilot_120Hz,2020.2.4,119.99299241175999,
,,,,0,0,0,0,109,0,109,0,,,,,,,,,,,,,,,,,,,,,,,,,,,,,,,,,,,,,,,,,,,,,,,109,3.0,m,013_y_m_n_a.jpg,neutral,s,3,1,374.92297469999176,375.2234128200216,375.85168060008436,375.8732229199959,375.87325140007306,375.9149415200809,375.9149504000088,377.0480671200203,d,0,375.9149504000088,377.0480671200203,377.058855600073,378.72341582004447,1.125153600005433,1125.153600005433,,,EMOCONPILOT005_120HZ,2021_Feb_25_1138,EmoCon_Pilot_120Hz,2020.2.4,119.99299241175999,
,,,,0,0,0,0,110,0,110,0,,,,,,,,,,,,,,,,,,,,,,,,,,,,,,,,,,,,,,,,,,,,,,,110,10.0,f,028_y_f_s_a.jpg,sad,a,3,1,378.7316517001018,379.02383072010707,379.0750912000658,379.09819571999833,379.0982655000407,379.1399408200523,379.1399893000489,380.0647251200862,d,0,379.1399893000489,380.0647251200862,380.06554139999207,381.97371472010855,0.916018099989742,916.018099989742,,,EMOCONPILOT005_120HZ,2021_Feb_25_1138,EmoCon_Pilot_120Hz,2020.2.4,119.99299241175999,
,,,,0,0,0,0,111,0,111,0,,,,,,,,,,,,,,,,,,,,,,,,,,,,,,,,,,,,,,,,,,,,,,,111,11.0,f,030_o_f_h_a.jpg,happy,d,3,1,381.97818299999926,382.2734025201062,382.8694583000615,382.8898916200269,382.8899159000721,382.9315968200099,382.93160510004964,383.4981024200097,d,1,382.93160510004964,383.4981024200097,383.49971530004404,385.0150132200215,0.556444099987857,556.444099987857,,,EMOCONPILOT005_120HZ,2021_Feb_25_1138,EmoCon_Pilot_120Hz,2020.2.4,119.99299241175999,
,,,,0,0,0,0,112,0,112,0,,,,,,,,,,,,,,,,,,,,,,,,,,,,,,,,,,,,,,,,,,,,,,,112,7.0,f,012_o_f_n_a.jpg,neutral,s,3,1,385.01504040008876,385.31502512004226,385.4621754999971,385.4815377200721,385.48163450008724,385.52327372005675,385.5232926000608,387.0232894200599,None,0,385.5232926000608,387.0232894200599,387.0232931000646,388.9733107200591,,,,,EMOCONPILOT005_120HZ,2021_Feb_25_1138,EmoCon_Pilot_120Hz,2020.2.4,119.99299241175999,
,,,,0,0,0,0,113,0,113,0,,,,,,,,,,,,,,,,,,,,,,,,,,,,,,,,,,,,,,,,,,,,,,,113,2.0,m,008_y_m_s_a.jpg,sad,a,3,1,388.97331250004936,389.2730167200789,389.4423010000028,389.4646345200017,389.4646487000864,389.5062709200429,389.5063021000242,390.523138520075,a,1,389.5063021000242,390.523138520075,390.5245842000004,391.93157362006605,1.005583900026977,1005.5839000269771,,,EMOCONPILOT005_120HZ,2021_Feb_25_1138,EmoCon_Pilot_120Hz,2020.2.4,119.99299241175999,
,,,,0,0,0,0,114,0,114,0,,,,,,,,,,,,,,,,,,,,,,,,,,,,,,,,,,,,,,,,,,,,,,,114,11.0,f,030_o_f_h_a.jpg,happy,d,3,1,391.93278750008903,392.2317385200877,392.3766624000855,392.3980666201096,392.3982143000467,392.4399150200188,392.4399429000914,392.90653382008895,d,1,392.4399429000914,392.90653382008895,392.9071690000128,394.7234434200218,0.45588089991360903,455.880899913609,,,EMOCONPILOT005_120HZ,2021_Feb_25_1138,EmoCon_Pilot_120Hz,2020.2.4,119.99299241175999,
,,,,0,0,0,0,115,0,115,0,,,,,,,,,,,,,,,,,,,,,,,,,,,,,,,,,,,,,,,,,,,,,,,115,3.0,m,013_y_m_h_a.jpg,happy,d,3,1,394.7231413000263,395.023155120085,395.18958340003155,395.2065071200486,395.20654730009846,395.2482059200993,395.2482177000493,396.33994802006055,s,0,395.2482177000493,396.33994802006055,396.34094630007166,398.25690382008906,1.0798877000343055,1079.8877000343055,,,EMOCONPILOT005_120HZ,2021_Feb_25_1138,EmoCon_Pilot_120Hz,2020.2.4,119.99299241175999,
,,,,0,0,0,0,116,0,116,0,,,,,,,,,,,,,,,,,,,,,,,,,,,,,,,,,,,,,,,,,,,,,,,116,2.0,m,008_y_m_s_a.jpg,sad,a,3,1,398.2588461000705,398.5566567200003,398.7144767000573,398.7315055200597,398.73155240004417,398.7732435200596,398.7733103000792,400.2732487200992,None,0,398.7733103000792,400.2732487200992,400.27331369998865,402.156496420037,,,,,EMOCONPILOT005_120HZ,2021_Feb_25_1138,EmoCon_Pilot_120Hz,2020.2.4,119.99299241175999,
,,,,0,0,0,0,117,0,117,0,,,,,,,,,,,,,,,,,,,,,,,,,,,,,,,,,,,,,,,,,,,,,,,117,3.0,m,013_y_m_n_a.jpg,neutral,s,3,1,402.15659010002855,402.45666572009213,402.6231495999964,402.63971382007,402.6397311000619,402.6815833200235,402.6815928000724,403.98144232004415,s,1,402.6815928000724,403.98144232004415,403.9825971000828,405.96493142005056,1.2863044999539852,1286.3044999539852,,,EMOCONPILOT005_120HZ,2021_Feb_25_1138,EmoCon_Pilot_120Hz,2020.2.4,119.99299241175999,
,,,,0,0,0,0,118,0,118,0,,,,,,,,,,,,,,,,,,,,,,,,,,,,,,,,,,,,,,,,,,,,,,,118,6.0,m,033_o_m_n_a.jpg,neutral,s,3,1,405.96475570008624,406.2650298200315,406.3997325000819,406.4146259200061,406.4148739000084,406.45655472006183,406.45664150000084,407.74001572001725,s,1,406.45664150000084,407.74001572001725,407.7413826000411,409.0732926200144,1.2714140000753105,1271.4140000753105,,,EMOCONPILOT005_120HZ,2021_Feb_25_1138,EmoCon_Pilot_120Hz,2020.2.4,119.99299241175999,
,,,,0,0,0,0,119,0,119,0,,,,,,,,,,,,,,,,,,,,,,,,,,,,,,,,,,,,,,,,,,,,,,,119,6.0,m,033_o_m_n_a.jpg,neutral,s,3,1,409.0731311000418,409.3731435200898,409.5076184000354,409.5231483200332,409.5231990000466,409.5648276200518,409.56495000002906,410.4565038200235,s,1,409.56495000002906,410.4565038200235,410.45742340001743,412.0066651200177,0.8831377000315115,883.1377000315115,,,EMOCONPILOT005_120HZ,2021_Feb_25_1138,EmoCon_Pilot_120Hz,2020.2.4,119.99299241175999,
,,,,1,0,1,0,0,0,0,0,,,,,,,,,,,,,,,,,,,,,,,,,,,,,,,,,,,,,,,,412.07905060006306,454.839857920073,s,42.75283520005178,42752.83520005178,412.07905060006306,454.839857920073,0,1.0,m,004_o_m_s_a.jpg,sad,a,17,2,454.8397225000663,455.14001592004206,455.18434860010166,455.3231493200874,455.3231725000078,455.364986420027,455.3651470000623,455.97325552010443,a,1,455.3651470000623,455.97325552010443,455.97410810005385,457.2983033200726,0.5948726999340579,594.8726999340579,,,EMOCONPILOT005_120HZ,2021_Feb_25_1138,EmoCon_Pilot_120Hz,2020.2.4,119.99299241175999,
,,,,1,0,1,0,1,0,1,0,,,,,,,,,,,,,,,,,,,,,,,,,,,,,,,,,,,,,,,,,,,,,,,1,9.0,f,021_o_f_n_a.jpg,neutral,s,2,2,457.3067138000624,457.598251520074,458.2098486000905,458.2227552200202,458.2231603000546,458.2647263200488,458.26479520008434,459.55653872003313,s,1,458.26479520008434,459.55653872003313,459.559273699997,461.5316825200571,1.27899639995303,1278.99639995303,,,EMOCONPILOT005_120HZ,2021_Feb_25_1138,EmoCon_Pilot_120Hz,2020.2.4,119.99299241175999,
,,,,1,0,1,0,2,0,2,0,,,,,,,,,,,,,,,,,,,,,,,,,,,,,,,,,,,,,,,,,,,,,,,2,11.0,f,030_o_f_s_a.jpg,sad,a,2,2,461.5399491999997,461.8316821201006,461.96916330000386,461.9813239200739,461.98131340008695,462.02307452005334,462.0230313000502,462.6231880200794,s,0,462.0230313000502,462.6231880200794,462.6314544000197,464.03164792002644,0.5927437000209466,592.7437000209466,,,EMOCONPILOT005_120HZ,2021_Feb_25_1138,EmoCon_Pilot_120Hz,2020.2.4,119.99299241175999,
,,,,1,0,1,0,3,0,3,0,,,,,,,,,,,,,,,,,,,,,,,,,,,,,,,,,,,,,,,,,,,,,,,3,10.0,f,028_y_f_s_a.jpg,sad,a,17,2,464.033241200028,464.3316050200956,464.37422680004966,464.5151791200042,464.5175487000961,464.5569761201041,464.561200199998,465.1230614200467,a,1,464.561200199998,465.1230614200467,465.12296240008436,466.53989062004257,0.5507743000052869,550.7743000052869,,,EMOCONPILOT005_120HZ,2021_Feb_25_1138,EmoCon_Pilot_120Hz,2020.2.4,119.99299241175999,
,,,,1,0,1,0,4,0,4,0,,,,,,,,,,,,,,,,,,,,,,,,,,,,,,,,,,,,,,,,,,,,,,,4,6.0,m,033_o_m_n_a.jpg,neutral,s,17,2,466.53979920002166,466.83978532010224,467.43970580003224,467.57339751999825,467.57315970002674,467.61496502009686,467.61480710003525,468.16460792010184,s,1,467.61480710003525,468.16460792010184,468.16586800001096,469.4898495200323,0.5369981999974698,536.9981999974698,,,EMOCONPILOT005_120HZ,2021_Feb_25_1138,EmoCon_Pilot_120Hz,2020.2.4,119.99299241175999,
,,,,1,0,1,0,5,0,5,0,,,,,,,,,,,,,,,,,,,,,,,,,,,,,,,,,,,,,,,,,,,,,,,5,1.0,m,004_o_m_n_a.jpg,neutral,s,17,2,469.48991500004195,469.789819620084,469.9268830000656,470.06502852006815,470.06558500009123,470.10688062000554,470.1097515000729,470.63154082000256,s,1,470.1097515000729,470.63154082000256,470.63214640005026,472.33979662007187,0.5143907000310719,514.3907000310719,,,EMOCONPILOT005_120HZ,2021_Feb_25_1138,EmoCon_Pilot_120Hz,2020.2.4,119.99299241175999,
,,,,1,0,1,0,6,0,6,0,,,,,,,,,,,,,,,,,,,,,,,,,,,,,,,,,,,,,,,,,,,,,,,6,12.0,f,040_y_f_s_a.jpg,sad,a,17,2,472.3399361000629,472.6398808200611,472.6830727000488,472.8233281200519,472.82316120003816,472.8648521200521,472.8649873000104,473.6522135200212,a,1,472.8649873000104,473.6522135200212,473.6606937000761,474.78110352007207,0.7750945999287069,775.0945999287069,,,EMOCONPILOT005_120HZ,2021_Feb_25_1138,EmoCon_Pilot_120Hz,2020.2.4,119.99299241175999,
,,,,1,0,1,0,7,0,7,0,,,,,,,,,,,,,,,,,,,,,,,,,,,,,,,,,,,,,,,,,,,,,,,7,9.0,f,021_o_f_n_a.jpg,neutral,s,17,2,474.7812193999998,475.0814761200454,475.68913630000316,475.82331602007616,475.82311620004475,475.86500072001945,475.8654093000805,476.3397033200599,s,1,475.8654093000805,476.3397033200599,476.34826020000037,478.1149222200038,0.46260119997896254,462.60119997896254,,,EMOCONPILOT005_120HZ,2021_Feb_25_1138,EmoCon_Pilot_120Hz,2020.2.4,119.99299241175999,
,,,,1,0,1,0,8,0,8,0,,,,,,,,,,,,,,,,,,,,,,,,,,,,,,,,,,,,,,,,,,,,,,,8,9.0,f,021_o_f_s_a.jpg,sad,a,2,2,478.1232671000762,478.4150600200519,478.46397490007803,478.4759678200353,478.4729391000001,478.5146952200448,478.51486009999644,479.6645288200816,s,0,478.51486009999644,479.6645288200816,479.6649619000964,480.71476662007626,1.140936499927193,1140.936499927193,,,EMOCONPILOT005_120HZ,2021_Feb_25_1138,EmoCon_Pilot_120Hz,2020.2.4,119.99299241175999,
,,,,1,0,1,0,9,0,9,0,,,,,,,,,,,,,,,,,,,,,,,,,,,,,,,,,,,,,,,,,,,,,,,9,4.0,m,016_y_m_s_a.jpg,sad,a,17,2,480.7148616000777,481.0149385200348,481.0248021000298,481.1650088200113,481.16494230006356,481.20660612010397,481.2064902000129,481.7815220199991,a,1,481.2064902000129,481.7815220199991,481.78241290000733,483.73990992002655,0.5615455999504775,561.5455999504775,,,EMOCONPILOT005_120HZ,2021_Feb_25_1138,EmoCon_Pilot_120Hz,2020.2.4,119.99299241175999,
,,,,1,0,1,0,10,0,10,0,,,,,,,,,,,,,,,,,,,,,,,,,,,,,,,,,,,,,,,,,,,,,,,10,7.0,f,012_o_f_n_a.jpg,neutral,s,2,2,483.74833830003627,484.03974612010643,484.6375288000563,484.6498601200292,484.64792510005645,484.6897215200588,484.68959970003925,485.6149106200319,s,1,484.68959970003925,485.6149106200319,485.61567510000896,486.9981551200617,0.9104528999887407,910.4528999887407,,,EMOCONPILOT005_120HZ,2021_Feb_25_1138,EmoCon_Pilot_120Hz,2020.2.4,119.99299241175999,
,,,,1,0,1,0,11,0,11,0,,,,,,,,,,,,,,,,,,,,,,,,,,,,,,,,,,,,,,,,,,,,,,,11,2.0,m,008_y_m_n_a.jpg,neutral,s,17,2,486.998157300055,487.29811252001673,487.46149230003357,487.5982569199987,487.59834880009294,487.6400329200551,487.64829590008594,488.2979685200844,s,1,487.64829590008594,488.2979685200844,488.2993469000794,489.7148042200133,0.6396860999520868,639.6860999520868,,,EMOCONPILOT005_120HZ,2021_Feb_25_1138,EmoCon_Pilot_120Hz,2020.2.4,119.99299241175999,
,,,,1,0,1,0,12,0,12,0,,,,,,,,,,,,,,,,,,,,,,,,,,,,,,,,,,,,,,,,,,,,,,,12,1.0,m,004_o_m_s_a.jpg,sad,a,2,2,489.71538390009664,490.01482342008967,490.04980600008275,490.0645492200274,490.06485510000493,490.10648762003984,490.10651720000897,490.60655122005846,s,0,490.10651720000897,490.60655122005846,490.60760680004023,492.16482442000415,0.48551670007873327,485.51670007873327,,,EMOCONPILOT005_120HZ,2021_Feb_25_1138,EmoCon_Pilot_120Hz,2020.2.4,119.99299241175999,
,,,,1,0,1,0,13,0,13,0,,,,,,,,,,,,,,,,,,,,,,,,,,,,,,,,,,,,,,,,,,,,,,,13,7.0,f,012_o_f_h_a.jpg,happy,d,17,2,492.16469990008045,492.46475832001306,492.5009240000509,492.6398640200496,492.6396892000921,492.6815823200159,492.6813938000705,493.15625022002496,d,1,492.6813938000705,493.15625022002496,493.15675460000057,494.8231374199968,0.4624226000159979,462.4226000159979,,,EMOCONPILOT005_120HZ,2021_Feb_25_1138,EmoCon_Pilot_120Hz,2020.2.4,119.99299241175999,
,,,,1,0,1,0,14,0,14,0,,,,,,,,,,,,,,,,,,,,,,,,,,,,,,,,,,,,,,,,,,,,,,,14,3.0,m,013_y_m_h_a.jpg,happy,d,2,2,494.8232574000722,495.1231960200239,495.7472397000529,495.7590640200069,495.75630660005845,495.7980474201031,495.7981627000263,496.5812671200838,s,0,495.7981627000263,496.5812671200838,496.581749200006,498.1815637201071,0.7698235000716522,769.8235000716522,,,EMOCONPILOT005_120HZ,2021_Feb_25_1138,EmoCon_Pilot_120Hz,2020.2.4,119.99299241175999,
,,,,1,0,1,0,15,0,15,0,,,,,,,,,,,,,,,,,,,,,,,,,,,,,,,,,,,,,,,,,,,,,,,15,11.0,f,030_o_f_n_a.jpg,neutral,s,17,2,498.1814610000001,498.481499120011,498.6132052000612,498.74810432002414,498.748379800003,498.79004772007465,498.79038420005236,499.26456452009734,s,1,498.79038420005236,499.26456452009734,499.26465050003026,501.1813864200376,0.46569630003068596,465.69630003068596,,,EMOCONPILOT005_120HZ,2021_Feb_25_1138,EmoCon_Pilot_120Hz,2020.2.4,119.99299241175999,
,,,,1,0,1,0,16,0,16,0,,,,,,,,,,,,,,,,,,,,,,,,,,,,,,,,,,,,,,,,,,,,,,,16,3.0,m,013_y_m_n_a.jpg,neutral,s,2,2,501.1815759000601,501.4813853200758,501.64764910005033,501.6589055201039,501.65635910001583,501.6980412200792,501.6981676000869,503.1980121200904,None,0,501.6981676000869,503.1980121200904,503.19816300005186,505.04831532004755,,,,,EMOCONPILOT005_120HZ,2021_Feb_25_1138,EmoCon_Pilot_120Hz,2020.2.4,119.99299241175999,
,,,,1,0,1,0,17,0,17,0,,,,,,,,,,,,,,,,,,,,,,,,,,,,,,,,,,,,,,,,,,,,,,,17,9.0,f,021_o_f_h_a.jpg,happy,d,2,2,505.04971600009594,505.3482437200146,505.4876300999895,505.49987042008433,505.498075600015,505.53970182000194,505.53982330008876,506.97292402002495,s,0,505.53982330008876,506.97292402002495,506.97440460009966,508.41475922008976,1.42028299998492,1420.28299998492,,,EMOCONPILOT005_120HZ,2021_Feb_25_1138,EmoCon_Pilot_120Hz,2020.2.4,119.99299241175999,
,,,,1,0,1,0,18,0,18,0,,,,,,,,,,,,,,,,,,,,,,,,,,,,,,,,,,,,,,,,,,,,,,,18,3.0,m,013_y_m_s_a.jpg,sad,a,17,2,508.42329380009323,508.71495032007806,508.7610931000672,508.8980570200365,508.89827490004245,508.9394938200712,508.9398069001036,509.58983702003025,a,1,508.9398069001036,509.58983702003025,509.5907010000665,511.2565193200717,0.6362296999432147,636.2296999432147,,,EMOCONPILOT005_120HZ,2021_Feb_25_1138,EmoCon_Pilot_120Hz,2020.2.4,119.99299241175999,
,,,,1,0,1,0,19,0,19,0,,,,,,,,,,,,,,,,,,,,,,,,,,,,,,,,,,,,,,,,,,,,,,,19,10.0,f,028_y_f_h_a.jpg,happy,d,2,2,511.2565165000269,511.5565730200615,511.5909646000946,511.60635622008704,511.6063957000151,511.64787162002176,511.6480453000404,512.9398419200443,d,1,511.6480453000404,512.9398419200443,512.9407150000334,514.8648345200345,1.2797028999775648,1279.7028999775648,,,EMOCONPILOT005_120HZ,2021_Feb_25_1138,EmoCon_Pilot_120Hz,2020.2.4,119.99299241175999,
,,,,1,0,1,0,20,0,20,0,,,,,,,,,,,,,,,,,,,,,,,,,,,,,,,,,,,,,,,,,,,,,,,20,4.0,m,016_y_m_h_a.jpg,happy,d,2,2,514.8646673000185,515.164993620012,515.2071128000971,515.2191703200806,515.216661500046,515.2563144200249,515.2564771000762,515.9496202199953,s,0,515.2564771000762,515.9496202199953,515.9593585000839,517.098035120056,0.6795274999458343,679.5274999458343,,,EMOCONPILOT005_120HZ,2021_Feb_25_1138,EmoCon_Pilot_120Hz,2020.2.4,119.99299241175999,
,,,,1,0,1,0,21,0,21,0,,,,,,,,,,,,,,,,,,,,,,,,,,,,,,,,,,,,,,,,,,,,,,,21,6.0,m,033_o_m_h_a.jpg,happy,d,2,2,517.098145200056,517.3981815200532,517.4235067000845,517.4349059200613,517.4315667999908,517.4730901200091,517.4730056000408,518.0148231200874,s,0,517.4730056000408,518.0148231200874,518.0157981000375,519.5483020200627,0.526937699993141,526.937699993141,,,EMOCONPILOT005_120HZ,2021_Feb_25_1138,EmoCon_Pilot_120Hz,2020.2.4,119.99299241175999,
,,,,1,0,1,0,22,0,22,0,,,,,,,,,,,,,,,,,,,,,,,,,,,,,,,,,,,,,,,,,,,,,,,22,5.0,m,027_o_m_s_a.jpg,sad,a,2,2,519.549170000013,519.8481435200665,519.8748720000731,519.889713420067,519.8895832000999,519.9311895200517,519.931235200027,521.2645473200828,d,0,519.931235200027,521.2645473200828,521.2661556000821,523.0732283201069,1.3245279000839218,1324.5279000839218,,,EMOCONPILOT005_120HZ,2021_Feb_25_1138,EmoCon_Pilot_120Hz,2020.2.4,119.99299241175999,
,,,,1,0,1,0,23,0,23,0,,,,,,,,,,,,,,,,,,,,,,,,,,,,,,,,,,,,,,,,,,,,,,,23,10.0,f,028_y_f_n_a.jpg,neutral,s,17,2,523.0743254000554,523.3731459201081,523.96793360007,524.1065966200549,524.1066941000754,524.1484525200212,524.1505784000037,524.7313193200389,s,1,524.1505784000037,524.7313193200389,524.7330471000168,526.5481613200391,0.5692787999287248,569.2787999287248,,,EMOCONPILOT005_120HZ,2021_Feb_25_1138,EmoCon_Pilot_120Hz,2020.2.4,119.99299241175999,
,,,,1,0,1,0,24,0,24,0,,,,,,,,,,,,,,,,,,,,,,,,,,,,,,,,,,,,,,,,,,,,,,,24,9.0,f,021_o_f_n_a.jpg,neutral,s,17,2,526.5481516000582,526.8481761200819,526.98968410003,527.1232992199948,527.1232871999964,527.1648371201009,527.1647279000608,527.5145098200301,s,1,527.1647279000608,527.5145098200301,527.5241155000404,528.8981722200988,0.3393930000020191,339.3930000020191,,,EMOCONPILOT005_120HZ,2021_Feb_25_1138,EmoCon_Pilot_120Hz,2020.2.4,119.99299241175999,
,,,,1,0,1,0,25,0,25,0,,,,,,,,,,,,,,,,,,,,,,,,,,,,,,,,,,,,,,,,,,,,,,,25,8.0,f,019_m_f_h_a.jpg,happy,d,17,2,528.9064989000326,529.1982498200377,529.2458815000718,529.3816340200137,529.381490400061,529.4231250199955,529.423009900027,529.8065150200855,d,1,529.423009900027,529.8065150200855,529.8079878001008,530.8982578200521,0.3687502999091521,368.7502999091521,,,EMOCONPILOT005_120HZ,2021_Feb_25_1138,EmoCon_Pilot_120Hz,2020.2.4,119.99299241175999,
,,,,1,0,1,0,26,0,26,0,,,,,,,,,,,,,,,,,,,,,,,,,,,,,,,,,,,,,,,,,,,,,,,26,4.0,m,016_y_m_n_a.jpg,neutral,s,2,2,530.897995700012,531.1980900201015,531.825973900035,531.8393782200292,531.839711900102,531.8814291200833,531.8811831000494,533.2312605200568,s,1,531.8811831000494,533.2312605200568,533.2325388001045,535.1894909200491,1.3425310000311583,1342.5310000311583,,,EMOCONPILOT005_120HZ,2021_Feb_25_1138,EmoCon_Pilot_120Hz,2020.2.4,119.99299241175999,
,,,,1,0,1,0,27,0,27,0,,,,,,,,,,,,,,,,,,,,,,,,,,,,,,,,,,,,,,,,,,,,,,,27,1.0,m,004_o_m_h_a.jpg,happy,d,17,2,535.1897670000326,535.4898570200894,535.6242609000765,535.7564154200954,535.756292700069,535.7981359200785,535.7981122999918,536.2064724200172,d,1,535.7981122999918,536.2064724200172,536.2077629000414,537.7480477200588,0.39389210008084774,393.89210008084774,,,EMOCONPILOT005_120HZ,2021_Feb_25_1138,EmoCon_Pilot_120Hz,2020.2.4,119.99299241175999,
,,,,1,0,1,0,28,0,28,0,,,,,,,,,,,,,,,,,,,,,,,,,,,,,,,,,,,,,,,,,,,,,,,28,10.0,f,028_y_f_s_a.jpg,sad,a,17,2,537.748417200055,538.0484603201039,538.0987324001035,538.2312817201018,538.2313066000352,538.2731047200505,538.2729275000747,538.7064600200392,s,0,538.2729275000747,538.7064600200392,538.7091847000411,540.33982432005,0.42298199993092567,422.98199993092567,,,EMOCONPILOT005_120HZ,2021_Feb_25_1138,EmoCon_Pilot_120Hz,2020.2.4,119.99299241175999,
,,,,1,0,1,0,29,0,29,0,,,,,,,,,,,,,,,,,,,,,,,,,,,,,,,,,,,,,,,,,,,,,,,29,5.0,m,027_o_m_h_a.jpg,happy,d,17,2,540.3404178000055,540.6398890200071,541.2482781000435,541.3815187200671,541.3814993000124,541.4231769200414,541.4242319000186,542.0728365200339,d,1,541.4242319000186,542.0728365200339,542.0744178000605,543.3982334200991,0.6397359999828041,639.7359999828041,,,EMOCONPILOT005_120HZ,2021_Feb_25_1138,EmoCon_Pilot_120Hz,2020.2.4,119.99299241175999,
,,,,1,0,1,0,30,0,30,0,,,,,,,,,,,,,,,,,,,,,,,,,,,,,,,,,,,,,,,,,,,,,,,30,10.0,f,028_y_f_h_a.jpg,happy,d,2,2,543.406672900077,543.6982412200887,543.7441500000423,543.7564145200886,543.7563516000519,543.7979412201094,543.7978542000055,544.6728833200177,s,0,543.7978542000055,544.6728833200177,544.6742667000508,546.0815789200133,0.8661226000403985,866.1226000403985,,,EMOCONPILOT005_120HZ,2021_Feb_25_1138,EmoCon_Pilot_120Hz,2020.2.4,119.99299241175999,
,,,,1,0,1,0,31,0,31,0,,,,,,,,,,,,,,,,,,,,,,,,,,,,,,,,,,,,,,,,,,,,,,,31,5.0,m,027_o_m_h_a.jpg,happy,d,17,2,546.0821568000829,546.3816407200648,546.992239800049,547.1315082201036,547.1313098000828,547.1730902200798,547.1729858000763,547.5982318200404,d,1,547.1729858000763,547.5982318200404,547.6012089001015,549.2899207200389,0.4110024000983685,411.0024000983685,,,EMOCONPILOT005_120HZ,2021_Feb_25_1138,EmoCon_Pilot_120Hz,2020.2.4,119.99299241175999,
,,,,1,0,1,0,32,0,32,0,,,,,,,,,,,,,,,,,,,,,,,,,,,,,,,,,,,,,,,,,,,,,,,32,9.0,f,021_o_f_n_a.jpg,neutral,s,2,2,549.2917435000418,549.5898442200851,549.7317466000095,549.7431316199945,549.7407947001047,549.7812990200473,549.7813492000569,551.2814942200202,None,0,549.7813492000569,551.2814942200202,551.2814284000779,552.7650796200614,,,,,EMOCONPILOT005_120HZ,2021_Feb_25_1138,EmoCon_Pilot_120Hz,2020.2.4,119.99299241175999,
,,,,1,0,1,0,33,0,33,0,,,,,,,,,,,,,,,,,,,,,,,,,,,,,,,,,,,,,,,,,,,,,,,33,3.0,m,013_y_m_s_a.jpg,sad,a,17,2,552.7664012000896,553.0645188200288,553.098408000078,553.2314753200626,553.2313068000367,553.2731517200591,553.2730059000896,554.3062036200427,a,1,553.2730059000896,554.3062036200427,554.3075009000022,555.8232591201086,1.0228684999747202,1022.8684999747202,,,EMOCONPILOT005_120HZ,2021_Feb_25_1138,EmoCon_Pilot_120Hz,2020.2.4,119.99299241175999,
,,,,1,0,1,0,34,0,34,0,,,,,,,,,,,,,,,,,,,,,,,,,,,,,,,,,,,,,,,,,,,,,,,34,1.0,m,004_o_m_n_a.jpg,neutral,s,17,2,555.8243327999953,556.1232704200083,556.7207902000519,556.8565151200164,556.8565123000881,556.8979973200476,556.8983753999928,557.4312410200946,s,1,556.8983753999928,557.4312410200946,557.4325693000574,558.9563545200508,0.5255973000312224,525.5973000312224,,,EMOCONPILOT005_120HZ,2021_Feb_25_1138,EmoCon_Pilot_120Hz,2020.2.4,119.99299241175999,
,,,,1,0,1,0,35,0,35,0,,,,,,,,,,,,,,,,,,,,,,,,,,,,,,,,,,,,,,,,,,,,,,,35,12.0,f,040_y_f_h_a.jpg,happy,d,17,2,558.9563241000287,559.2565066200914,559.3013630000642,559.4398052199977,559.4396702999948,559.4814023200888,559.4814770000521,559.8729878200684,d,1,559.4814770000521,559.8729878200684,559.8771996001014,561.3897680200171,0.38264960004016757,382.64960004016757,,,EMOCONPILOT005_120HZ,2021_Feb_25_1138,EmoCon_Pilot_120Hz,2020.2.4,119.99299241175999,
,,,,1,0,1,0,36,0,36,0,,,,,,,,,,,,,,,,,,,,,,,,,,,,,,,,,,,,,,,,,,,,,,,36,10.0,f,028_y_f_n_a.jpg,neutral,s,17,2,561.3897673999891,561.6897565200925,562.2874430000084,562.4231640200596,562.4231793000363,562.4648480199976,562.4647735999897,562.8147775200196,s,1,562.4647735999897,562.8147775200196,562.8155425000004,564.648121520062,0.3353026000550017,335.3026000550017,,,EMOCONPILOT005_120HZ,2021_Feb_25_1138,EmoCon_Pilot_120Hz,2020.2.4,119.99299241175999,
,,,,1,0,1,0,37,0,37,0,,,,,,,,,,,,,,,,,,,,,,,,,,,,,,,,,,,,,,,,,,,,,,,37,11.0,f,030_o_f_n_a.jpg,neutral,s,2,2,564.6480785000604,564.9480694200611,565.076629600022,565.08962032001,565.0895540000638,565.1312652199995,565.1313364000525,566.0563538200222,s,1,565.1313364000525,566.0563538200222,566.0567559000337,567.1149444200564,0.916569699998945,916.569699998945,,,EMOCONPILOT005_120HZ,2021_Feb_25_1138,EmoCon_Pilot_120Hz,2020.2.4,119.99299241175999,
,,,,1,0,1,0,38,0,38,0,,,,,,,,,,,,,,,,,,,,,,,,,,,,,,,,,,,,,,,,,,,,,,,38,1.0,m,004_o_m_h_a.jpg,happy,d,17,2,567.116835599998,567.4146813200787,567.5509533000877,567.689772920101,567.6897649000166,567.7314770200755,567.7312954000663,568.0729108200176,d,1,567.7312954000663,568.0729108200176,568.074184200028,569.9313462200807,0.33268420002423227,332.68420002423227,,,EMOCONPILOT005_120HZ,2021_Feb_25_1138,EmoCon_Pilot_120Hz,2020.2.4,119.99299241175999,
,,,,1,0,1,0,39,0,39,0,,,,,,,,,,,,,,,,,,,,,,,,,,,,,,,,,,,,,,,,,,,,,,,39,6.0,m,033_o_m_h_a.jpg,happy,d,2,2,569.9313900000416,570.2315923200222,570.2769255000167,570.2893357200082,570.2896325000329,570.3312685200945,570.3311722000362,571.3394960199948,s,0,570.3311722000362,571.3394960199948,571.3506983000552,573.0147864200408,0.9967556999763474,996.7556999763474,,,EMOCONPILOT005_120HZ,2021_Feb_25_1138,EmoCon_Pilot_120Hz,2020.2.4,119.99299241175999,
,,,,1,0,1,0,40,0,40,0,,,,,,,,,,,,,,,,,,,,,,,,,,,,,,,,,,,,,,,,,,,,,,,40,7.0,f,012_o_f_h_a.jpg,happy,d,2,2,573.014748500078,573.3146711200243,573.3508514000569,573.3646045200294,573.3646608000854,573.4062788200099,573.4063799000578,573.983255219995,s,0,573.4063799000578,573.983255219995,573.984689700068,575.0233311200282,0.5696451000403613,569.6451000403613,,,EMOCONPILOT005_120HZ,2021_Feb_25_1138,EmoCon_Pilot_120Hz,2020.2.4,119.99299241175999,
,,,,1,0,1,0,41,0,41,0,,,,,,,,,,,,,,,,,,,,,,,,,,,,,,,,,,,,,,,,,,,,,,,41,6.0,m,033_o_m_n_a.jpg,neutral,s,17,2,575.0251003000885,575.3232925200136,575.9223405000521,576.0563027200988,576.0562816000311,576.0980581199983,576.098092500004,576.6148376200581,s,1,576.098092500004,576.6148376200581,576.617488100077,578.2480354200816,0.5019190999446437,501.9190999446437,,,EMOCONPILOT005_120HZ,2021_Feb_25_1138,EmoCon_Pilot_120Hz,2020.2.4,119.99299241175999,
,,,,1,0,1,0,42,0,42,0,,,,,,,,,,,,,,,,,,,,,,,,,,,,,,,,,,,,,,,,,,,,,,,42,7.0,f,012_o_f_h_a.jpg,happy,d,17,2,578.248161100084,578.5482013199944,578.5933515999932,578.7312639200827,578.7314728000201,578.7729418200906,578.7731319000013,579.1478143200511,d,1,578.7731319000013,579.1478143200511,579.1487430999987,580.5398642200744,0.362633700016886,362.633700016886,,,EMOCONPILOT005_120HZ,2021_Feb_25_1138,EmoCon_Pilot_120Hz,2020.2.4,119.99299241175999,
,,,,1,0,1,0,43,0,43,0,,,,,,,,,,,,,,,,,,,,,,,,,,,,,,,,,,,,,,,,,,,,,,,43,5.0,m,027_o_m_h_a.jpg,happy,d,17,2,580.5417374999961,580.839849120006,581.4455655000638,581.5815660200315,581.581534099998,581.6232351200888,581.6235846000491,582.5146158200223,d,1,581.6235846000491,582.5146158200223,582.5160128000425,584.0396061200881,0.880404100054875,880.404100054875,,,EMOCONPILOT005_120HZ,2021_Feb_25_1138,EmoCon_Pilot_120Hz,2020.2.4,119.99299241175999,
,,,,1,0,1,0,44,0,44,0,,,,,,,,,,,,,,,,,,,,,,,,,,,,,,,,,,,,,,,,,,,,,,,44,10.0,f,028_y_f_s_a.jpg,sad,a,17,2,584.0397117000539,584.3397763200337,584.3824816000415,584.5230824199971,584.5230266000144,584.5645942200208,584.5646438000258,585.0812577200122,s,0,584.5646438000258,585.0812577200122,585.0821384000592,586.7397901200457,0.5072394999442622,507.2394999442622,,,EMOCONPILOT005_120HZ,2021_Feb_25_1138,EmoCon_Pilot_120Hz,2020.2.4,119.99299241175999,
,,,,1,0,1,0,45,0,45,0,,,,,,,,,,,,,,,,,,,,,,,,,,,,,,,,,,,,,,,,,,,,,,,45,7.0,f,012_o_f_n_a.jpg,neutral,s,2,2,586.7400907000992,587.0397057200316,587.6453897000756,587.6578318200773,587.6562961000018,587.6978975200327,587.6980526000261,589.0395131200785,d,0,587.6980526000261,589.0395131200785,589.0399819000158,590.7231368200155,1.3335896000498906,1333.5896000498906,,,EMOCONPILOT005_120HZ,2021_Feb_25_1138,EmoCon_Pilot_120Hz,2020.2.4,119.99299241175999,
,,,,1,0,1,0,46,0,46,0,,,,,,,,,,,,,,,,,,,,,,,,,,,,,,,,,,,,,,,,,,,,,,,46,1.0,m,004_o_m_n_a.jpg,neutral,s,17,2,590.7313310001045,591.0230561200297,591.1582337000873,591.2978974200087,591.2979783000192,591.3398005201016,591.3397627000231,591.8064285200089,s,1,591.3397627000231,591.8064285200089,591.809536500019,593.3564140200615,0.4602546999230981,460.2546999230981,,,EMOCONPILOT005_120HZ,2021_Feb_25_1138,EmoCon_Pilot_120Hz,2020.2.4,119.99299241175999,
,,,,1,0,1,0,47,0,47,0,,,,,,,,,,,,,,,,,,,,,,,,,,,,,,,,,,,,,,,,,,,,,,,47,9.0,f,021_o_f_h_a.jpg,happy,d,17,2,593.3564264000161,593.6564358200412,593.7906377000036,593.9229376200819,593.9230219000019,593.965178720071,593.969789099996,594.3730551199988,d,1,593.969789099996,594.3730551199988,594.3752511000494,595.8147805200424,0.3899147999472916,389.9147999472916,,,EMOCONPILOT005_120HZ,2021_Feb_25_1138,EmoCon_Pilot_120Hz,2020.2.4,119.99299241175999,
,,,,1,0,1,0,48,0,48,0,,,,,,,,,,,,,,,,,,,,,,,,,,,,,,,,,,,,,,,,,,,,,,,48,10.0,f,028_y_f_n_a.jpg,neutral,s,17,2,595.8229490000522,596.1147864200175,596.249387799995,596.3812213200144,596.3814228000119,596.4230580200674,596.4229266000912,596.7145066200756,s,1,596.4229266000912,596.7145066200756,596.716702900012,598.6316736200824,0.2814199000131339,281.4199000131339,,,EMOCONPILOT005_120HZ,2021_Feb_25_1138,EmoCon_Pilot_120Hz,2020.2.4,119.99299241175999,
,,,,1,0,1,0,49,0,49,0,,,,,,,,,,,,,,,,,,,,,,,,,,,,,,,,,,,,,,,,,,,,,,,49,7.0,f,012_o_f_h_a.jpg,happy,d,2,2,598.6338402000256,598.9315221200231,598.9659897000529,598.9811469200067,598.9813699000515,599.0229983200552,599.0230303000426,599.7228653200436,a,0,599.0230303000426,599.7228653200436,599.7243712000782,601.7149079201045,0.6889412000309676,688.9412000309676,,,EMOCONPILOT005_120HZ,2021_Feb_25_1138,EmoCon_Pilot_120Hz,2020.2.4,119.99299241175999,
,,,,1,0,1,0,50,0,50,0,,,,,,,,,,,,,,,,,,,,,,,,,,,,,,,,,,,,,,,,,,,,,,,50,5.0,m,027_o_m_h_a.jpg,happy,d,17,2,601.7152820000192,602.0148855200969,602.6154624000192,602.7482480200706,602.7480906000128,602.789981220034,602.7905524000525,603.1813139200676,d,1,602.7905524000525,603.1813139200676,603.1818683000747,604.2647891200613,0.3773490000749007,377.3490000749007,,,EMOCONPILOT005_120HZ,2021_Feb_25_1138,EmoCon_Pilot_120Hz,2020.2.4,119.99299241175999,
,,,,1,0,1,0,51,0,51,0,,,,,,,,,,,,,,,,,,,,,,,,,,,,,,,,,,,,,,,,,,,,,,,51,12.0,f,040_y_f_n_a.jpg,neutral,s,2,2,604.2646939000115,604.5647695200751,604.7165303000947,604.7310663200915,604.731257300009,604.7727465200005,604.7729877000675,605.631082620006,s,1,604.7729877000675,605.631082620006,605.6395142000401,607.2648327200441,0.8508152000140399,850.8152000140399,,,EMOCONPILOT005_120HZ,2021_Feb_25_1138,EmoCon_Pilot_120Hz,2020.2.4,119.99299241175999,
,,,,1,0,1,0,52,0,52,0,,,,,,,,,,,,,,,,,,,,,,,,,,,,,,,,,,,,,,,,,,,,,,,52,2.0,m,008_y_m_h_a.jpg,happy,d,17,2,607.2653148000827,607.5648604200687,607.612538699992,607.7480403200025,607.7480437000049,607.7895203200169,607.7897269000532,608.1313737200107,d,1,607.7897269000532,608.1313737200107,608.1318374000257,609.6644826200791,0.3301384999649599,330.1384999649599,,,EMOCONPILOT005_120HZ,2021_Feb_25_1138,EmoCon_Pilot_120Hz,2020.2.4,119.99299241175999,
,,,,1,0,1,0,53,0,53,0,,,,,,,,,,,,,,,,,,,,,,,,,,,,,,,,,,,,,,,,,,,,,,,53,6.0,m,033_o_m_h_a.jpg,happy,d,17,2,609.6645338000963,609.9645859200973,609.9926502000308,610.1313299200265,610.1313457000069,610.1732163201086,610.1815307000652,610.7646604200127,d,1,610.1815307000652,610.7646604200127,610.7665234000888,611.9392827200936,0.5702209000010043,570.2209000010043,,,EMOCONPILOT005_120HZ,2021_Feb_25_1138,EmoCon_Pilot_120Hz,2020.2.4,119.99299241175999,
,,,,1,0,1,0,54,0,54,0,,,,,,,,,,,,,,,,,,,,,,,,,,,,,,,,,,,,,,,,,,,,,,,54,2.0,m,008_y_m_h_a.jpg,happy,d,17,2,611.9396711000009,612.2397596200462,612.2791440000292,612.4148706200067,612.4146433999995,612.4565144201042,612.4567076000385,612.9980051200837,d,1,612.4567076000385,612.9980051200837,612.9993756000185,614.9064183200244,0.5269361999817193,526.9361999817193,,,EMOCONPILOT005_120HZ,2021_Feb_25_1138,EmoCon_Pilot_120Hz,2020.2.4,119.99299241175999,
,,,,1,0,1,0,55,0,55,0,,,,,,,,,,,,,,,,,,,,,,,,,,,,,,,,,,,,,,,,,,,,,,,55,12.0,f,040_y_f_h_a.jpg,happy,d,17,2,614.906402099994,615.2064702200005,615.2436241999967,615.3814619201003,615.3814556000289,615.4231438200222,615.4228975001024,616.0142940200167,d,1,615.4228975001024,616.0142940200167,616.015675600036,617.4398755200673,0.5767357000149786,576.7357000149786,,,EMOCONPILOT005_120HZ,2021_Feb_25_1138,EmoCon_Pilot_120Hz,2020.2.4,119.99299241175999,
,,,,1,0,1,0,56,0,56,0,,,,,,,,,,,,,,,,,,,,,,,,,,,,,,,,,,,,,,,,,,,,,,,56,10.0,f,028_y_f_n_a.jpg,neutral,s,17,2,617.4400556000182,617.7398298199987,618.3296389000025,618.464624520042,618.4648177000927,618.5062532200245,618.5064218000043,618.964684620034,s,1,618.5064218000043,618.964684620034,618.9655808000825,620.5565054200124,0.44533579994458705,445.33579994458705,,,EMOCONPILOT005_120HZ,2021_Feb_25_1138,EmoCon_Pilot_120Hz,2020.2.4,119.99299241175999,
,,,,1,0,1,0,57,0,57,0,,,,,,,,,,,,,,,,,,,,,,,,,,,,,,,,,,,,,,,,,,,,,,,57,12.0,f,040_y_f_s_a.jpg,sad,a,17,2,620.557333100005,620.8565293200081,620.9053517000284,621.0396189200692,621.0397439000662,621.0813916201005,621.0811984000029,621.6562325200066,a,1,621.0811984000029,621.6562325200066,621.6645533000119,623.598179420107,0.56664550001733,566.64550001733,,,EMOCONPILOT005_120HZ,2021_Feb_25_1138,EmoCon_Pilot_120Hz,2020.2.4,119.99299241175999,
,,,,1,0,1,0,58,0,58,0,,,,,,,,,,,,,,,,,,,,,,,,,,,,,,,,,,,,,,,,,,,,,,,58,5.0,m,027_o_m_n_a.jpg,neutral,s,2,2,623.6065959000262,623.898102820036,624.5043245000998,624.5164893200854,624.5144767001038,624.5562105200952,624.5563104000175,626.0562455200125,None,0,624.5563104000175,626.0562455200125,626.0563036000822,627.2562416200526,,,,,EMOCONPILOT005_120HZ,2021_Feb_25_1138,EmoCon_Pilot_120Hz,2020.2.4,119.99299241175999,
,,,,1,0,1,0,59,0,59,0,,,,,,,,,,,,,,,,,,,,,,,,,,,,,,,,,,,,,,,,,,,,,,,59,4.0,m,016_y_m_s_a.jpg,sad,a,17,2,627.2561581000919,627.5565574200591,627.6049419000046,627.7397205200978,627.7397214000812,627.7812858200632,627.781365300063,628.3726934200386,a,1,627.781365300063,628.3726934200386,628.3734923000447,629.6647104200674,0.5785668001044542,578.5668001044542,,,EMOCONPILOT005_120HZ,2021_Feb_25_1138,EmoCon_Pilot_120Hz,2020.2.4,119.99299241175999,
,,,,1,0,1,0,60,0,60,0,,,,,,,,,,,,,,,,,,,,,,,,,,,,,,,,,,,,,,,,,,,,,,,60,5.0,m,027_o_m_n_a.jpg,neutral,s,2,2,629.6646122999955,629.9651971200947,630.5779540000949,630.5904169200221,630.589534800034,630.6311580199981,630.6313103000866,631.2810660200194,s,1,630.6313103000866,631.2810660200194,631.2897117000539,632.531312820036,0.6406905999174342,640.6905999174342,,,EMOCONPILOT005_120HZ,2021_Feb_25_1138,EmoCon_Pilot_120Hz,2020.2.4,119.99299241175999,
,,,,1,0,1,0,61,0,61,0,,,,,,,,,,,,,,,,,,,,,,,,,,,,,,,,,,,,,,,,,,,,,,,61,10.0,f,028_y_f_s_a.jpg,sad,a,17,2,632.5313558999915,632.8311313200975,632.866616900079,633.0063438200159,633.006302600028,633.0481723200064,633.0483348000562,634.0893598200055,d,0,633.0483348000562,634.0893598200055,634.0902555000503,635.3981067200657,1.0313974000746384,1031.3974000746384,,,EMOCONPILOT005_120HZ,2021_Feb_25_1138,EmoCon_Pilot_120Hz,2020.2.4,119.99299241175999,
,,,,1,0,1,0,62,0,62,0,,,,,,,,,,,,,,,,,,,,,,,,,,,,,,,,,,,,,,,,,,,,,,,62,3.0,m,013_y_m_n_a.jpg,neutral,s,17,2,635.3978863999946,635.698110420024,636.3256456000963,636.4647500200663,636.465547400061,636.5066087200539,636.5070547000505,636.9980070200982,s,1,636.5070547000505,636.9980070200982,636.9992856000317,638.5065638200613,0.4769126999890432,476.9126999890432,,,EMOCONPILOT005_120HZ,2021_Feb_25_1138,EmoCon_Pilot_120Hz,2020.2.4,119.99299241175999,
,,,,1,0,1,0,63,0,63,0,,,,,,,,,,,,,,,,,,,,,,,,,,,,,,,,,,,,,,,,,,,,,,,63,4.0,m,016_y_m_s_a.jpg,sad,a,17,2,638.5078309000237,638.8062823200598,638.853496100055,638.9898932200158,638.9980540000834,639.0313523201039,639.0313001000322,639.4480370200472,a,1,639.0313001000322,639.4480370200472,639.4484447001014,641.3646425200859,0.4084565999219194,408.4565999219194,,,EMOCONPILOT005_120HZ,2021_Feb_25_1138,EmoCon_Pilot_120Hz,2020.2.4,119.99299241175999,
,,,,1,0,1,0,64,0,64,0,,,,,,,,,,,,,,,,,,,,,,,,,,,,,,,,,,,,,,,,,,,,,,,64,12.0,f,040_y_f_h_a.jpg,happy,d,17,2,641.3645495000528,641.6646044200752,641.6692592999898,641.8065047200071,641.8063846000005,641.8481671200134,641.8488916000351,642.2394133200869,d,1,641.8488916000351,642.2394133200869,642.2399232999887,644.006424220046,0.3750199000351131,375.0199000351131,,,EMOCONPILOT005_120HZ,2021_Feb_25_1138,EmoCon_Pilot_120Hz,2020.2.4,119.99299241175999,
,,,,1,0,1,0,65,0,65,0,,,,,,,,,,,,,,,,,,,,,,,,,,,,,,,,,,,,,,,,,,,,,,,65,5.0,m,027_o_m_n_a.jpg,neutral,s,2,2,644.0065465000225,644.3063877200475,644.9111073000822,644.9226012200816,644.922887600027,644.9645004200283,644.9645774000091,646.2146695200354,a,0,644.9645774000091,646.2146695200354,646.2157955000876,647.6729996200884,1.2353991999989375,1235.3991999989375,,,EMOCONPILOT005_120HZ,2021_Feb_25_1138,EmoCon_Pilot_120Hz,2020.2.4,119.99299241175999,
,,,,1,0,1,0,66,0,66,0,,,,,,,,,,,,,,,,,,,,,,,,,,,,,,,,,,,,,,,,,,,,,,,66,6.0,m,033_o_m_s_a.jpg,sad,a,2,2,647.681377400062,647.9729377200129,648.0089005000191,648.0228579200339,648.0227662000107,648.0643379200483,648.0644589000149,648.9392788200639,d,0,648.0644589000149,648.9392788200639,648.9395038000075,650.0645027200226,0.8631068000104278,863.1068000104278,,,EMOCONPILOT005_120HZ,2021_Feb_25_1138,EmoCon_Pilot_120Hz,2020.2.4,119.99299241175999,
,,,,1,0,1,0,67,0,67,0,,,,,,,,,,,,,,,,,,,,,,,,,,,,,,,,,,,,,,,,,,,,,,,67,6.0,m,033_o_m_h_a.jpg,happy,d,2,2,650.0646631000564,650.3645256200107,650.3736493000761,650.3853830200387,650.383916700026,650.4229484200478,650.423027300043,651.2810083200457,s,0,650.423027300043,651.2810083200457,651.2825711000478,652.5231589199975,0.8488132000202313,848.8132000202313,,,EMOCONPILOT005_120HZ,2021_Feb_25_1138,EmoCon_Pilot_120Hz,2020.2.4,119.99299241175999,
,,,,1,0,1,0,68,0,68,0,,,,,,,,,,,,,,,,,,,,,,,,,,,,,,,,,,,,,,,,,,,,,,,68,2.0,m,008_y_m_s_a.jpg,sad,a,17,2,652.5253264000639,652.8229551200056,653.4529154000338,653.5897293200251,653.5895622000098,653.6313810200663,653.6315576999914,654.089308320079,a,1,653.6315576999914,654.089308320079,654.0894196000881,655.472562220064,0.4482193000148982,448.2193000148982,,,EMOCONPILOT005_120HZ,2021_Feb_25_1138,EmoCon_Pilot_120Hz,2020.2.4,119.99299241175999,
,,,,1,0,1,0,69,0,69,0,,,,,,,,,,,,,,,,,,,,,,,,,,,,,,,,,,,,,,,,,,,,,,,69,1.0,m,004_o_m_n_a.jpg,neutral,s,2,2,655.4725571000017,655.7728296200512,655.9052677000873,655.916543420055,655.9145261000376,655.9561602200847,655.9562701000832,657.1062254200224,d,0,655.9562701000832,657.1062254200224,657.1070770000806,659.0064508200157,1.1394503000192344,1139.4503000192344,,,EMOCONPILOT005_120HZ,2021_Feb_25_1138,EmoCon_Pilot_120Hz,2020.2.4,119.99299241175999,
,,,,1,0,1,0,70,0,70,0,,,,,,,,,,,,,,,,,,,,,,,,,,,,,,,,,,,,,,,,,,,,,,,70,2.0,m,008_y_m_s_a.jpg,sad,a,2,2,659.0148123000981,659.3062981200637,659.4671804000391,659.4811478200136,659.4811903000809,659.5228146200534,659.5229383000406,660.2643658200977,s,0,659.5229383000406,660.2643658200977,660.2645630000625,661.9231037200661,0.7330447999993339,733.0447999993339,,,EMOCONPILOT005_120HZ,2021_Feb_25_1138,EmoCon_Pilot_120Hz,2020.2.4,119.99299241175999,
,,,,1,0,1,0,71,0,71,0,,,,,,,,,,,,,,,,,,,,,,,,,,,,,,,,,,,,,,,,,,,,,,,71,11.0,f,030_o_f_n_a.jpg,neutral,s,17,2,661.9234717000509,662.2230171200354,662.3611156000989,662.497972620069,662.4979658999946,662.5395273200702,662.5401834000368,663.1646606200375,s,1,662.5401834000368,663.1646606200375,663.1730119000422,664.6395630200859,0.6116805999772623,611.6805999772623,,,EMOCONPILOT005_120HZ,2021_Feb_25_1138,EmoCon_Pilot_120Hz,2020.2.4,119.99299241175999,
,,,,1,0,1,0,72,0,72,0,,,,,,,,,,,,,,,,,,,,,,,,,,,,,,,,,,,,,,,,,,,,,,,72,11.0,f,030_o_f_n_a.jpg,neutral,s,2,2,664.639602900017,664.9392263200134,665.067805300001,665.0811175201088,665.081199200009,665.1228232200956,665.1229309000773,665.7561911200173,s,1,665.1229309000773,665.7561911200173,665.7571603000397,666.8481948201079,0.6207742999540642,620.7742999540642,,,EMOCONPILOT005_120HZ,2021_Feb_25_1138,EmoCon_Pilot_120Hz,2020.2.4,119.99299241175999,
,,,,1,0,1,0,73,0,73,0,,,,,,,,,,,,,,,,,,,,,,,,,,,,,,,,,,,,,,,,,,,,,,,73,2.0,m,008_y_m_s_a.jpg,sad,a,2,2,666.8500457000919,667.1478158200625,667.3109885000158,667.3227208200842,667.322841300047,667.3644727200735,667.3644129000604,667.8146079200087,s,0,667.3644129000604,667.8146079200087,667.8164348000428,669.2481128200889,0.43552549998275936,435.52549998275936,,,EMOCONPILOT005_120HZ,2021_Feb_25_1138,EmoCon_Pilot_120Hz,2020.2.4,119.99299241175999,
,,,,1,0,1,0,74,0,74,0,,,,,,,,,,,,,,,,,,,,,,,,,,,,,,,,,,,,,,,,,,,,,,,74,11.0,f,030_o_f_n_a.jpg,neutral,s,2,2,669.2493706000969,669.5477475200314,669.675810100045,669.6894627200672,669.6895163001027,669.7310987201054,669.7312092999928,670.8144073199946,s,1,669.7312092999928,670.8144073199946,670.8154896000633,672.7230088200886,1.0686956000281498,1068.6956000281498,,,EMOCONPILOT005_120HZ,2021_Feb_25_1138,EmoCon_Pilot_120Hz,2020.2.4,119.99299241175999,
,,,,1,0,1,0,75,0,75,0,,,,,,,,,,,,,,,,,,,,,,,,,,,,,,,,,,,,,,,,,,,,,,,75,1.0,m,004_o_m_s_a.jpg,sad,a,2,2,672.7228340000147,673.0228590200422,673.0606946999906,673.0729011200601,673.0728172000963,673.1144624199951,673.1146072000265,674.6144363200292,None,0,673.1146072000265,674.6144363200292,674.6143576999893,675.6812677200651,,,,,EMOCONPILOT005_120HZ,2021_Feb_25_1138,EmoCon_Pilot_120Hz,2020.2.4,119.99299241175999,
,,,,1,0,1,0,76,0,76,0,,,,,,,,,,,,,,,,,,,,,,,,,,,,,,,,,,,,,,,,,,,,,,,76,3.0,m,013_y_m_n_a.jpg,neutral,s,17,2,675.681278700009,675.981230620062,676.6010550000938,676.7395348200807,676.7395646000514,676.7813647200819,676.7897478000959,677.3560296200449,s,1,676.7897478000959,677.3560296200449,677.3572733000619,678.5647172200261,0.5540257999673486,554.0257999673486,,,EMOCONPILOT005_120HZ,2021_Feb_25_1138,EmoCon_Pilot_120Hz,2020.2.4,119.99299241175999,
,,,,1,0,1,0,77,0,77,0,,,,,,,,,,,,,,,,,,,,,,,,,,,,,,,,,,,,,,,,,,,,,,,77,7.0,f,012_o_f_s_a.jpg,sad,a,17,2,678.5731627000496,678.8648257200839,678.911861200002,679.0479107199935,679.0481959000463,679.0897296200274,679.0916659000795,679.6975903200218,a,1,679.0916659000795,679.6975903200218,679.7079189000651,681.1063578200992,0.5963192000053823,596.3192000053823,,,EMOCONPILOT005_120HZ,2021_Feb_25_1138,EmoCon_Pilot_120Hz,2020.2.4,119.99299241175999,
,,,,1,0,1,0,78,0,78,0,,,,,,,,,,,,,,,,,,,,,,,,,,,,,,,,,,,,,,,,,,,,,,,78,12.0,f,040_y_f_n_a.jpg,neutral,s,17,2,681.1066001000581,681.4063805200858,682.0206813000841,682.1564420200884,682.1562798999948,682.197997820098,682.199468200095,682.5726934201084,s,1,682.199468200095,682.5726934201084,682.5744617000455,684.3729452200932,0.36024089995771646,360.24089995771646,,,EMOCONPILOT005_120HZ,2021_Feb_25_1138,EmoCon_Pilot_120Hz,2020.2.4,119.99299241175999,
,,,,1,0,1,0,79,0,79,0,,,,,,,,,,,,,,,,,,,,,,,,,,,,,,,,,,,,,,,,,,,,,,,79,6.0,m,033_o_m_h_a.jpg,happy,d,2,2,684.3731766000856,684.672942019999,684.7115601000842,684.7246009201044,684.7228272000793,684.7642684200546,684.7643876000075,685.9643796200398,d,1,684.7643876000075,685.9643796200398,685.9729610000504,687.2227396200178,1.187922800076194,1187.922800076194,,,EMOCONPILOT005_120HZ,2021_Feb_25_1138,EmoCon_Pilot_120Hz,2020.2.4,119.99299241175999,
,,,,1,0,1,0,80,0,80,0,,,,,,,,,,,,,,,,,,,,,,,,,,,,,,,,,,,,,,,,,,,,,,,80,2.0,m,008_y_m_n_a.jpg,neutral,s,17,2,687.2227151000407,687.5227549200645,688.1513612000272,688.289590420085,688.2897187999915,688.3312887200154,688.3324797000969,688.9559203200042,s,1,688.3324797000969,688.9559203200042,688.9574087000219,690.3142793200677,0.6111581999575719,611.1581999575719,,,EMOCONPILOT005_120HZ,2021_Feb_25_1138,EmoCon_Pilot_120Hz,2020.2.4,119.99299241175999,
,,,,1,0,1,0,81,0,81,0,,,,,,,,,,,,,,,,,,,,,,,,,,,,,,,,,,,,,,,,,,,,,,,81,12.0,f,040_y_f_h_a.jpg,happy,d,2,2,690.3143448000774,690.6145909200422,690.6607964000432,690.6735718200216,690.6726504000835,690.714416920091,690.7145376000553,692.2145288200118,None,0,690.7145376000553,692.2145288200118,692.214335000026,693.4642655201023,,,,,EMOCONPILOT005_120HZ,2021_Feb_25_1138,EmoCon_Pilot_120Hz,2020.2.4,119.99299241175999,
,,,,1,0,1,0,82,0,82,0,,,,,,,,,,,,,,,,,,,,,,,,,,,,,,,,,,,,,,,,,,,,,,,82,9.0,f,021_o_f_h_a.jpg,happy,d,2,2,693.4643526000436,693.7645962201059,694.36999929999,694.3825113200583,694.3811672000447,694.4227735199966,694.4227163000032,695.5893450200092,a,0,694.4227163000032,695.5893450200092,695.590613800101,696.9312766200164,1.1530349000822753,1153.0349000822753,,,EMOCONPILOT005_120HZ,2021_Feb_25_1138,EmoCon_Pilot_120Hz,2020.2.4,119.99299241175999,
,,,,1,0,1,0,83,0,83,0,,,,,,,,,,,,,,,,,,,,,,,,,,,,,,,,,,,,,,,,,,,,,,,83,6.0,m,033_o_m_h_a.jpg,happy,d,17,2,696.9308632999891,697.2313441199949,697.2785836000694,697.4147251200629,697.4147118000546,697.4562247199938,697.4645803000312,697.9559766200837,d,1,697.4645803000312,697.9559766200837,697.9571253000759,699.5729799200781,0.4794880000408739,479.4880000408739,,,EMOCONPILOT005_120HZ,2021_Feb_25_1138,EmoCon_Pilot_120Hz,2020.2.4,119.99299241175999,
,,,,1,0,1,0,84,0,84,0,,,,,,,,,,,,,,,,,,,,,,,,,,,,,,,,,,,,,,,,,,,,,,,84,2.0,m,008_y_m_n_a.jpg,neutral,s,17,2,699.5731977000833,699.8729607200949,700.4926187000237,700.6313936200459,700.6311018000124,700.673056520056,700.6738688000478,701.1642231200822,s,1,700.6738688000478,701.1642231200822,701.1658174000913,702.3231706200168,0.4778215999249369,477.8215999249369,,,EMOCONPILOT005_120HZ,2021_Feb_25_1138,EmoCon_Pilot_120Hz,2020.2.4,119.99299241175999,
,,,,1,0,1,0,85,0,85,0,,,,,,,,,,,,,,,,,,,,,,,,,,,,,,,,,,,,,,,,,,,,,,,85,10.0,f,028_y_f_n_a.jpg,neutral,s,2,2,702.3253428000025,702.623022820102,702.7619217000902,702.7741472200723,702.7727946999948,702.8144180200761,702.8144453000277,703.8644200200215,s,1,702.8144453000277,703.8644200200215,703.8729680000106,705.6311882199952,1.0416064000455663,1041.6064000455663,,,EMOCONPILOT005_120HZ,2021_Feb_25_1138,EmoCon_Pilot_120Hz,2020.2.4,119.99299241175999,
,,,,1,0,1,0,86,0,86,0,,,,,,,,,,,,,,,,,,,,,,,,,,,,,,,,,,,,,,,,,,,,,,,86,6.0,m,033_o_m_h_a.jpg,happy,d,17,2,705.6315334000392,705.9311791200889,705.9673301000148,706.1064876200398,706.1064871000126,706.1481668200577,706.1495061999885,706.5059707200853,d,1,706.1495061999885,706.5059707200853,706.5075990000041,707.6229518200271,0.3462764999130741,346.2764999130741,,,EMOCONPILOT005_120HZ,2021_Feb_25_1138,EmoCon_Pilot_120Hz,2020.2.4,119.99299241175999,
,,,,1,0,1,0,87,0,87,0,,,,,,,,,,,,,,,,,,,,,,,,,,,,,,,,,,,,,,,,,,,,,,,87,5.0,m,027_o_m_s_a.jpg,sad,a,2,2,707.6228383000707,707.9229662200669,707.9530910000904,707.9653470200719,707.9644707000116,708.0062189199962,708.0061971000396,709.0228572200285,d,0,708.0061971000396,709.0228572200285,709.0312198000029,710.5479320200393,1.0016824000049382,1001.6824000049382,,,EMOCONPILOT005_120HZ,2021_Feb_25_1138,EmoCon_Pilot_120Hz,2020.2.4,119.99299241175999,
,,,,1,0,1,0,88,0,88,0,,,,,,,,,,,,,,,,,,,,,,,,,,,,,,,,,,,,,,,,,,,,,,,88,7.0,f,012_o_f_s_a.jpg,sad,a,2,2,710.5494002000196,710.8481085200328,710.8863538000733,710.8993620200781,710.8977854000404,710.9392665200867,710.9395309000975,711.8229116200237,d,0,710.9395309000975,711.8229116200237,711.8235092000104,713.1059599200962,0.8683264999417588,868.3264999417588,,,EMOCONPILOT005_120HZ,2021_Feb_25_1138,EmoCon_Pilot_120Hz,2020.2.4,119.99299241175999,
,,,,1,0,1,0,89,0,89,0,,,,,,,,,,,,,,,,,,,,,,,,,,,,,,,,,,,,,,,,,,,,,,,89,2.0,m,008_y_m_h_a.jpg,happy,d,2,2,713.1061775000999,713.4063227199949,713.4331718999892,713.4478385200491,713.4478085000301,713.4894251200603,713.4893310000189,714.0228394200094,s,0,713.4893310000189,714.0228394200094,714.023175700102,715.6641189201036,0.5263091999804601,526.3091999804601,,,EMOCONPILOT005_120HZ,2021_Feb_25_1138,EmoCon_Pilot_120Hz,2020.2.4,119.99299241175999,
