trials_example.thisRepN,trials_example.thisTrialN,trials_example.thisN,trials_example.thisIndex,block.thisRepN,block.thisTrialN,block.thisN,block.thisIndex,trials_study.thisRepN,trials_study.thisTrialN,trials_study.thisN,trials_study.thisIndex,text_welcome.started,text_welcome.stopped,text_intro.started,text_intro.stopped,key_resp_intro.keys,key_resp_intro.rt,key_resp_intro.started,key_resp_intro.stopped,text_intro2.started,text_intro2.stopped,key_resp_intro2.keys,key_resp_intro2.rt,key_resp_intro2.started,key_resp_intro2.stopped,example trial,personPrimeExample,genderPrimeExample,primeExample,emotionPrimeExample,corrAnsPrimeExample,example mask time,fix300_example.started,fix300_example.stopped,image_primer_example.started,image_primer_example.stopped,scrambled.started,scrambled.stopped,text_response_example.started,text_response_example.stopped,key_resp_example.keys,key_resp_example.corr,key_resp_example.rt,key_resp_example.rt in ms,key_resp_example.started,key_resp_example.stopped,Jitter_example.started,Jitter_example.stopped,text_start.started,text_start.stopped,text_pause.started,text_pause.stopped,key_resp_pause.keys,key_resp_pause.rt,key_resp_pause.rt in ms,key_resp_pause.started,key_resp_pause.stopped,study trial,personPrimeStudy,genderPrimeStudy,primeStudy,emotionPrimeStudy,corrAnsPrimeStudy,study mask time,Block,fix300_study.started,fix300_study.stopped,image_primer_study.started,image_primer_study.stopped,scrambled_study.started,scrambled_study.stopped,text_response_study.started,text_response_study.stopped,key_resp_study.keys,key_resp_study.corr,key_resp_study.rt,key_resp_study.rt in ms,key_resp_study.started,key_resp_study.stopped,Jitter_study.started,Jitter_study.stopped,participant,date,expName,psychopyVersion,frameRate,
,,,,,,,,,,,,15.300293499999952,18.29345526999998,18.29854690000002,23.41140637000001,a,5.100827000000095,18.29854690000002,23.41140637000001,,,,,,,,,,,,,,,,,,,,,,,,,,,,,,,,,,,,,,,,,,,,,,,,,,,,,,,,,,,,,,,EMOCONPILOT024,2021_Feb_18_1020,EmoCon_Pilot_120Hz,2020.2.4,120.11146343806222,
,,,,,,,,,,,,,,,,,,,,23.418775600000004,25.609870070000056,a,2.1806761999999935,23.418775600000004,25.609870070000056,,,,,,,,,,,,,,,,,,,,,,,,,,,,,,,,,,,,,,,,,,,,,,,,,,,,,,,,,EMOCONPILOT024,2021_Feb_18_1020,EmoCon_Pilot_120Hz,2020.2.4,120.11146343806222,
0,0,0,0,,,,,,,,,,,,,,,,,,,,,,,0,3.0,f,1113_y_f_s_a.jpg,sad,a,3,25.618938800000024,25.91025757,26.559403400000065,26.58671966999998,26.606178200000045,26.64359496999998,26.648781600000007,28.00872197000001,a,1,1.3504146999999875,1350.4146999999875,26.648781600000007,28.00872197000001,28.010566899999958,29.226891170000044,,,,,,,,,,,,,,,,,,,,,,,,,,,,,,,,,,EMOCONPILOT024,2021_Feb_18_1020,EmoCon_Pilot_120Hz,2020.2.4,120.11146343806222,
1,0,1,0,,,,,,,,,,,,,,,,,,,,,,,1,1.0,m,1111_m_m_s_a.jpg,sad,a,3,29.228719599999977,29.52695717000006,29.75724790000004,29.78296487,29.783809700000006,29.819926369999962,29.81994789999999,30.605108169999994,a,1,0.7713208999999779,771.3208999999779,29.81994789999999,30.605108169999994,30.60804250000001,31.860410770000044,,,,,,,,,,,,,,,,,,,,,,,,,,,,,,,,,,EMOCONPILOT024,2021_Feb_18_1020,EmoCon_Pilot_120Hz,2020.2.4,120.11146343806222,
2,0,2,0,,,,,,,,,,,,,,,,,,,,,,,2,3.0,f,1113_y_f_n_a.jpg,neutral,s,3,31.863043800000014,32.160306969999965,32.38541989999999,32.411030470000014,32.41107729999999,32.44787437000002,32.44776690000003,33.18420166999999,s,1,0.7275303999999778,727.5303999999778,32.44776690000003,33.18420166999999,33.18472350000002,34.77708237000002,,,,,,,,,,,,,,,,,,,,,,,,,,,,,,,,,,EMOCONPILOT024,2021_Feb_18_1020,EmoCon_Pilot_120Hz,2020.2.4,120.11146343806222,
3,0,3,0,,,,,,,,,,,,,,,,,,,,,,,3,2.0,f,1112_m_f_h_a.jpg,happy,d,17,34.77916860000005,35.07713457,35.27832539999997,35.43966337000006,35.44235519999995,35.482824670000014,35.48596090000001,36.19616177,d,1,0.6971657999999934,697.1657999999934,35.48596090000001,36.19616177,36.19906190000006,37.81038307000006,,,,,,,,,,,,,,,,,,,,,,,,,,,,,,,,,,EMOCONPILOT024,2021_Feb_18_1020,EmoCon_Pilot_120Hz,2020.2.4,120.11146343806222,
4,0,4,0,,,,,,,,,,,,,,,,,,,,,,,4,2.0,f,1112_m_f_n_a.jpg,neutral,s,17,37.81184110000004,38.11037707000003,38.33780539999998,38.50900157000001,38.51176650000002,38.55266867,38.555584899999985,39.317759470000055,s,1,0.7478449000000182,747.8449000000182,38.555584899999985,39.317759470000055,39.32123009999998,40.41882097000007,,,,,,,,,,,,,,,,,,,,,,,,,,,,,,,,,,EMOCONPILOT024,2021_Feb_18_1020,EmoCon_Pilot_120Hz,2020.2.4,120.11146343806222,
,,,,0,0,0,0,0,0,0,0,,,,,,,,,,,,,,,,,,,,,,,,,,,,,,,,,,,,,,40.46558349999998,43.460399069999994,43.461249599999974,45.071061869999994,a,1.6018952000000581,1601.8952000000581,43.461249599999974,45.071061869999994,0,8.0,f,019_m_f_s_a.jpg,sad,a,3,1,45.076398100000006,45.36896247000004,46.01324009999996,46.04171897000003,46.041693099999975,46.078241270000035,46.07847949999996,47.10309287000007,a,1,1.016804900000011,1016.804900000011,46.07847949999996,47.10309287000007,47.11362789999998,48.760604870000066,EMOCONPILOT024,2021_Feb_18_1020,EmoCon_Pilot_120Hz,2020.2.4,120.11146343806222,
,,,,0,0,0,0,1,0,1,0,,,,,,,,,,,,,,,,,,,,,,,,,,,,,,,,,,,,,,,,,,,,,,,1,6.0,m,033_o_m_n_a.jpg,neutral,s,17,1,48.76579760000004,49.06057297000007,49.25081499999999,49.41990126999997,49.424721100000056,49.46591807000004,49.47111510000002,50.02567386999999,s,1,0.544114000000036,544.114000000036,49.47111510000002,50.02567386999999,50.02820320000001,51.32703427000001,EMOCONPILOT024,2021_Feb_18_1020,EmoCon_Pilot_120Hz,2020.2.4,120.11146343806222,
,,,,0,0,0,0,2,0,2,0,,,,,,,,,,,,,,,,,,,,,,,,,,,,,,,,,,,,,,,,,,,,,,,2,2.0,m,008_y_m_s_a.jpg,sad,a,3,1,51.327299100000005,51.62736897000002,51.857410200000004,51.88309736999997,51.883103300000016,51.920247270000004,51.9203215,53.06540387000007,a,1,1.1349629999999706,1134.9629999999706,51.9203215,53.06540387000007,53.0732438,54.71076827000002,EMOCONPILOT024,2021_Feb_18_1020,EmoCon_Pilot_120Hz,2020.2.4,120.11146343806222,
,,,,0,0,0,0,3,0,3,0,,,,,,,,,,,,,,,,,,,,,,,,,,,,,,,,,,,,,,,,,,,,,,,3,11.0,f,030_o_f_h_a.jpg,happy,d,3,1,54.716403900000046,55.01083337,55.22566310000002,55.25238877000004,55.25292120000006,55.288131969999995,55.28760280000006,56.01972026999999,d,1,0.7197949000000108,719.7949000000108,55.28760280000006,56.01972026999999,56.02732100000003,57.22743217000004,EMOCONPILOT024,2021_Feb_18_1020,EmoCon_Pilot_120Hz,2020.2.4,120.11146343806222,
,,,,0,0,0,0,4,0,4,0,,,,,,,,,,,,,,,,,,,,,,,,,,,,,,,,,,,,,,,,,,,,,,,4,11.0,f,030_o_f_s_a.jpg,sad,a,17,1,57.23058149999997,57.527495069999986,57.73248799999999,57.89190746999998,57.896838600000024,57.93734517000007,57.94227769999998,58.60024956999996,s,0,0.6488738000000467,648.8738000000467,57.94227769999998,58.60024956999996,58.60351860000003,59.65252667000004,EMOCONPILOT024,2021_Feb_18_1020,EmoCon_Pilot_120Hz,2020.2.4,120.11146343806222,
,,,,0,0,0,0,5,0,5,0,,,,,,,,,,,,,,,,,,,,,,,,,,,,,,,,,,,,,,,,,,,,,,,5,11.0,f,030_o_f_s_a.jpg,sad,a,17,1,59.65846680000004,59.952552569999966,60.15946599999995,60.321861969999986,60.326409600000034,60.367521669999974,60.37255570000002,61.06636536999997,a,1,0.6829277000000502,682.9277000000502,60.37255570000002,61.06636536999997,61.080606099999954,62.902526569999964,EMOCONPILOT024,2021_Feb_18_1020,EmoCon_Pilot_120Hz,2020.2.4,120.11146343806222,
,,,,0,0,0,0,6,0,6,0,,,,,,,,,,,,,,,,,,,,,,,,,,,,,,,,,,,,,,,,,,,,,,,6,5.0,m,027_o_m_n_a.jpg,neutral,s,3,1,62.90669390000005,63.202542770000036,63.4053725,63.43348587000003,63.43793089999997,63.478368870000054,63.483346900000015,64.39174447000005,s,1,0.8999714000000267,899.9714000000267,63.483346900000015,64.39174447000005,64.39815510000005,66.11935836999999,EMOCONPILOT024,2021_Feb_18_1020,EmoCon_Pilot_120Hz,2020.2.4,120.11146343806222,
,,,,0,0,0,0,7,0,7,0,,,,,,,,,,,,,,,,,,,,,,,,,,,,,,,,,,,,,,,,,,,,,,,7,8.0,f,019_m_f_n_a.jpg,neutral,s,3,1,66.12352680000004,66.41927837000003,66.65663319999999,66.68249817000003,66.68318950000003,66.72049536999998,66.72045400000002,67.32815506999998,s,1,0.5988245999999435,598.8245999999435,66.72045400000002,67.32815506999998,67.33726179999996,68.87772757000005,EMOCONPILOT024,2021_Feb_18_1020,EmoCon_Pilot_120Hz,2020.2.4,120.11146343806222,
,,,,0,0,0,0,8,0,8,0,,,,,,,,,,,,,,,,,,,,,,,,,,,,,,,,,,,,,,,,,,,,,,,8,5.0,m,027_o_m_h_a.jpg,happy,d,17,1,68.88293940000005,69.17779357000006,69.39516790000005,69.55825647000006,69.56278340000006,69.60276217,69.60448340000005,70.09744226999999,d,1,0.4828631000000314,482.8631000000314,69.60448340000005,70.09744226999999,70.10923979999995,71.27786217000005,EMOCONPILOT024,2021_Feb_18_1020,EmoCon_Pilot_120Hz,2020.2.4,120.11146343806222,
,,,,0,0,0,0,9,0,9,0,,,,,,,,,,,,,,,,,,,,,,,,,,,,,,,,,,,,,,,,,,,,,,,9,8.0,f,019_m_f_n_a.jpg,neutral,s,17,1,71.28333150000003,71.57773987000007,71.81944080000005,71.97742317000007,71.98235829999999,72.02339027000005,72.02785259999996,72.43439917,s,1,0.39549329999999827,395.49329999999827,72.02785259999996,72.43439917,72.4462757,73.96119627000007,EMOCONPILOT024,2021_Feb_18_1020,EmoCon_Pilot_120Hz,2020.2.4,120.11146343806222,
,,,,0,0,0,0,10,0,10,0,,,,,,,,,,,,,,,,,,,,,,,,,,,,,,,,,,,,,,,,,,,,,,,10,11.0,f,030_o_f_h_a.jpg,happy,d,3,1,73.96738479999999,74.26118207000002,74.46683719999999,74.49252517000002,74.49572190000004,74.53653907,74.54131489999997,75.40571886999999,d,1,0.8500427999999829,850.0427999999829,74.54131489999997,75.40571886999999,75.41368380000006,76.53624217000004,EMOCONPILOT024,2021_Feb_18_1020,EmoCon_Pilot_120Hz,2020.2.4,120.11146343806222,
,,,,0,0,0,0,11,0,11,0,,,,,,,,,,,,,,,,,,,,,,,,,,,,,,,,,,,,,,,,,,,,,,,11,3.0,m,013_y_m_s_a.jpg,sad,a,3,1,76.54187320000005,76.83617636999998,76.96831229999998,76.99123927000005,76.99137740000003,77.02889237,77.0290827,77.79857897,s,0,0.7621199000000161,762.1199000000161,77.0290827,77.79857897,77.80621729999996,79.51129836999996,EMOCONPILOT024,2021_Feb_18_1020,EmoCon_Pilot_120Hz,2020.2.4,120.11146343806222,
,,,,0,0,0,0,12,0,12,0,,,,,,,,,,,,,,,,,,,,,,,,,,,,,,,,,,,,,,,,,,,,,,,12,12.0,f,040_y_f_n_a.jpg,neutral,s,17,1,79.51589630000001,79.81124296999997,80.05334270000003,80.20667036999998,80.21178670000006,80.25247266999997,80.25732440000002,80.77487267000004,s,1,0.5097544000000198,509.7544000000198,80.25732440000002,80.77487267000004,80.78135950000001,81.79468356999996,EMOCONPILOT024,2021_Feb_18_1020,EmoCon_Pilot_120Hz,2020.2.4,120.11146343806222,
,,,,0,0,0,0,13,0,13,0,,,,,,,,,,,,,,,,,,,,,,,,,,,,,,,,,,,,,,,,,,,,,,,13,12.0,f,040_y_f_h_a.jpg,happy,d,3,1,81.79961709999998,82.09460017000004,82.12480110000001,82.14743816999999,82.14902789999996,82.18733597000005,82.18745839999997,83.10465756999997,d,1,0.9076982999999927,907.6982999999927,82.18745839999997,83.10465756999997,83.10780199999999,85.06135457000005,EMOCONPILOT024,2021_Feb_18_1020,EmoCon_Pilot_120Hz,2020.2.4,120.11146343806222,
,,,,0,0,0,0,14,0,14,0,,,,,,,,,,,,,,,,,,,,,,,,,,,,,,,,,,,,,,,,,,,,,,,14,7.0,f,012_o_f_h_a.jpg,happy,d,17,1,85.06742299999996,85.36137216999998,85.38804589999995,85.52139767000006,85.52618730000006,85.56322026999999,85.56269210000005,86.13473907000002,d,1,0.5645048999999744,564.5048999999744,85.56269210000005,86.13473907000002,86.14303510000002,87.81144876999997,EMOCONPILOT024,2021_Feb_18_1020,EmoCon_Pilot_120Hz,2020.2.4,120.11146343806222,
,,,,0,0,0,0,15,0,15,0,,,,,,,,,,,,,,,,,,,,,,,,,,,,,,,,,,,,,,,,,,,,,,,15,9.0,f,021_o_f_n_a.jpg,neutral,s,17,1,87.81573190000006,88.11152797,88.61073550000003,88.77105506999999,88.77583330000004,88.81674267000005,88.82193800000005,89.30194906999998,s,1,0.47331499999995685,473.31499999995685,88.82193800000005,89.30194906999998,89.30933819999996,90.41147517000002,EMOCONPILOT024,2021_Feb_18_1020,EmoCon_Pilot_120Hz,2020.2.4,120.11146343806222,
,,,,0,0,0,0,16,0,16,0,,,,,,,,,,,,,,,,,,,,,,,,,,,,,,,,,,,,,,,,,,,,,,,16,10.0,f,028_y_f_s_a.jpg,sad,a,3,1,90.41729320000002,90.71150777000003,90.73755990000006,90.76029647000007,90.7611392,90.79588667000007,90.79592209999998,91.68478417000006,a,1,0.8752693999999792,875.2693999999792,90.79592209999998,91.68478417000006,91.692906,93.41989387000001,EMOCONPILOT024,2021_Feb_18_1020,EmoCon_Pilot_120Hz,2020.2.4,120.11146343806222,
,,,,0,0,0,0,17,0,17,0,,,,,,,,,,,,,,,,,,,,,,,,,,,,,,,,,,,,,,,,,,,,,,,17,10.0,f,028_y_f_h_a.jpg,happy,d,17,1,93.4250965,93.71979856999997,93.74818519999997,93.87983446999999,93.88357870000004,93.92449277000003,93.9297656,94.53559397000004,d,1,0.5895457000000306,589.5457000000306,93.9297656,94.53559397000004,94.54517959999998,96.43664956999999,EMOCONPILOT024,2021_Feb_18_1020,EmoCon_Pilot_120Hz,2020.2.4,120.11146343806222,
,,,,0,0,0,0,18,0,18,0,,,,,,,,,,,,,,,,,,,,,,,,,,,,,,,,,,,,,,,,,,,,,,,18,9.0,f,021_o_f_h_a.jpg,happy,d,3,1,96.44224440000005,96.73655937000001,96.97534930000006,97.00148277000005,97.00629820000006,97.04730876999997,97.05243070000006,97.59823867,d,1,0.5387792000000218,538.7792000000218,97.05243070000006,97.59823867,97.60579919999998,99.06158327000003,EMOCONPILOT024,2021_Feb_18_1020,EmoCon_Pilot_120Hz,2020.2.4,120.11146343806222,
,,,,0,0,0,0,19,0,19,0,,,,,,,,,,,,,,,,,,,,,,,,,,,,,,,,,,,,,,,,,,,,,,,19,6.0,m,033_o_m_h_a.jpg,happy,d,3,1,99.06744019999996,99.36159807000001,99.38512190000006,99.40773967000007,99.4083372,99.44607086999997,99.4475612,100.08510756999999,d,1,0.6236652999999706,623.6652999999706,99.4475612,100.08510756999999,100.09265679999999,101.58662487000004,EMOCONPILOT024,2021_Feb_18_1020,EmoCon_Pilot_120Hz,2020.2.4,120.11146343806222,
,,,,0,0,0,0,20,0,20,0,,,,,,,,,,,,,,,,,,,,,,,,,,,,,,,,,,,,,,,,,,,,,,,20,1.0,m,004_o_m_h_a.jpg,happy,d,3,1,101.59256960000005,101.88663446999999,102.09848020000004,102.12548197000001,102.12862770000004,102.16550376999999,102.16863269999999,102.74532426999997,d,1,0.5665760000000546,566.5760000000546,102.16863269999999,102.74532426999997,102.75476400000002,103.86999406999996,EMOCONPILOT024,2021_Feb_18_1020,EmoCon_Pilot_120Hz,2020.2.4,120.11146343806222,
,,,,0,0,0,0,21,0,21,0,,,,,,,,,,,,,,,,,,,,,,,,,,,,,,,,,,,,,,,,,,,,,,,21,2.0,m,008_y_m_s_a.jpg,sad,a,3,1,103.87404820000006,104.17000237000002,104.40313800000001,104.42835417000003,104.4286538,104.46460157000001,104.46453389999999,105.28815987000007,a,1,0.8146293999999443,814.6293999999443,104.46453389999999,105.28815987000007,105.29474130000006,106.29508697000006,EMOCONPILOT024,2021_Feb_18_1020,EmoCon_Pilot_120Hz,2020.2.4,120.11146343806222,
,,,,0,0,0,0,22,0,22,0,,,,,,,,,,,,,,,,,,,,,,,,,,,,,,,,,,,,,,,,,,,,,,,22,4.0,m,016_y_m_s_a.jpg,sad,a,17,1,106.2990714,106.59510747000002,106.62596229999997,106.76341787000001,106.7652392,106.80461277000006,106.80626849999999,107.36487207000005,a,1,0.5449433999999655,544.9433999999655,106.80626849999999,107.36487207000005,107.37528410000004,108.39503647000004,EMOCONPILOT024,2021_Feb_18_1020,EmoCon_Pilot_120Hz,2020.2.4,120.11146343806222,
,,,,0,0,0,0,23,0,23,0,,,,,,,,,,,,,,,,,,,,,,,,,,,,,,,,,,,,,,,,,,,,,,,23,8.0,f,019_m_f_h_a.jpg,happy,d,17,1,108.39790249999999,108.69510517000003,108.71398629999999,108.84671757000001,108.85027060000004,108.88923137000006,108.89395320000006,109.29792777,d,1,0.3932289000000537,393.2289000000537,108.89395320000006,109.29792777,109.3050058,110.89506357000005,EMOCONPILOT024,2021_Feb_18_1020,EmoCon_Pilot_120Hz,2020.2.4,120.11146343806222,
,,,,0,0,0,0,24,0,24,0,,,,,,,,,,,,,,,,,,,,,,,,,,,,,,,,,,,,,,,,,,,,,,,24,8.0,f,019_m_f_h_a.jpg,happy,d,3,1,110.89810480000006,111.19516697000006,111.21542880000004,111.23748787,111.2381848,111.27349807000007,111.27451710000003,111.77960086999997,d,1,0.4927954999999429,492.7954999999429,111.27451710000003,111.77960086999997,111.78595819999998,112.98688947000005,EMOCONPILOT024,2021_Feb_18_1020,EmoCon_Pilot_120Hz,2020.2.4,120.11146343806222,
,,,,0,0,0,0,25,0,25,0,,,,,,,,,,,,,,,,,,,,,,,,,,,,,,,,,,,,,,,,,,,,,,,25,4.0,m,016_y_m_n_a.jpg,neutral,s,17,1,112.99009350000006,113.28688856999997,113.54608689999998,113.70552286999998,113.71027849999996,113.75099147000003,113.75620419999996,114.29575256999999,s,1,0.5310652000000573,531.0652000000573,113.75620419999996,114.29575256999999,114.307186,115.35364677000007,EMOCONPILOT024,2021_Feb_18_1020,EmoCon_Pilot_120Hz,2020.2.4,120.11146343806222,
,,,,0,0,0,0,26,0,26,0,,,,,,,,,,,,,,,,,,,,,,,,,,,,,,,,,,,,,,,,,,,,,,,26,4.0,m,016_y_m_h_a.jpg,happy,d,3,1,115.35899800000004,115.65359237000007,115.67398409999998,115.69685097000001,115.69730830000003,115.73436506999997,115.73627740000006,116.36573477000002,d,1,0.622980699999971,622.980699999971,115.73627740000006,116.36573477000002,116.37751839999999,117.77039607000006,EMOCONPILOT024,2021_Feb_18_1020,EmoCon_Pilot_120Hz,2020.2.4,120.11146343806222,
,,,,0,0,0,0,27,0,27,0,,,,,,,,,,,,,,,,,,,,,,,,,,,,,,,,,,,,,,,,,,,,,,,27,8.0,f,019_m_f_h_a.jpg,happy,d,3,1,117.77639420000003,118.07043777000001,118.09300370000005,118.11499957000001,118.11526430000004,118.15491056999997,118.15511400000003,118.67906567,d,1,0.5080682999999908,508.0682999999908,118.15511400000003,118.67906567,118.68753330000004,119.75364557,EMOCONPILOT024,2021_Feb_18_1020,EmoCon_Pilot_120Hz,2020.2.4,120.11146343806222,
,,,,0,0,0,0,28,0,28,0,,,,,,,,,,,,,,,,,,,,,,,,,,,,,,,,,,,,,,,,,,,,,,,28,8.0,f,019_m_f_s_a.jpg,sad,a,17,1,119.75771710000004,120.05366317000005,120.30706340000006,120.46929756999998,120.47299459999999,120.51372587000003,120.51875389999998,121.35178177,a,1,0.8245136000000457,824.5136000000457,120.51875389999998,121.35178177,121.36624210000002,122.45380137000006,EMOCONPILOT024,2021_Feb_18_1020,EmoCon_Pilot_120Hz,2020.2.4,120.11146343806222,
,,,,0,0,0,0,29,0,29,0,,,,,,,,,,,,,,,,,,,,,,,,,,,,,,,,,,,,,,,,,,,,,,,29,10.0,f,028_y_f_n_a.jpg,neutral,s,3,1,122.45963159999997,122.75379156999998,122.96491400000002,122.99087646999999,122.99130090000006,123.02655427000002,123.02686240000003,123.76536167000006,s,1,0.7243641000000025,724.3641000000025,123.02686240000003,123.76536167000006,123.77158499999996,124.87049747000003,EMOCONPILOT024,2021_Feb_18_1020,EmoCon_Pilot_120Hz,2020.2.4,120.11146343806222,
,,,,0,0,0,0,30,0,30,0,,,,,,,,,,,,,,,,,,,,,,,,,,,,,,,,,,,,,,,,,,,,,,,30,12.0,f,040_y_f_n_a.jpg,neutral,s,3,1,124.87482799999998,125.17041617000007,125.3968099,125.42278147000002,125.42356810000001,125.45989897000004,125.46146339999996,126.11243377000005,s,1,0.6417694000000438,641.7694000000438,125.46146339999996,126.11243377000005,126.12195940000004,127.42051317000005,EMOCONPILOT024,2021_Feb_18_1020,EmoCon_Pilot_120Hz,2020.2.4,120.11146343806222,
,,,,0,0,0,0,31,0,31,0,,,,,,,,,,,,,,,,,,,,,,,,,,,,,,,,,,,,,,,,,,,,,,,31,5.0,m,027_o_m_n_a.jpg,neutral,s,3,1,127.42493060000004,127.72041947000002,127.9336793,127.95923527000002,127.95962099999997,127.99668646999999,127.99788360000002,128.52250087000004,s,1,0.5132509999999684,513.2509999999684,127.99788360000002,128.52250087000004,128.53009729999997,130.22049957000002,EMOCONPILOT024,2021_Feb_18_1020,EmoCon_Pilot_120Hz,2020.2.4,120.11146343806222,
,,,,0,0,0,0,32,0,32,0,,,,,,,,,,,,,,,,,,,,,,,,,,,,,,,,,,,,,,,,,,,,,,,32,8.0,f,019_m_f_n_a.jpg,neutral,s,3,1,130.22097810000002,130.52043317000005,130.76698510000006,130.79419577,130.7977393,130.83464866999998,130.83752779999998,131.36620217000007,s,1,0.5135601000000634,513.5601000000634,130.83752779999998,131.36620217000007,131.3745722,133.35392157,EMOCONPILOT024,2021_Feb_18_1020,EmoCon_Pilot_120Hz,2020.2.4,120.11146343806222,
,,,,0,0,0,0,33,0,33,0,,,,,,,,,,,,,,,,,,,,,,,,,,,,,,,,,,,,,,,,,,,,,,,33,4.0,m,016_y_m_n_a.jpg,neutral,s,3,1,133.3578847,133.65390907000005,133.89312659999996,133.91851307000002,133.91887770000005,133.95513376999997,133.95503940000003,134.65270386999998,s,1,0.6841097999999874,684.1097999999874,133.95503940000003,134.65270386999998,134.66141430000005,135.65405437000004,EMOCONPILOT024,2021_Feb_18_1020,EmoCon_Pilot_120Hz,2020.2.4,120.11146343806222,
,,,,0,0,0,0,34,0,34,0,,,,,,,,,,,,,,,,,,,,,,,,,,,,,,,,,,,,,,,,,,,,,,,34,11.0,f,030_o_f_n_a.jpg,neutral,s,3,1,135.66006730000004,135.95409397000003,136.17588709999995,136.20201586999997,136.20302830000003,136.23844337000003,136.23837319999996,137.57056307000005,s,1,1.3206281999999874,1320.6281999999874,136.23837319999996,137.57056307000005,137.57695090000004,139.47893567000006,EMOCONPILOT024,2021_Feb_18_1020,EmoCon_Pilot_120Hz,2020.2.4,120.11146343806222,
,,,,0,0,0,0,35,0,35,0,,,,,,,,,,,,,,,,,,,,,,,,,,,,,,,,,,,,,,,,,,,,,,,35,9.0,f,021_o_f_h_a.jpg,happy,d,3,1,139.48183300000005,139.77897267000003,139.98659429999998,140.01253156999996,140.01325940000004,140.04867907000005,140.04876679999995,140.61231537000003,d,1,0.5502917999999681,550.2917999999681,140.04876679999995,140.61231537000003,140.6182238,141.67081107,EMOCONPILOT024,2021_Feb_18_1020,EmoCon_Pilot_120Hz,2020.2.4,120.11146343806222,
,,,,0,0,0,0,36,0,36,0,,,,,,,,,,,,,,,,,,,,,,,,,,,,,,,,,,,,,,,,,,,,,,,36,11.0,f,030_o_f_s_a.jpg,sad,a,17,1,141.6766116,141.97073907000004,142.16596019999997,142.32145527,142.32431410000004,142.36243866999996,142.366043,143.07954427000004,a,1,0.705254400000058,705.254400000058,142.366043,143.07954427000004,143.08887119999997,144.76251047000005,EMOCONPILOT024,2021_Feb_18_1020,EmoCon_Pilot_120Hz,2020.2.4,120.11146343806222,
,,,,0,0,0,0,37,0,37,0,,,,,,,,,,,,,,,,,,,,,,,,,,,,,,,,,,,,,,,,,,,,,,,37,12.0,f,040_y_f_n_a.jpg,neutral,s,3,1,144.769453,145.06249407000007,145.2741598,145.30126697000003,145.30606880000005,145.34733367,145.3522365,145.95232486999998,s,1,0.5909417000000303,590.9417000000303,145.3522365,145.95232486999998,145.9641623,147.79592157000002,EMOCONPILOT024,2021_Feb_18_1020,EmoCon_Pilot_120Hz,2020.2.4,120.11146343806222,
,,,,0,0,0,0,38,0,38,0,,,,,,,,,,,,,,,,,,,,,,,,,,,,,,,,,,,,,,,,,,,,,,,38,9.0,f,021_o_f_s_a.jpg,sad,a,3,1,147.8005716,148.09586296999998,148.11958289999995,148.14266427000007,148.14351139999997,148.18037847000005,148.1819388,148.96931837,a,1,0.7772122999999738,777.2122999999738,148.1819388,148.96931837,148.97682640000005,150.38768406999998,EMOCONPILOT024,2021_Feb_18_1020,EmoCon_Pilot_120Hz,2020.2.4,120.11146343806222,
,,,,0,0,0,0,39,0,39,0,,,,,,,,,,,,,,,,,,,,,,,,,,,,,,,,,,,,,,,,,,,,,,,39,4.0,m,016_y_m_n_a.jpg,neutral,s,17,1,150.39315520000002,150.68770127000005,151.05003069999998,151.20783216999996,151.21171579999998,151.25257786999998,151.25659600000006,151.73634857000002,s,1,0.4705954999999449,470.5954999999449,151.25659600000006,151.73634857000002,151.7478959,153.49611176999997,EMOCONPILOT024,2021_Feb_18_1020,EmoCon_Pilot_120Hz,2020.2.4,120.11146343806222,
,,,,0,0,0,0,40,0,40,0,,,,,,,,,,,,,,,,,,,,,,,,,,,,,,,,,,,,,,,,,,,,,,,40,9.0,f,021_o_f_s_a.jpg,sad,a,17,1,153.50182919999997,153.79604947000007,153.8209832,153.95602757000006,153.95797560000005,153.99724877000006,153.99922260000005,154.70087277000005,a,1,0.6878465999999435,687.8465999999435,153.99922260000005,154.70087277000005,154.70751340000004,156.57115537000004,EMOCONPILOT024,2021_Feb_18_1020,EmoCon_Pilot_120Hz,2020.2.4,120.11146343806222,
,,,,0,0,0,0,41,0,41,0,,,,,,,,,,,,,,,,,,,,,,,,,,,,,,,,,,,,,,,,,,,,,,,41,11.0,f,030_o_f_h_a.jpg,happy,d,3,1,156.57671700000003,156.87106427000003,157.087854,157.11430787000006,157.11443759999997,157.14981487,157.15031050000005,157.72960567000007,d,1,0.5689712000000782,568.9712000000782,157.15031050000005,157.72960567000007,157.7429998,159.57950787000004,EMOCONPILOT024,2021_Feb_18_1020,EmoCon_Pilot_120Hz,2020.2.4,120.11146343806222,
,,,,0,0,0,0,42,0,42,0,,,,,,,,,,,,,,,,,,,,,,,,,,,,,,,,,,,,,,,,,,,,,,,42,4.0,m,016_y_m_h_a.jpg,happy,d,3,1,159.58570510000004,159.87954197,159.90452979999998,159.92737997000006,159.92771300000004,159.96402487,159.96402869999997,160.82329117000006,d,1,0.8431416000000809,843.1416000000809,159.96402869999997,160.82329117000006,160.83262200000001,162.61278906999996,EMOCONPILOT024,2021_Feb_18_1020,EmoCon_Pilot_120Hz,2020.2.4,120.11146343806222,
,,,,0,0,0,0,43,0,43,0,,,,,,,,,,,,,,,,,,,,,,,,,,,,,,,,,,,,,,,,,,,,,,,43,1.0,m,004_o_m_s_a.jpg,sad,a,17,1,162.61678659999995,162.91289067000002,162.93776119999995,163.07284557000003,163.07571830000006,163.11406096999997,163.11706300000003,163.80708357000003,a,1,0.6741504999999961,674.1504999999961,163.11706300000003,163.80708357000003,163.81624390000002,165.39622177,EMOCONPILOT024,2021_Feb_18_1020,EmoCon_Pilot_120Hz,2020.2.4,120.11146343806222,
,,,,0,0,0,0,44,0,44,0,,,,,,,,,,,,,,,,,,,,,,,,,,,,,,,,,,,,,,,,,,,,,,,44,4.0,m,016_y_m_h_a.jpg,happy,d,3,1,165.40155300000004,165.69632817000002,165.71776780000005,165.73975667000002,165.74030170000003,165.78067326999997,165.78201350000006,166.67980856999998,s,0,0.8890971999999238,889.0971999999238,165.78201350000006,166.67980856999998,166.6823356,168.56303236999997,EMOCONPILOT024,2021_Feb_18_1020,EmoCon_Pilot_120Hz,2020.2.4,120.11146343806222,
,,,,0,0,0,0,45,0,45,0,,,,,,,,,,,,,,,,,,,,,,,,,,,,,,,,,,,,,,,,,,,,,,,45,7.0,f,012_o_f_s_a.jpg,sad,a,3,1,168.56856000000005,168.86299357000007,168.88744210000004,168.90875257000005,168.9097971,168.94743967,168.94921499999998,169.51967387000002,s,0,0.5540945999999849,554.0945999999849,168.94921499999998,169.51967387000002,169.52801090000003,170.69630346999998,EMOCONPILOT024,2021_Feb_18_1020,EmoCon_Pilot_120Hz,2020.2.4,120.11146343806222,
,,,,0,0,0,0,46,0,46,0,,,,,,,,,,,,,,,,,,,,,,,,,,,,,,,,,,,,,,,,,,,,,,,46,8.0,f,019_m_f_n_a.jpg,neutral,s,3,1,170.70160239999996,170.99638697,171.3583076,171.38494336999997,171.38542689999997,171.42294897,171.42322320000005,172.20020986999998,s,1,0.7679318000000421,767.9318000000421,171.42322320000005,172.20020986999998,172.2084297,173.97140097,EMOCONPILOT024,2021_Feb_18_1020,EmoCon_Pilot_120Hz,2020.2.4,120.11146343806222,
,,,,0,0,0,0,47,0,47,0,,,,,,,,,,,,,,,,,,,,,,,,,,,,,,,,,,,,,,,,,,,,,,,47,2.0,m,008_y_m_h_a.jpg,happy,d,3,1,173.97674259999997,174.27147707000006,174.29721700000005,174.31958167000005,174.32008270000006,174.35591087,174.3572577,175.19149017000007,d,1,0.8259663000000046,825.9663000000046,174.3572577,175.19149017000007,175.19970420000004,177.03809687,EMOCONPILOT024,2021_Feb_18_1020,EmoCon_Pilot_120Hz,2020.2.4,120.11146343806222,
,,,,0,0,0,0,48,0,48,0,,,,,,,,,,,,,,,,,,,,,,,,,,,,,,,,,,,,,,,,,,,,,,,48,12.0,f,040_y_f_n_a.jpg,neutral,s,17,1,177.04399639999997,177.33790937000003,177.55631979999998,177.71060587,177.71551139999997,177.75625397,177.76136350000002,178.29052877000004,s,1,0.5177525999999943,517.7525999999943,177.76136350000002,178.29052877000004,178.30091460000006,179.97161207,EMOCONPILOT024,2021_Feb_18_1020,EmoCon_Pilot_120Hz,2020.2.4,120.11146343806222,
,,,,0,0,0,0,49,0,49,0,,,,,,,,,,,,,,,,,,,,,,,,,,,,,,,,,,,,,,,,,,,,,,,49,11.0,f,030_o_f_n_a.jpg,neutral,s,17,1,179.97697630000005,180.27157367000007,180.46521099999995,180.62666117000003,180.63081069999998,180.67153607,180.67664739999998,181.15080667000007,s,1,0.458432700000003,458.432700000003,180.67664739999998,181.15080667000007,181.15934849999996,182.36327276999998,EMOCONPILOT024,2021_Feb_18_1020,EmoCon_Pilot_120Hz,2020.2.4,120.11146343806222,
,,,,0,0,0,0,50,0,50,0,,,,,,,,,,,,,,,,,,,,,,,,,,,,,,,,,,,,,,,,,,,,,,,50,8.0,f,019_m_f_h_a.jpg,happy,d,17,1,182.3677063,182.66321847000006,182.6882435,182.82306157000005,182.82628610000006,182.86441496999998,182.86730720000003,183.39623997,d,1,0.515893599999913,515.893599999913,182.86730720000003,183.39623997,183.40439390000006,185.03001837,EMOCONPILOT024,2021_Feb_18_1020,EmoCon_Pilot_120Hz,2020.2.4,120.11146343806222,
,,,,0,0,0,0,51,0,51,0,,,,,,,,,,,,,,,,,,,,,,,,,,,,,,,,,,,,,,,,,,,,,,,51,8.0,f,019_m_f_n_a.jpg,neutral,s,17,1,185.03532070000006,185.32998217,185.57766100000003,185.73614156999997,185.73956780000003,185.78046546999997,185.7841869,186.16033457000003,s,1,0.3671474999999873,367.1474999999873,185.7841869,186.16033457000003,186.17218300000002,187.35509107000007,EMOCONPILOT024,2021_Feb_18_1020,EmoCon_Pilot_120Hz,2020.2.4,120.11146343806222,
,,,,0,0,0,0,52,0,52,0,,,,,,,,,,,,,,,,,,,,,,,,,,,,,,,,,,,,,,,,,,,,,,,52,12.0,f,040_y_f_n_a.jpg,neutral,s,3,1,187.36076679999996,187.65509137000004,187.88371140000004,187.90905677,187.90980839999997,187.94461877000003,187.9449287,188.47048737,s,1,0.5181602999999768,518.1602999999768,187.9449287,188.47048737,188.47885700000006,190.39672487000007,EMOCONPILOT024,2021_Feb_18_1020,EmoCon_Pilot_120Hz,2020.2.4,120.11146343806222,
,,,,0,0,0,0,53,0,53,0,,,,,,,,,,,,,,,,,,,,,,,,,,,,,,,,,,,,,,,,,,,,,,,53,9.0,f,021_o_f_h_a.jpg,happy,d,17,1,190.40291660000003,190.69670907,190.90354690000004,191.06424687000003,191.06888400000003,191.10975797000003,191.11488840000004,191.52219057000002,d,1,0.3962397999999894,396.2397999999894,191.11488840000004,191.52219057000002,191.53402619999997,192.85501856999997,EMOCONPILOT024,2021_Feb_18_1020,EmoCon_Pilot_120Hz,2020.2.4,120.11146343806222,
,,,,0,0,0,0,54,0,54,0,,,,,,,,,,,,,,,,,,,,,,,,,,,,,,,,,,,,,,,,,,,,,,,54,2.0,m,008_y_m_n_a.jpg,neutral,s,17,1,192.8579135,193.15506027000004,193.39407670000003,193.55203016999997,193.55705250000005,193.59792106999998,193.60293790000003,194.00985957,s,1,0.396207000000004,396.207000000004,193.60293790000003,194.00985957,194.02170230000002,195.57191526999998,EMOCONPILOT024,2021_Feb_18_1020,EmoCon_Pilot_120Hz,2020.2.4,120.11146343806222,
,,,,0,0,0,0,55,0,55,0,,,,,,,,,,,,,,,,,,,,,,,,,,,,,,,,,,,,,,,,,,,,,,,55,10.0,f,028_y_f_n_a.jpg,neutral,s,3,1,195.57738659999995,195.87169657000004,196.0771429,196.10276337000005,196.10349470000006,196.13958527,196.1394692,196.84693906999996,s,1,0.6915771999999833,691.5771999999833,196.1394692,196.84693906999996,196.8536646,198.58859707,EMOCONPILOT024,2021_Feb_18_1020,EmoCon_Pilot_120Hz,2020.2.4,120.11146343806222,
,,,,0,0,0,0,56,0,56,0,,,,,,,,,,,,,,,,,,,,,,,,,,,,,,,,,,,,,,,,,,,,,,,56,12.0,f,040_y_f_h_a.jpg,happy,d,17,1,198.59482360000004,198.88857086999997,198.91443119999997,199.04857947000005,199.0515884,199.09067636999998,199.09475570000006,199.44875717000002,d,1,0.3443542999999636,344.3542999999636,199.09475570000006,199.44875717000002,199.4595438,200.64685147,EMOCONPILOT024,2021_Feb_18_1020,EmoCon_Pilot_120Hz,2020.2.4,120.11146343806222,
,,,,0,0,0,0,57,0,57,0,,,,,,,,,,,,,,,,,,,,,,,,,,,,,,,,,,,,,,,,,,,,,,,57,2.0,m,008_y_m_n_a.jpg,neutral,s,3,1,200.65050610000003,200.94693197000004,201.1865143,201.21208047000005,201.21240850000004,201.24807727000007,201.24948200000006,201.76893277,s,1,0.509622400000012,509.622400000012,201.24948200000006,201.76893277,201.77856599999996,203.48892587,EMOCONPILOT024,2021_Feb_18_1020,EmoCon_Pilot_120Hz,2020.2.4,120.11146343806222,
,,,,0,0,0,0,58,0,58,0,,,,,,,,,,,,,,,,,,,,,,,,,,,,,,,,,,,,,,,,,,,,,,,58,9.0,f,021_o_f_n_a.jpg,neutral,s,17,1,203.489778,203.78873367000006,204.00717040000006,204.16509027000006,204.16873599999997,204.20659926999997,204.21034380000003,204.59091077000005,s,1,0.3648204999999507,364.8204999999507,204.21034380000003,204.59091077000005,204.5999643,206.34698747000004,EMOCONPILOT024,2021_Feb_18_1020,EmoCon_Pilot_120Hz,2020.2.4,120.11146343806222,
,,,,0,0,0,0,59,0,59,0,,,,,,,,,,,,,,,,,,,,,,,,,,,,,,,,,,,,,,,,,,,,,,,59,4.0,m,016_y_m_n_a.jpg,neutral,s,17,1,206.3510073,206.64702877000002,206.88799410000001,207.05090477,207.0558664,207.09671217000005,207.10178159999998,207.47872657000005,s,1,0.3694186999999829,369.4186999999829,207.10178159999998,207.47872657000005,207.4913027,208.99696137,EMOCONPILOT024,2021_Feb_18_1020,EmoCon_Pilot_120Hz,2020.2.4,120.11146343806222,
,,,,0,0,0,0,60,0,60,0,,,,,,,,,,,,,,,,,,,,,,,,,,,,,,,,,,,,,,,,,,,,,,,60,6.0,m,033_o_m_s_a.jpg,sad,a,3,1,208.99947380000003,209.29696417000002,209.31879909999998,209.34182267000006,209.34240950000003,209.38157217000003,209.38329539999995,209.86292877000005,s,0,0.46385400000008303,463.85400000008303,209.38329539999995,209.86292877000005,209.87125419999995,211.23053987000003,EMOCONPILOT024,2021_Feb_18_1020,EmoCon_Pilot_120Hz,2020.2.4,120.11146343806222,
,,,,0,0,0,0,61,0,61,0,,,,,,,,,,,,,,,,,,,,,,,,,,,,,,,,,,,,,,,,,,,,,,,61,7.0,f,012_o_f_n_a.jpg,neutral,s,17,1,211.23483729999998,211.53052677000005,211.7536566,211.91867987,211.92344709999998,211.96429737000005,211.96953919999999,212.40759487000003,s,1,0.42166150000002744,421.66150000002744,211.96953919999999,212.40759487000003,212.41893560000005,213.92223696999997,EMOCONPILOT024,2021_Feb_18_1020,EmoCon_Pilot_120Hz,2020.2.4,120.11146343806222,
,,,,0,0,0,0,62,0,62,0,,,,,,,,,,,,,,,,,,,,,,,,,,,,,,,,,,,,,,,,,,,,,,,62,2.0,m,008_y_m_h_a.jpg,happy,d,17,1,213.92640359999996,214.22223137000003,214.2464953,214.38216126999998,214.385443,214.42342327000006,214.42725540000004,214.99392426999998,d,1,0.5558442999999897,555.8442999999897,214.42725540000004,214.99392426999998,215.00611879999997,216.28061297,EMOCONPILOT024,2021_Feb_18_1020,EmoCon_Pilot_120Hz,2020.2.4,120.11146343806222,
,,,,0,0,0,0,63,0,63,0,,,,,,,,,,,,,,,,,,,,,,,,,,,,,,,,,,,,,,,,,,,,,,,63,10.0,f,028_y_f_h_a.jpg,happy,d,17,1,216.28496589999997,216.58052597000005,216.59263410000005,216.72438626999997,216.72810849999996,216.76872917000003,216.77308100000005,217.20952897000006,d,1,0.4260701999999128,426.0701999999128,216.77308100000005,217.20952897000006,217.22119210000005,219.21400207,EMOCONPILOT024,2021_Feb_18_1020,EmoCon_Pilot_120Hz,2020.2.4,120.11146343806222,
,,,,0,0,0,0,64,0,64,0,,,,,,,,,,,,,,,,,,,,,,,,,,,,,,,,,,,,,,,,,,,,,,,64,4.0,m,016_y_m_h_a.jpg,happy,d,17,1,219.21825550000005,219.51390506999996,219.5381744,219.67394947000003,219.67846440000005,219.71913697000002,219.72420239999997,220.11057957000003,d,1,0.3789419000000862,378.9419000000862,219.72420239999997,220.11057957000003,220.12231929999996,221.46408657000006,EMOCONPILOT024,2021_Feb_18_1020,EmoCon_Pilot_120Hz,2020.2.4,120.11146343806222,
,,,,0,0,0,0,65,0,65,0,,,,,,,,,,,,,,,,,,,,,,,,,,,,,,,,,,,,,,,,,,,,,,,65,9.0,f,021_o_f_s_a.jpg,sad,a,3,1,221.47033199999998,221.76398957000004,221.78516890000003,221.80906347000007,221.80976840000005,221.84629207,221.84672850000004,222.54533106999997,s,0,0.6882744999999204,688.2744999999204,221.84672850000004,222.54533106999997,222.55177119999996,224.07242497000004,EMOCONPILOT024,2021_Feb_18_1020,EmoCon_Pilot_120Hz,2020.2.4,120.11146343806222,
,,,,0,0,0,0,66,0,66,0,,,,,,,,,,,,,,,,,,,,,,,,,,,,,,,,,,,,,,,,,,,,,,,66,7.0,f,012_o_f_h_a.jpg,happy,d,3,1,224.07658030000005,224.37234407000005,224.39347310000005,224.41614957000002,224.41613640000003,224.45116086999997,224.45143440000004,225.03270637000003,d,1,0.5716476999999713,571.6476999999713,224.45143440000004,225.03270637000003,225.0408572,226.26416947000007,EMOCONPILOT024,2021_Feb_18_1020,EmoCon_Pilot_120Hz,2020.2.4,120.11146343806222,
,,,,0,0,0,0,67,0,67,0,,,,,,,,,,,,,,,,,,,,,,,,,,,,,,,,,,,,,,,,,,,,,,,67,9.0,f,021_o_f_h_a.jpg,happy,d,3,1,226.26872649999996,226.56415936999997,226.94504940000002,226.97117996999998,226.97129170000005,227.00749347,227.00801060000003,227.61216757,d,1,0.5909915000000865,590.9915000000865,227.00801060000003,227.61216757,227.61962389999997,229.01411227000006,EMOCONPILOT024,2021_Feb_18_1020,EmoCon_Pilot_120Hz,2020.2.4,120.11146343806222,
,,,,0,0,0,0,68,0,68,0,,,,,,,,,,,,,,,,,,,,,,,,,,,,,,,,,,,,,,,,,,,,,,,68,8.0,f,019_m_f_h_a.jpg,happy,d,3,1,229.01834889999998,229.31420436999997,229.34082820000003,229.36422287000005,229.36499990000004,229.40249557000004,229.40422320000005,229.98504457,d,1,0.5708210000000236,570.8210000000236,229.40422320000005,229.98504457,229.9935931,230.99742327,EMOCONPILOT024,2021_Feb_18_1020,EmoCon_Pilot_120Hz,2020.2.4,120.11146343806222,
,,,,0,0,0,0,69,0,69,0,,,,,,,,,,,,,,,,,,,,,,,,,,,,,,,,,,,,,,,,,,,,,,,69,9.0,f,021_o_f_s_a.jpg,sad,a,3,1,231.0004186,231.29747277,231.31885309999996,231.34145737000006,231.34161640000002,231.37881297,231.3790626,232.96177126999999,None,0,,,231.3790626,232.96177126999999,232.96672509999996,234.93913447,EMOCONPILOT024,2021_Feb_18_1020,EmoCon_Pilot_120Hz,2020.2.4,120.11146343806222,
,,,,0,0,0,0,70,0,70,0,,,,,,,,,,,,,,,,,,,,,,,,,,,,,,,,,,,,,,,,,,,,,,,70,2.0,m,008_y_m_h_a.jpg,happy,d,17,1,234.94101720000003,235.23927797,235.26307350000002,235.39928267000005,235.40281460000006,235.44037106999997,235.44300599999997,236.07626936999998,s,0,0.6200068999999075,620.0068999999075,235.44300599999997,236.07626936999998,236.08551,237.60607007,EMOCONPILOT024,2021_Feb_18_1020,EmoCon_Pilot_120Hz,2020.2.4,120.11146343806222,
,,,,0,0,0,0,71,0,71,0,,,,,,,,,,,,,,,,,,,,,,,,,,,,,,,,,,,,,,,,,,,,,,,71,1.0,m,004_o_m_h_a.jpg,happy,d,17,1,237.61050899999998,237.90598027,238.125986,238.28630816999998,238.29127990000006,238.33228297000005,238.3373242,238.82832207,d,1,0.47759240000004866,477.59240000004866,238.3373242,238.82832207,238.83299820000002,240.79764557,EMOCONPILOT024,2021_Feb_18_1020,EmoCon_Pilot_120Hz,2020.2.4,120.11146343806222,
,,,,0,0,0,0,72,0,72,0,,,,,,,,,,,,,,,,,,,,,,,,,,,,,,,,,,,,,,,,,,,,,,,72,11.0,f,030_o_f_h_a.jpg,happy,d,3,1,240.80131630000005,241.09763656999996,241.3038639,241.33038356999998,241.3341051,241.37403576999998,241.37906010000006,241.97862087,d,1,0.5880634999999756,588.0634999999756,241.37906010000006,241.97862087,241.9903183,243.81444556999998,EMOCONPILOT024,2021_Feb_18_1020,EmoCon_Pilot_120Hz,2020.2.4,120.11146343806222,
,,,,0,0,0,0,73,0,73,0,,,,,,,,,,,,,,,,,,,,,,,,,,,,,,,,,,,,,,,,,,,,,,,73,8.0,f,019_m_f_s_a.jpg,sad,a,3,1,243.81853439999998,244.11444287000006,244.35429850000003,244.38121917,244.38530000000003,244.42649697000002,244.43157250000002,245.32681787,s,0,0.8795020000000022,879.5020000000022,244.43157250000002,245.32681787,245.33429409999997,247.15619677000007,EMOCONPILOT024,2021_Feb_18_1020,EmoCon_Pilot_120Hz,2020.2.4,120.11146343806222,
,,,,0,0,0,0,74,0,74,0,,,,,,,,,,,,,,,,,,,,,,,,,,,,,,,,,,,,,,,,,,,,,,,74,5.0,m,027_o_m_h_a.jpg,happy,d,17,1,247.1603784,247.45619477000002,247.66576529999998,247.82913737,247.83383230000004,247.87519227000007,247.88007470000002,248.31892087000006,d,1,0.42302669999992304,423.02669999992304,247.88007470000002,248.31892087000006,248.33050850000006,250.27287926999998,EMOCONPILOT024,2021_Feb_18_1020,EmoCon_Pilot_120Hz,2020.2.4,120.11146343806222,
,,,,0,0,0,0,75,0,75,0,,,,,,,,,,,,,,,,,,,,,,,,,,,,,,,,,,,,,,,,,,,,,,,75,8.0,f,019_m_f_s_a.jpg,sad,a,3,1,250.27704900000003,250.57288647000007,250.81889999999999,250.84538056999997,250.84604120000006,250.88249286999996,250.8822219,251.58034417,a,1,0.6850076999999146,685.0076999999146,250.8822219,251.58034417,251.58911279999995,252.83959397,EMOCONPILOT024,2021_Feb_18_1020,EmoCon_Pilot_120Hz,2020.2.4,120.11146343806222,
,,,,0,0,0,0,76,0,76,0,,,,,,,,,,,,,,,,,,,,,,,,,,,,,,,,,,,,,,,,,,,,,,,76,7.0,f,012_o_f_n_a.jpg,neutral,s,17,1,252.8468133,253.13963307000006,253.3468927,253.51908406999996,253.52329280000004,253.56398507000006,253.56909440000004,254.11941047000005,s,1,0.5340945999998894,534.0945999998894,253.56909440000004,254.11941047000005,254.1299391,255.69786487,EMOCONPILOT024,2021_Feb_18_1020,EmoCon_Pilot_120Hz,2020.2.4,120.11146343806222,
,,,,0,0,0,0,77,0,77,0,,,,,,,,,,,,,,,,,,,,,,,,,,,,,,,,,,,,,,,,,,,,,,,77,6.0,m,033_o_m_s_a.jpg,sad,a,17,1,255.70080080000002,255.99786246999997,256.01980790000005,256.15818527,256.161792,256.20253747000004,256.20764900000006,256.68250057,s,0,0.4633608000000322,463.3608000000322,256.20764900000006,256.68250057,256.69082190000006,257.68968727000004,EMOCONPILOT024,2021_Feb_18_1020,EmoCon_Pilot_120Hz,2020.2.4,120.11146343806222,
,,,,0,0,0,0,78,0,78,0,,,,,,,,,,,,,,,,,,,,,,,,,,,,,,,,,,,,,,,,,,,,,,,78,1.0,m,004_o_m_h_a.jpg,happy,d,17,1,257.69519579999996,257.98974747,258.2011096,258.35788267,258.36276999999995,258.40097497,258.40520649999996,258.93582637,d,1,0.5219683000000259,521.9683000000259,258.40520649999996,258.93582637,258.9474663,260.20647056999996,EMOCONPILOT024,2021_Feb_18_1020,EmoCon_Pilot_120Hz,2020.2.4,120.11146343806222,
,,,,0,0,0,0,79,0,79,0,,,,,,,,,,,,,,,,,,,,,,,,,,,,,,,,,,,,,,,,,,,,,,,79,5.0,m,027_o_m_s_a.jpg,sad,a,3,1,260.210869,260.50647747000005,260.5318337,260.55507997000007,260.555832,260.59259056999997,260.59465180000007,261.35158727,s,0,0.7483902999999827,748.3902999999827,260.59465180000007,261.35158727,261.35893780000004,262.84819437,EMOCONPILOT024,2021_Feb_18_1020,EmoCon_Pilot_120Hz,2020.2.4,120.11146343806222,
,,,,0,0,0,0,80,0,80,0,,,,,,,,,,,,,,,,,,,,,,,,,,,,,,,,,,,,,,,,,,,,,,,80,9.0,f,021_o_f_s_a.jpg,sad,a,3,1,262.8523646,263.14811937,263.1706987,263.19385447,263.1941186,263.23269717000005,263.2337854,263.82480157,s,0,0.5810836000000563,581.0836000000563,263.2337854,263.82480157,263.82706800000005,265.50660627,EMOCONPILOT024,2021_Feb_18_1020,EmoCon_Pilot_120Hz,2020.2.4,120.11146343806222,
,,,,0,0,0,0,81,0,81,0,,,,,,,,,,,,,,,,,,,,,,,,,,,,,,,,,,,,,,,,,,,,,,,81,5.0,m,027_o_m_s_a.jpg,sad,a,17,1,265.5120762,265.80661867000003,265.8311069,265.9665456700001,265.9682675,266.00779367000007,266.011069,266.65619597,a,1,0.6359767000000147,635.9767000000147,266.011069,266.65619597,266.6672168,267.83153427,EMOCONPILOT024,2021_Feb_18_1020,EmoCon_Pilot_120Hz,2020.2.4,120.11146343806222,
,,,,0,0,0,0,82,0,82,0,,,,,,,,,,,,,,,,,,,,,,,,,,,,,,,,,,,,,,,,,,,,,,,82,7.0,f,012_o_f_h_a.jpg,happy,d,3,1,267.83535430000006,268.13160937,268.1473601,268.17000047,268.17071110000006,268.20771747000003,268.2084333,268.79490287,d,1,0.5746162000000368,574.6162000000368,268.2084333,268.79490287,268.8032667,270.07323467000003,EMOCONPILOT024,2021_Feb_18_1020,EmoCon_Pilot_120Hz,2020.2.4,120.11146343806222,
,,,,0,0,0,0,83,0,83,0,,,,,,,,,,,,,,,,,,,,,,,,,,,,,,,,,,,,,,,,,,,,,,,83,3.0,m,013_y_m_s_a.jpg,sad,a,17,1,270.0792506,270.37325126999997,270.3891827,270.52478367000003,270.52703110000004,270.56609947000004,270.56957669999997,271.05042417000004,s,0,0.4693816000000197,469.3816000000197,270.56957669999997,271.05042417000004,271.0586598,272.5399790700001,EMOCONPILOT024,2021_Feb_18_1020,EmoCon_Pilot_120Hz,2020.2.4,120.11146343806222,
,,,,0,0,0,0,84,0,84,0,,,,,,,,,,,,,,,,,,,,,,,,,,,,,,,,,,,,,,,,,,,,,,,84,5.0,m,027_o_m_s_a.jpg,sad,a,3,1,272.5460646,272.84000787,272.86593059999996,272.88912037,272.8894011,272.92661917,272.92723450000005,273.56808067,s,0,0.6238908999999921,623.8908999999921,272.92723450000005,273.56808067,273.57559630000003,275.11508087000004,EMOCONPILOT024,2021_Feb_18_1020,EmoCon_Pilot_120Hz,2020.2.4,120.11146343806222,
,,,,0,0,0,0,85,0,85,0,,,,,,,,,,,,,,,,,,,,,,,,,,,,,,,,,,,,,,,,,,,,,,,85,4.0,m,016_y_m_s_a.jpg,sad,a,3,1,275.11941049999996,275.41508147,275.43821390000005,275.46073477000004,275.46120329999997,275.49952867,275.5010102,276.11309657000004,s,0,0.601937899999939,601.937899999939,275.5010102,276.11309657000004,276.1205466,277.66517147,EMOCONPILOT024,2021_Feb_18_1020,EmoCon_Pilot_120Hz,2020.2.4,120.11146343806222,
,,,,0,0,0,0,86,0,86,0,,,,,,,,,,,,,,,,,,,,,,,,,,,,,,,,,,,,,,,,,,,,,,,86,5.0,m,027_o_m_n_a.jpg,neutral,s,17,1,277.670488,277.96514917,278.1969219,278.36516357000005,278.36985730000004,278.41093066999997,278.41548020000005,278.95456507000006,s,1,0.5275742000000037,527.5742000000037,278.41548020000005,278.95456507000006,278.9671479,280.25686727000004,EMOCONPILOT024,2021_Feb_18_1020,EmoCon_Pilot_120Hz,2020.2.4,120.11146343806222,
,,,,0,0,0,0,87,0,87,0,,,,,,,,,,,,,,,,,,,,,,,,,,,,,,,,,,,,,,,,,,,,,,,87,3.0,m,013_y_m_h_a.jpg,happy,d,17,1,280.2623691,280.55683357,280.82185990000005,280.97931067,280.98443080000004,281.02443257000004,281.02969310000003,281.46893817,d,1,0.4253783999999996,425.3783999999996,281.02969310000003,281.46893817,281.4817151,282.59017317000007,EMOCONPILOT024,2021_Feb_18_1020,EmoCon_Pilot_120Hz,2020.2.4,120.11146343806222,
,,,,0,0,0,0,88,0,88,0,,,,,,,,,,,,,,,,,,,,,,,,,,,,,,,,,,,,,,,,,,,,,,,88,5.0,m,027_o_m_s_a.jpg,sad,a,3,1,282.5963497,282.89025117000006,282.91405410000004,282.93684217,282.93745049999995,282.97466597000005,282.97482620000005,283.85231637000004,d,0,0.8639699999999948,863.9699999999948,282.97482620000005,283.85231637000004,283.85555969999996,285.22354787000006,EMOCONPILOT024,2021_Feb_18_1020,EmoCon_Pilot_120Hz,2020.2.4,120.11146343806222,
,,,,0,0,0,0,89,0,89,0,,,,,,,,,,,,,,,,,,,,,,,,,,,,,,,,,,,,,,,,,,,,,,,89,5.0,m,027_o_m_s_a.jpg,sad,a,3,1,285.22762190000003,285.52363747000004,285.54402100000004,285.56752147,285.5684215,285.60404576999997,285.60456220000003,286.34328337,s,0,0.7226383000000851,722.6383000000851,285.60456220000003,286.34328337,286.35453889999997,287.67369586999996,EMOCONPILOT024,2021_Feb_18_1020,EmoCon_Pilot_120Hz,2020.2.4,120.11146343806222,
,,,,0,0,0,0,90,0,90,0,,,,,,,,,,,,,,,,,,,,,,,,,,,,,,,,,,,,,,,,,,,,,,,90,12.0,f,040_y_f_s_a.jpg,sad,a,3,1,287.67929990000005,287.97361547,287.998252,288.02059457000007,288.0214482,288.05806487000007,288.0591277,288.86096927000006,s,0,0.7878751000000648,787.8751000000648,288.0591277,288.86096927000006,288.8705169,290.83207257000004,EMOCONPILOT024,2021_Feb_18_1020,EmoCon_Pilot_120Hz,2020.2.4,120.11146343806222,
,,,,0,0,0,0,91,0,91,0,,,,,,,,,,,,,,,,,,,,,,,,,,,,,,,,,,,,,,,,,,,,,,,91,3.0,m,013_y_m_n_a.jpg,neutral,s,3,1,290.83652000000006,291.13198817,291.3806158,291.40551987000003,291.40632259999995,291.44151856999997,291.44294820000005,292.31859697000004,s,1,0.8601683999999068,860.1683999999068,291.44294820000005,292.31859697000004,292.3295498,293.58214547,EMOCONPILOT024,2021_Feb_18_1020,EmoCon_Pilot_120Hz,2020.2.4,120.11146343806222,
,,,,0,0,0,0,92,0,92,0,,,,,,,,,,,,,,,,,,,,,,,,,,,,,,,,,,,,,,,,,,,,,,,92,12.0,f,040_y_f_s_a.jpg,sad,a,3,1,293.587705,293.88208917,293.89395779999995,293.91755057,293.91872350000006,293.95482817000004,293.95454589999997,294.58975307000003,s,0,0.620493099999976,620.493099999976,293.95454589999997,294.58975307000003,294.59445589999996,296.54859947,EMOCONPILOT024,2021_Feb_18_1020,EmoCon_Pilot_120Hz,2020.2.4,120.11146343806222,
,,,,0,0,0,0,93,0,93,0,,,,,,,,,,,,,,,,,,,,,,,,,,,,,,,,,,,,,,,,,,,,,,,93,6.0,m,033_o_m_s_a.jpg,sad,a,3,1,296.5515341,296.84874077000006,296.8664268,296.88928247,296.88978110000005,296.92694507,296.92759290000004,297.63698437000005,s,0,0.6954585000000861,695.4585000000861,296.92759290000004,297.63698437000005,297.6443227,298.94021477,EMOCONPILOT024,2021_Feb_18_1020,EmoCon_Pilot_120Hz,2020.2.4,120.11146343806222,
,,,,0,0,0,0,94,0,94,0,,,,,,,,,,,,,,,,,,,,,,,,,,,,,,,,,,,,,,,,,,,,,,,94,2.0,m,008_y_m_s_a.jpg,sad,a,17,1,298.94022470000004,299.24026427,299.48868330000005,299.64248057,299.6425881,299.67890807000003,299.67879400000004,300.06428167,a,1,0.3762970000000223,376.2970000000223,299.67879400000004,300.06428167,300.07471180000005,302.00727357000005,EMOCONPILOT024,2021_Feb_18_1020,EmoCon_Pilot_120Hz,2020.2.4,120.11146343806222,
,,,,0,0,0,0,95,0,95,0,,,,,,,,,,,,,,,,,,,,,,,,,,,,,,,,,,,,,,,,,,,,,,,95,8.0,f,019_m_f_s_a.jpg,sad,a,17,1,302.0129525,302.30720807,302.5469587,302.70915497,302.7140697,302.75486627,302.7599252,303.17744246999996,a,1,0.4071197000000666,407.1197000000666,302.7599252,303.17744246999996,303.1880909,304.50733167,EMOCONPILOT024,2021_Feb_18_1020,EmoCon_Pilot_120Hz,2020.2.4,120.11146343806222,
,,,,0,0,0,0,96,0,96,0,,,,,,,,,,,,,,,,,,,,,,,,,,,,,,,,,,,,,,,,,,,,,,,96,9.0,f,021_o_f_n_a.jpg,neutral,s,3,1,304.51185540000006,304.80731257,305.0232128,305.04896386999997,305.0498327,305.08511407000003,305.08475810000004,306.50370867000004,a,0,1.4024024999999938,1402.4024999999938,305.08475810000004,306.50370867000004,306.51514870000005,308.19904997000003,EMOCONPILOT024,2021_Feb_18_1020,EmoCon_Pilot_120Hz,2020.2.4,120.11146343806222,
,,,,0,0,0,0,97,0,97,0,,,,,,,,,,,,,,,,,,,,,,,,,,,,,,,,,,,,,,,,,,,,,,,97,11.0,f,030_o_f_h_a.jpg,happy,d,3,1,308.20299750000004,308.49900457,308.702719,308.72925247,308.7298181,308.76672056999996,308.7667116,309.33384307000006,d,1,0.5523629999999002,552.3629999999002,308.7667116,309.33384307000006,309.34027160000005,310.38238817,EMOCONPILOT024,2021_Feb_18_1020,EmoCon_Pilot_120Hz,2020.2.4,120.11146343806222,
,,,,0,0,0,0,98,0,98,0,,,,,,,,,,,,,,,,,,,,,,,,,,,,,,,,,,,,,,,,,,,,,,,98,12.0,f,040_y_f_n_a.jpg,neutral,s,3,1,310.38860910000005,310.68233957000007,310.9019025,310.92903417,310.93318510000006,310.97417277,310.9791484,311.72275817,s,1,0.7317927000000282,731.7927000000282,310.9791484,311.72275817,311.73557359999995,312.99914457,EMOCONPILOT024,2021_Feb_18_1020,EmoCon_Pilot_120Hz,2020.2.4,120.11146343806222,
,,,,0,0,0,0,99,0,99,0,,,,,,,,,,,,,,,,,,,,,,,,,,,,,,,,,,,,,,,,,,,,,,,99,12.0,f,040_y_f_s_a.jpg,sad,a,3,1,313.00332359999993,313.29901556999994,313.3156835,313.33788237,313.3387083,313.37526927,313.3768431000001,313.96459207,s,0,0.5742149000000154,574.2149000000154,313.3768431000001,313.96459207,313.97049100000004,315.59082766999995,EMOCONPILOT024,2021_Feb_18_1020,EmoCon_Pilot_120Hz,2020.2.4,120.11146343806222,
,,,,0,0,0,0,100,0,100,0,,,,,,,,,,,,,,,,,,,,,,,,,,,,,,,,,,,,,,,,,,,,,,,100,4.0,m,016_y_m_n_a.jpg,neutral,s,17,1,315.5960699,315.8908276699999,316.13170390000005,316.29029936999996,316.29512019999993,316.3365815699999,316.3416376,316.77000387,s,1,0.41742009999984475,417.42009999984475,316.3416376,316.77000387,316.7776474,318.1992008699999,EMOCONPILOT024,2021_Feb_18_1020,EmoCon_Pilot_120Hz,2020.2.4,120.11146343806222,
,,,,0,0,0,0,101,0,101,0,,,,,,,,,,,,,,,,,,,,,,,,,,,,,,,,,,,,,,,,,,,,,,,101,11.0,f,030_o_f_s_a.jpg,sad,a,3,1,318.20389090000003,318.4991994700001,318.6874170000001,318.71407597000007,318.7173808,318.75717547,318.762606,319.55668906999995,a,1,0.780635299999858,780.635299999858,318.762606,319.55668906999995,319.5679689000001,321.4825852700001,EMOCONPILOT024,2021_Feb_18_1020,EmoCon_Pilot_120Hz,2020.2.4,120.11146343806222,
,,,,0,0,0,0,102,0,102,0,,,,,,,,,,,,,,,,,,,,,,,,,,,,,,,,,,,,,,,,,,,,,,,102,3.0,m,013_y_m_h_a.jpg,happy,d,17,1,321.4858203000001,321.7826071700001,322.0241765999999,322.17369147,322.1743177999999,322.21110817,322.2115865999999,322.62242547000005,d,1,0.3954731000001175,395.4731000001175,322.2115865999999,322.62242547000005,322.6314726999999,323.76604696999993,EMOCONPILOT024,2021_Feb_18_1020,EmoCon_Pilot_120Hz,2020.2.4,120.11146343806222,
,,,,0,0,0,0,103,0,103,0,,,,,,,,,,,,,,,,,,,,,,,,,,,,,,,,,,,,,,,,,,,,,,,103,2.0,m,008_y_m_s_a.jpg,sad,a,3,1,323.7720783,324.06571407,324.29600460000006,324.3226897700001,324.32468459999996,324.3652137700001,324.3702423,325.0813331700001,a,1,0.7007504999999128,700.7504999999128,324.3702423,325.0813331700001,325.09108919999994,327.02445857,EMOCONPILOT024,2021_Feb_18_1020,EmoCon_Pilot_120Hz,2020.2.4,120.11146343806222,
,,,,0,0,0,0,104,0,104,0,,,,,,,,,,,,,,,,,,,,,,,,,,,,,,,,,,,,,,,,,,,,,,,104,11.0,f,030_o_f_s_a.jpg,sad,a,17,1,327.0301059000001,327.3244355700001,327.521489,327.6823161699999,327.68706569999995,327.72645577000003,327.7315314,328.27127096999993,a,1,0.5235637999999199,523.5637999999199,327.7315314,328.27127096999993,328.2826946,329.31608357000005,EMOCONPILOT024,2021_Feb_18_1020,EmoCon_Pilot_120Hz,2020.2.4,120.11146343806222,
,,,,0,0,0,0,105,0,105,0,,,,,,,,,,,,,,,,,,,,,,,,,,,,,,,,,,,,,,,,,,,,,,,105,4.0,m,016_y_m_h_a.jpg,happy,d,17,1,329.3204975000001,329.61610007000013,329.6394350999999,329.77594797000006,329.77911470000004,329.81730917000004,329.82014159999994,330.22569797000006,d,1,0.39480360000015935,394.80360000015935,329.82014159999994,330.22569797000006,330.2321552000001,331.38283436999996,EMOCONPILOT024,2021_Feb_18_1020,EmoCon_Pilot_120Hz,2020.2.4,120.11146343806222,
,,,,0,0,0,0,106,0,106,0,,,,,,,,,,,,,,,,,,,,,,,,,,,,,,,,,,,,,,,,,,,,,,,106,7.0,f,012_o_f_n_a.jpg,neutral,s,17,1,331.3858130000001,331.68278656999996,331.8959497999999,332.06505386999993,332.06971309999994,332.11046166999995,332.11571200000003,332.5419983700001,s,1,0.4192731000000549,419.2731000000549,332.11571200000003,332.5419983700001,332.5534554999999,333.85778217000006,EMOCONPILOT024,2021_Feb_18_1020,EmoCon_Pilot_120Hz,2020.2.4,120.11146343806222,
,,,,0,0,0,0,107,0,107,0,,,,,,,,,,,,,,,,,,,,,,,,,,,,,,,,,,,,,,,,,,,,,,,107,11.0,f,030_o_f_h_a.jpg,happy,d,17,1,333.85760849999997,334.1579083700001,334.3430115000001,334.50610157000006,334.50986979999993,334.5500183700001,334.5551531000001,334.91172886999993,d,1,0.3479514000000563,347.9514000000563,334.5551531000001,334.91172886999993,334.9220462999999,336.7745696700001,EMOCONPILOT024,2021_Feb_18_1020,EmoCon_Pilot_120Hz,2020.2.4,120.11146343806222,
,,,,0,0,0,0,108,0,108,0,,,,,,,,,,,,,,,,,,,,,,,,,,,,,,,,,,,,,,,,,,,,,,,108,1.0,m,004_o_m_s_a.jpg,sad,a,17,1,336.7765882000001,337.0745811700001,337.0988278,337.23441636999996,337.2374769999999,337.27575466999997,337.27873150000005,337.79153967,a,1,0.49629939999999806,496.29939999999806,337.27873150000005,337.79153967,337.7998230999999,339.24970256999995,EMOCONPILOT024,2021_Feb_18_1020,EmoCon_Pilot_120Hz,2020.2.4,120.11146343806222,
,,,,0,0,0,0,109,0,109,0,,,,,,,,,,,,,,,,,,,,,,,,,,,,,,,,,,,,,,,,,,,,,,,109,3.0,m,013_y_m_n_a.jpg,neutral,s,17,1,339.2555238,339.54969146999997,340.0326536,340.19155157,340.1962900000001,340.23612267,340.2413202,340.7326199700001,s,1,0.47755050000000665,477.55050000000665,340.2413202,340.7326199700001,340.7384984,342.34130037,EMOCONPILOT024,2021_Feb_18_1020,EmoCon_Pilot_120Hz,2020.2.4,120.11146343806222,
,,,,0,0,0,0,110,0,110,0,,,,,,,,,,,,,,,,,,,,,,,,,,,,,,,,,,,,,,,,,,,,,,,110,10.0,f,028_y_f_s_a.jpg,sad,a,17,1,342.3452503000001,342.6414209700001,342.6650035,342.80149286999995,342.8057920000001,342.8468136700001,342.85208620000003,343.38239436999993,a,1,0.5150813000000198,515.0813000000198,342.85208620000003,343.38239436999993,343.3937592,345.23310317000005,EMOCONPILOT024,2021_Feb_18_1020,EmoCon_Pilot_120Hz,2020.2.4,120.11146343806222,
,,,,0,0,0,0,111,0,111,0,,,,,,,,,,,,,,,,,,,,,,,,,,,,,,,,,,,,,,,,,,,,,,,111,11.0,f,030_o_f_h_a.jpg,happy,d,17,1,345.23781170000007,345.53310267000006,345.74659539999993,345.9033146700001,345.90679479999994,345.94703017000006,345.9520642,346.3194956699999,d,1,0.3588173000000552,358.8173000000552,345.9520642,346.3194956699999,346.32663890000003,347.84141236999994,EMOCONPILOT024,2021_Feb_18_1020,EmoCon_Pilot_120Hz,2020.2.4,120.11146343806222,
,,,,0,0,0,0,112,0,112,0,,,,,,,,,,,,,,,,,,,,,,,,,,,,,,,,,,,,,,,,,,,,,,,112,7.0,f,012_o_f_n_a.jpg,neutral,s,17,1,347.8474424000001,348.14152087,348.36047600000006,348.52699267,348.531559,348.5722976700001,348.57747530000006,349.00965096999994,s,1,0.42146630000002006,421.46630000002006,348.57747530000006,349.00965096999994,349.01801950000004,350.62482957,EMOCONPILOT024,2021_Feb_18_1020,EmoCon_Pilot_120Hz,2020.2.4,120.11146343806222,
,,,,0,0,0,0,113,0,113,0,,,,,,,,,,,,,,,,,,,,,,,,,,,,,,,,,,,,,,,,,,,,,,,113,2.0,m,008_y_m_s_a.jpg,sad,a,17,1,350.62818259999995,350.92485717,351.15164849999996,351.30678637000005,351.3102423,351.34731237000005,351.35020209999993,351.73343047000003,a,1,0.36868319999985033,368.68319999985033,351.35020209999993,351.73343047000003,351.73655499999995,352.8331724699999,EMOCONPILOT024,2021_Feb_18_1020,EmoCon_Pilot_120Hz,2020.2.4,120.11146343806222,
,,,,0,0,0,0,114,0,114,0,,,,,,,,,,,,,,,,,,,,,,,,,,,,,,,,,,,,,,,,,,,,,,,114,11.0,f,030_o_f_h_a.jpg,happy,d,17,1,352.83633540000005,353.13303967,353.3217050999999,353.48410457,353.48871929999996,353.52929487000006,353.53463009999996,353.79902567,d,1,0.25661840000020675,256.61840000020675,353.53463009999996,353.79902567,353.81079879999993,355.03326246999995,EMOCONPILOT024,2021_Feb_18_1020,EmoCon_Pilot_120Hz,2020.2.4,120.11146343806222,
,,,,0,0,0,0,115,0,115,0,,,,,,,,,,,,,,,,,,,,,,,,,,,,,,,,,,,,,,,,,,,,,,,115,3.0,m,013_y_m_h_a.jpg,happy,d,17,1,355.03943720000007,355.33334627,355.5690178,355.7174145700001,355.7208997,355.7606597700001,355.7659916,356.24146997,d,1,0.4648810000001049,464.8810000001049,355.7659916,356.24146997,356.2495993,357.57505567,EMOCONPILOT024,2021_Feb_18_1020,EmoCon_Pilot_120Hz,2020.2.4,120.11146343806222,
,,,,0,0,0,0,116,0,116,0,,,,,,,,,,,,,,,,,,,,,,,,,,,,,,,,,,,,,,,,,,,,,,,116,2.0,m,008_y_m_s_a.jpg,sad,a,17,1,357.5778657999999,357.8749965700001,358.1087494000001,358.26615767,358.27061260000005,358.30873887000007,358.31446619999997,359.01354676999995,a,1,0.6844939999998587,684.4939999998587,358.31446619999997,359.01354676999995,359.0250389,360.0666571700001,EMOCONPILOT024,2021_Feb_18_1020,EmoCon_Pilot_120Hz,2020.2.4,120.11146343806222,
,,,,0,0,0,0,117,0,117,0,,,,,,,,,,,,,,,,,,,,,,,,,,,,,,,,,,,,,,,,,,,,,,,117,3.0,m,013_y_m_n_a.jpg,neutral,s,17,1,360.07070210000006,360.3667841700001,360.60461280000004,360.77345906999994,360.77843630000007,360.81924617000004,360.8242355,361.2529246700001,s,1,0.4147428999999647,414.7428999999647,360.8242355,361.2529246700001,361.2641704,362.90015707,EMOCONPILOT024,2021_Feb_18_1020,EmoCon_Pilot_120Hz,2020.2.4,120.11146343806222,
,,,,0,0,0,0,118,0,118,0,,,,,,,,,,,,,,,,,,,,,,,,,,,,,,,,,,,,,,,,,,,,,,,118,6.0,m,033_o_m_n_a.jpg,neutral,s,17,1,362.9042981,363.20015336999995,363.40641690000007,363.56815297,363.57256110000003,363.61049346999994,363.6138370000001,364.0820161700001,s,1,0.45719370000006165,457.19370000006165,363.6138370000001,364.0820161700001,364.09152229999995,365.97523896999996,EMOCONPILOT024,2021_Feb_18_1020,EmoCon_Pilot_120Hz,2020.2.4,120.11146343806222,
,,,,0,0,0,0,119,0,119,0,,,,,,,,,,,,,,,,,,,,,,,,,,,,,,,,,,,,,,,,,,,,,,,119,6.0,m,033_o_m_n_a.jpg,neutral,s,17,1,365.9806054999999,366.27522526999996,366.4791348000001,366.64035167,366.64421960000004,366.6843775699999,366.68945759999997,367.0345364699999,s,1,0.33346899999992274,333.46899999992274,366.68945759999997,367.0345364699999,367.04775859999995,368.1168297700001,EMOCONPILOT024,2021_Feb_18_1020,EmoCon_Pilot_120Hz,2020.2.4,120.11146343806222,
,,,,1,0,1,0,0,0,0,0,,,,,,,,,,,,,,,,,,,,,,,,,,,,,,,,,,,,,,,,368.2079536000001,369.05437097000004,s,0.830866899999819,830.866899999819,368.2079536000001,369.05437097000004,0,1.0,m,004_o_m_s_a.jpg,sad,a,2,2,369.0621028999999,369.35026427,369.37652060000005,369.39200177,369.3922763999999,369.42794957,369.4289939,370.2179861699999,s,0,0.7777538000000277,777.7538000000277,369.4289939,370.2179861699999,370.22109539999997,372.08359767,EMOCONPILOT024,2021_Feb_18_1020,EmoCon_Pilot_120Hz,2020.2.4,120.11146343806222,
,,,,1,0,1,0,1,0,1,0,,,,,,,,,,,,,,,,,,,,,,,,,,,,,,,,,,,,,,,,,,,,,,,1,9.0,f,021_o_f_n_a.jpg,neutral,s,2,2,372.09081459999993,372.38366907,372.6022124000001,372.6195747700001,372.6203743000001,372.65914157,372.66438629999993,373.4101128699999,s,1,0.7343779000000268,734.3779000000268,372.66438629999993,373.4101128699999,373.4151240000001,374.9586249700001,EMOCONPILOT024,2021_Feb_18_1020,EmoCon_Pilot_120Hz,2020.2.4,120.11146343806222,
,,,,1,0,1,0,2,0,2,0,,,,,,,,,,,,,,,,,,,,,,,,,,,,,,,,,,,,,,,,,,,,,,,2,11.0,f,030_o_f_s_a.jpg,sad,a,17,2,374.96357420000004,375.25870497000005,375.45614709999995,375.6256047700001,375.6303092999999,375.66944807000004,375.67480709999995,376.39238247000003,a,1,0.7079877999999553,707.9877999999553,375.67480709999995,376.39238247000003,376.3959132,378.09196417,EMOCONPILOT024,2021_Feb_18_1020,EmoCon_Pilot_120Hz,2020.2.4,120.11146343806222,
,,,,1,0,1,0,3,0,3,0,,,,,,,,,,,,,,,,,,,,,,,,,,,,,,,,,,,,,,,,,,,,,,,3,10.0,f,028_y_f_s_a.jpg,sad,a,17,2,378.09227869999995,378.39208117,378.41626569999994,378.5519364700001,378.55533420000006,378.59352336999996,378.59631119999995,379.34899326999994,a,1,0.7385695999998916,738.5695999998916,378.59631119999995,379.34899326999994,379.3583650999999,380.74196787000005,EMOCONPILOT024,2021_Feb_18_1020,EmoCon_Pilot_120Hz,2020.2.4,120.11146343806222,
,,,,1,0,1,0,4,0,4,0,,,,,,,,,,,,,,,,,,,,,,,,,,,,,,,,,,,,,,,,,,,,,,,4,6.0,m,033_o_m_n_a.jpg,neutral,s,2,2,380.7448873000001,381.04206797000006,381.2492595000001,381.26640797000005,381.2666226000001,381.3030038700001,381.3027053999999,382.11949757,a,0,0.8082094000001234,808.2094000001234,381.3027053999999,382.11949757,382.1286316999999,383.45044377,EMOCONPILOT024,2021_Feb_18_1020,EmoCon_Pilot_120Hz,2020.2.4,120.11146343806222,
,,,,1,0,1,0,5,0,5,0,,,,,,,,,,,,,,,,,,,,,,,,,,,,,,,,,,,,,,,,,,,,,,,5,1.0,m,004_o_m_n_a.jpg,neutral,s,2,2,383.4534288,383.75035507000007,383.9511279999999,383.96854286999996,383.9693641000001,384.00586466999994,384.0057964,384.5946803700001,s,1,0.5771294000001035,577.1294000001035,384.0057964,384.5946803700001,384.6063151999999,385.8089424699999,EMOCONPILOT024,2021_Feb_18_1020,EmoCon_Pilot_120Hz,2020.2.4,120.11146343806222,
,,,,1,0,1,0,6,0,6,0,,,,,,,,,,,,,,,,,,,,,,,,,,,,,,,,,,,,,,,,,,,,,,,6,12.0,f,040_y_f_s_a.jpg,sad,a,2,2,385.81561809999994,386.1088355700001,386.13071779999996,386.14597067,386.1470790999999,386.1850590700001,386.1864604,386.7756089700001,s,0,0.5725958000000446,572.5958000000446,386.1864604,386.7756089700001,386.7853534999999,388.2505250700001,EMOCONPILOT024,2021_Feb_18_1020,EmoCon_Pilot_120Hz,2020.2.4,120.11146343806222,
,,,,1,0,1,0,7,0,7,0,,,,,,,,,,,,,,,,,,,,,,,,,,,,,,,,,,,,,,,,,,,,,,,7,9.0,f,021_o_f_n_a.jpg,neutral,s,2,2,388.2547363000001,388.5506013700001,388.7645835000001,388.78140686999996,388.7819488,388.81850256999996,388.8183855,389.81659827,s,1,0.9885094999999637,988.5094999999637,388.8183855,389.81659827,389.8260702,390.88380437,EMOCONPILOT024,2021_Feb_18_1020,EmoCon_Pilot_120Hz,2020.2.4,120.11146343806222,
,,,,1,0,1,0,8,0,8,0,,,,,,,,,,,,,,,,,,,,,,,,,,,,,,,,,,,,,,,,,,,,,,,8,9.0,f,021_o_f_s_a.jpg,sad,a,17,2,390.8878129,391.18401267000013,391.2061913,391.34393097,391.3473659000001,391.38510827000005,391.38857699999994,392.06857087000003,a,1,0.6662526000000071,666.2526000000071,391.38857699999994,392.06857087000003,392.07797559999995,393.5006463699999,EMOCONPILOT024,2021_Feb_18_1020,EmoCon_Pilot_120Hz,2020.2.4,120.11146343806222,
,,,,1,0,1,0,9,0,9,0,,,,,,,,,,,,,,,,,,,,,,,,,,,,,,,,,,,,,,,,,,,,,,,9,4.0,m,016_y_m_s_a.jpg,sad,a,17,2,393.5051813,393.8006088699999,393.82260139999994,393.96100717000013,393.9648359,394.0053856700001,394.00970370000005,394.4880990700001,a,1,0.4692680000000564,469.2680000000564,394.00970370000005,394.4880990700001,394.4966055,395.75065477,EMOCONPILOT024,2021_Feb_18_1020,EmoCon_Pilot_120Hz,2020.2.4,120.11146343806222,
,,,,1,0,1,0,10,0,10,0,,,,,,,,,,,,,,,,,,,,,,,,,,,,,,,,,,,,,,,,,,,,,,,10,7.0,f,012_o_f_n_a.jpg,neutral,s,2,2,395.75385430000006,396.0506993700001,396.2726683000001,396.2891149700001,396.2892448,396.32688127000006,396.3268307999999,397.00615567,s,1,0.6720153000001119,672.0153000001119,396.3268307999999,397.00615567,397.0115553999999,398.21741307,EMOCONPILOT024,2021_Feb_18_1020,EmoCon_Pilot_120Hz,2020.2.4,120.11146343806222,
,,,,1,0,1,0,11,0,11,0,,,,,,,,,,,,,,,,,,,,,,,,,,,,,,,,,,,,,,,,,,,,,,,11,2.0,m,008_y_m_n_a.jpg,neutral,s,2,2,398.2216705000001,398.5175012699999,398.7557922000001,398.7723394699999,398.77515700000004,398.81198677,398.81522010000003,399.33564647000003,s,1,0.5038772000000336,503.87720000003355,398.81522010000003,399.33564647000003,399.34315719999995,400.72590706999995,EMOCONPILOT024,2021_Feb_18_1020,EmoCon_Pilot_120Hz,2020.2.4,120.11146343806222,
,,,,1,0,1,0,12,0,12,0,,,,,,,,,,,,,,,,,,,,,,,,,,,,,,,,,,,,,,,,,,,,,,,12,1.0,m,004_o_m_s_a.jpg,sad,a,2,2,400.7315046000001,401.0259196700001,401.0424636,401.05744697,401.05825000000004,401.0935897700001,401.0938719999999,401.71525066999993,s,0,0.6090618000000632,609.0618000000632,401.0938719999999,401.71525066999993,401.7237043,403.55929487000003,EMOCONPILOT024,2021_Feb_18_1020,EmoCon_Pilot_120Hz,2020.2.4,120.11146343806222,
,,,,1,0,1,0,13,0,13,0,,,,,,,,,,,,,,,,,,,,,,,,,,,,,,,,,,,,,,,,,,,,,,,13,7.0,f,012_o_f_h_a.jpg,happy,d,17,2,403.5650805,403.8591946700001,403.8815884999999,404.01918587,404.0226717999999,404.06138996999994,404.0653149,405.14618687000007,d,1,1.0696040999998786,1069.6040999998786,404.0653149,405.14618687000007,405.1569211000001,406.26761826999996,EMOCONPILOT024,2021_Feb_18_1020,EmoCon_Pilot_120Hz,2020.2.4,120.11146343806222,
,,,,1,0,1,0,14,0,14,0,,,,,,,,,,,,,,,,,,,,,,,,,,,,,,,,,,,,,,,,,,,,,,,14,3.0,m,013_y_m_h_a.jpg,happy,d,2,2,406.27175050000005,406.56752516999995,406.82473830000004,406.8412930700001,406.8418504000001,406.87716997000007,406.8769385999999,408.0261882699999,s,0,1.1379271999999219,1137.9271999999219,406.8769385999999,408.0261882699999,408.0347577,409.1010654700001,EMOCONPILOT024,2021_Feb_18_1020,EmoCon_Pilot_120Hz,2020.2.4,120.11146343806222,
,,,,1,0,1,0,15,0,15,0,,,,,,,,,,,,,,,,,,,,,,,,,,,,,,,,,,,,,,,,,,,,,,,15,11.0,f,030_o_f_n_a.jpg,neutral,s,2,2,409.1064994000001,409.40098377000004,409.6039842,409.62140436999994,409.62264460000006,409.66056677000006,409.6616597,410.2556797699999,s,1,0.585171199999877,585.171199999877,409.6616597,410.2556797699999,410.2642720000001,411.87612947,EMOCONPILOT024,2021_Feb_18_1020,EmoCon_Pilot_120Hz,2020.2.4,120.11146343806222,
,,,,1,0,1,0,16,0,16,0,,,,,,,,,,,,,,,,,,,,,,,,,,,,,,,,,,,,,,,,,,,,,,,16,3.0,m,013_y_m_n_a.jpg,neutral,s,2,2,411.8818857000001,412.17613407,412.4100043000001,412.4273391700001,412.42756639999993,412.46406776999993,412.4643836,413.52677827,s,1,1.054542999999967,1054.542999999967,412.4643836,413.52677827,413.5356495000001,414.81774567,EMOCONPILOT024,2021_Feb_18_1020,EmoCon_Pilot_120Hz,2020.2.4,120.11146343806222,
,,,,1,0,1,0,17,0,17,0,,,,,,,,,,,,,,,,,,,,,,,,,,,,,,,,,,,,,,,,,,,,,,,17,9.0,f,021_o_f_h_a.jpg,happy,d,17,2,414.8232511000001,415.1178492700001,415.33488009999996,415.5052300699999,415.5101003,415.5508232699999,415.55495829999995,416.0235836700001,d,1,0.46012649999988753,460.1264999998875,415.55495829999995,416.0235836700001,416.035629,418.02620507000006,EMOCONPILOT024,2021_Feb_18_1020,EmoCon_Pilot_120Hz,2020.2.4,120.11146343806222,
,,,,1,0,1,0,18,0,18,0,,,,,,,,,,,,,,,,,,,,,,,,,,,,,,,,,,,,,,,,,,,,,,,18,3.0,m,013_y_m_s_a.jpg,sad,a,17,2,418.0306882,418.3262143700001,418.3441617000001,418.47779227,418.4807576999999,418.51952286999995,418.5236732000001,419.3691356700001,a,1,0.8352176000000782,835.2176000000782,418.5236732000001,419.3691356700001,419.3768978999999,420.69292217,EMOCONPILOT024,2021_Feb_18_1020,EmoCon_Pilot_120Hz,2020.2.4,120.11146343806222,
,,,,1,0,1,0,19,0,19,0,,,,,,,,,,,,,,,,,,,,,,,,,,,,,,,,,,,,,,,,,,,,,,,19,10.0,f,028_y_f_h_a.jpg,happy,d,2,2,420.6972925,420.99283646999993,421.01711090000003,421.03218777000006,421.0330225,421.06945027000006,421.07087580000007,422.02827587,d,1,0.9440296000000217,944.0296000000217,421.07087580000007,422.02827587,422.0350840000001,423.70957387,EMOCONPILOT024,2021_Feb_18_1020,EmoCon_Pilot_120Hz,2020.2.4,120.11146343806222,
,,,,1,0,1,0,20,0,20,0,,,,,,,,,,,,,,,,,,,,,,,,,,,,,,,,,,,,,,,,,,,,,,,20,4.0,m,016_y_m_h_a.jpg,happy,d,2,2,423.7138176000001,424.00966616999995,424.0310735999999,424.0459574700001,424.0467129000001,424.08590557,424.0859521,424.74689427,d,1,0.6488597000000027,648.8597000000027,424.0859521,424.74689427,424.7543376000001,425.7846195699999,EMOCONPILOT024,2021_Feb_18_1020,EmoCon_Pilot_120Hz,2020.2.4,120.11146343806222,
,,,,1,0,1,0,21,0,21,0,,,,,,,,,,,,,,,,,,,,,,,,,,,,,,,,,,,,,,,,,,,,,,,21,6.0,m,033_o_m_h_a.jpg,happy,d,2,2,425.7873439,426.0845123700001,426.1058711999999,426.12125547000005,426.12187229999995,426.1583704699999,426.1588812,426.9928584700001,d,1,0.8241540000001351,824.154000000135,426.1588812,426.9928584700001,427.0056284,428.43466197,EMOCONPILOT024,2021_Feb_18_1020,EmoCon_Pilot_120Hz,2020.2.4,120.11146343806222,
,,,,1,0,1,0,22,0,22,0,,,,,,,,,,,,,,,,,,,,,,,,,,,,,,,,,,,,,,,,,,,,,,,22,5.0,m,027_o_m_s_a.jpg,sad,a,17,2,428.43775230000006,428.73474057,428.75594980000005,428.88677807,428.8902716,428.93026626999995,428.9356868,429.52698026999997,a,1,0.5835196999998971,583.519699999897,428.9356868,429.52698026999997,429.53963410000006,431.1431664700001,EMOCONPILOT024,2021_Feb_18_1020,EmoCon_Pilot_120Hz,2020.2.4,120.11146343806222,
,,,,1,0,1,0,23,0,23,0,,,,,,,,,,,,,,,,,,,,,,,,,,,,,,,,,,,,,,,,,,,,,,,23,10.0,f,028_y_f_n_a.jpg,neutral,s,2,2,431.14858449999997,431.44316776999995,431.66974260000006,431.68795967000005,431.6909316000001,431.72866187,431.7317929999999,432.39866187000007,s,1,0.6588973000000351,658.8973000000351,431.7317929999999,432.39866187000007,432.4041277000001,433.85153797,EMOCONPILOT024,2021_Feb_18_1020,EmoCon_Pilot_120Hz,2020.2.4,120.11146343806222,
,,,,1,0,1,0,24,0,24,0,,,,,,,,,,,,,,,,,,,,,,,,,,,,,,,,,,,,,,,,,,,,,,,24,9.0,f,021_o_f_n_a.jpg,neutral,s,17,2,433.85454200000004,434.15147617,434.3619550000001,434.5246215699999,434.52945980000004,434.56826527,434.57246710000004,434.94892576999996,s,1,0.3624029000000064,362.4029000000064,434.57246710000004,434.94892576999996,434.96127049999996,436.4015020700001,EMOCONPILOT024,2021_Feb_18_1020,EmoCon_Pilot_120Hz,2020.2.4,120.11146343806222,
,,,,1,0,1,0,25,0,25,0,,,,,,,,,,,,,,,,,,,,,,,,,,,,,,,,,,,,,,,,,,,,,,,25,8.0,f,019_m_f_h_a.jpg,happy,d,17,2,436.40448779999997,436.70159657,436.7274096000001,436.86151657000005,436.86500120000005,436.9057738700001,436.91063469999995,437.38880186999995,d,1,0.4640583999998853,464.0583999998853,436.91063469999995,437.38880186999995,437.39021419999995,439.3849822699999,EMOCONPILOT024,2021_Feb_18_1020,EmoCon_Pilot_120Hz,2020.2.4,120.11146343806222,
,,,,1,0,1,0,26,0,26,0,,,,,,,,,,,,,,,,,,,,,,,,,,,,,,,,,,,,,,,,,,,,,,,26,4.0,m,016_y_m_n_a.jpg,neutral,s,17,2,439.3894427,439.68490986999996,439.9437711999999,440.1007616700001,440.1057544,440.14587207,440.1507283000001,440.54575896999995,s,1,0.3840477999999621,384.0477999999621,440.1507283000001,440.54575896999995,440.55219650000004,441.6683417700001,EMOCONPILOT024,2021_Feb_18_1020,EmoCon_Pilot_120Hz,2020.2.4,120.11146343806222,
,,,,1,0,1,0,27,0,27,0,,,,,,,,,,,,,,,,,,,,,,,,,,,,,,,,,,,,,,,,,,,,,,,27,1.0,m,004_o_m_h_a.jpg,happy,d,2,2,441.6715884,441.9681463700001,442.1668818999999,442.1831484700001,442.1834328,442.2194845700001,442.2211121,442.74083386999996,s,0,0.5057939000000715,505.7939000000715,442.2211121,442.74083386999996,442.7482408999999,444.7016626699999,EMOCONPILOT024,2021_Feb_18_1020,EmoCon_Pilot_120Hz,2020.2.4,120.11146343806222,
,,,,1,0,1,0,28,0,28,0,,,,,,,,,,,,,,,,,,,,,,,,,,,,,,,,,,,,,,,,,,,,,,,28,10.0,f,028_y_f_s_a.jpg,sad,a,2,2,444.7069041,445.00176626999996,445.0227523000001,445.03863436999995,445.03887800000007,445.07433337,445.0740399000001,445.6407339699999,s,0,0.5567149000000882,556.7149000000882,445.0740399000001,445.6407339699999,445.6484269,447.5434744700001,EMOCONPILOT024,2021_Feb_18_1020,EmoCon_Pilot_120Hz,2020.2.4,120.11146343806222,
,,,,1,0,1,0,29,0,29,0,,,,,,,,,,,,,,,,,,,,,,,,,,,,,,,,,,,,,,,,,,,,,,,29,5.0,m,027_o_m_h_a.jpg,happy,d,2,2,447.5499930000001,447.84339367000007,448.0523424999999,448.06935357,448.0697574999999,448.10613106999995,448.10561269999994,448.7653306699999,s,0,0.6453294999998889,645.3294999998889,448.10561269999994,448.7653306699999,448.7746179999999,449.79343087000007,EMOCONPILOT024,2021_Feb_18_1020,EmoCon_Pilot_120Hz,2020.2.4,120.11146343806222,
,,,,1,0,1,0,30,0,30,0,,,,,,,,,,,,,,,,,,,,,,,,,,,,,,,,,,,,,,,,,,,,,,,30,10.0,f,028_y_f_h_a.jpg,happy,d,17,2,449.7994996,450.0934817699999,450.1194002,450.2534262700001,450.2566908000001,450.29458187,450.2975151999999,450.72038767000004,d,1,0.41328950000001896,413.28950000001896,450.2975151999999,450.72038767000004,450.7294064,451.94352787,EMOCONPILOT024,2021_Feb_18_1020,EmoCon_Pilot_120Hz,2020.2.4,120.11146343806222,
,,,,1,0,1,0,31,0,31,0,,,,,,,,,,,,,,,,,,,,,,,,,,,,,,,,,,,,,,,,,,,,,,,31,5.0,m,027_o_m_h_a.jpg,happy,d,2,2,451.94802159999995,452.2435526700001,452.45515019999993,452.4723321700001,452.47304340000005,452.5090658700001,452.50893659999997,453.06254227,s,0,0.5379385999999613,537.9385999999613,452.50893659999997,453.06254227,453.07071640000004,454.1852528700001,EMOCONPILOT024,2021_Feb_18_1020,EmoCon_Pilot_120Hz,2020.2.4,120.11146343806222,
,,,,1,0,1,0,32,0,32,0,,,,,,,,,,,,,,,,,,,,,,,,,,,,,,,,,,,,,,,,,,,,,,,32,9.0,f,021_o_f_n_a.jpg,neutral,s,2,2,454.1906973,454.48523987,454.69319999999993,454.71046527,454.71135260000005,454.74767187,454.7480946999999,455.2279351699999,s,1,0.46665090000010423,466.65090000010423,454.7480946999999,455.2279351699999,455.2358137000001,456.48530056999994,EMOCONPILOT024,2021_Feb_18_1020,EmoCon_Pilot_120Hz,2020.2.4,120.11146343806222,
,,,,1,0,1,0,33,0,33,0,,,,,,,,,,,,,,,,,,,,,,,,,,,,,,,,,,,,,,,,,,,,,,,33,3.0,m,013_y_m_s_a.jpg,sad,a,17,2,456.4903440999999,456.7853071700001,456.8115439999999,456.94518386999994,456.9482267000001,456.9872174699999,456.99118569999996,457.64960767,a,1,0.6476053999999749,647.6053999999749,456.99118569999996,457.64960767,457.6598646,459.2353225700001,EMOCONPILOT024,2021_Feb_18_1020,EmoCon_Pilot_120Hz,2020.2.4,120.11146343806222,
,,,,1,0,1,0,34,0,34,0,,,,,,,,,,,,,,,,,,,,,,,,,,,,,,,,,,,,,,,,,,,,,,,34,1.0,m,004_o_m_n_a.jpg,neutral,s,17,2,459.2415398999999,459.5353839700001,459.7311939000001,459.88874517,459.89312859999995,459.9339415700001,459.9387931000001,460.63571817,a,0,0.6838412999998127,683.8412999998127,459.9387931000001,460.63571817,460.6417229000001,462.58534287,EMOCONPILOT024,2021_Feb_18_1020,EmoCon_Pilot_120Hz,2020.2.4,120.11146343806222,
,,,,1,0,1,0,35,0,35,0,,,,,,,,,,,,,,,,,,,,,,,,,,,,,,,,,,,,,,,,,,,,,,,35,12.0,f,040_y_f_h_a.jpg,happy,d,2,2,462.5883142,462.88533957000004,462.9087514,462.9239572700001,462.9257496,462.96145507000006,462.9613300000001,463.53449527,s,0,0.5655936000000565,565.5936000000565,462.9613300000001,463.53449527,463.5420067,465.4353869700001,EMOCONPILOT024,2021_Feb_18_1020,EmoCon_Pilot_120Hz,2020.2.4,120.11146343806222,
,,,,1,0,1,0,36,0,36,0,,,,,,,,,,,,,,,,,,,,,,,,,,,,,,,,,,,,,,,,,,,,,,,36,10.0,f,028_y_f_n_a.jpg,neutral,s,17,2,465.44046950000006,465.73547267000004,465.9728941999999,466.13058937000005,466.1352455000001,466.1741043700001,466.1785705,466.62468476999993,s,1,0.4362245000002076,436.2245000002076,466.1785705,466.62468476999993,466.6371692,468.0354968700001,EMOCONPILOT024,2021_Feb_18_1020,EmoCon_Pilot_120Hz,2020.2.4,120.11146343806222,
,,,,1,0,1,0,37,0,37,0,,,,,,,,,,,,,,,,,,,,,,,,,,,,,,,,,,,,,,,,,,,,,,,37,11.0,f,030_o_f_n_a.jpg,neutral,s,2,2,468.04165009999997,468.33550857,468.5399136000001,468.55740627,468.55774599999995,468.59501987,468.5950814,469.31103177,s,1,0.7076313999998547,707.6313999998547,468.5950814,469.31103177,469.3195880999999,471.0521161700001,EMOCONPILOT024,2021_Feb_18_1020,EmoCon_Pilot_120Hz,2020.2.4,120.11146343806222,
,,,,1,0,1,0,38,0,38,0,,,,,,,,,,,,,,,,,,,,,,,,,,,,,,,,,,,,,,,,,,,,,,,38,1.0,m,004_o_m_h_a.jpg,happy,d,17,2,471.0561063,471.35215517000006,471.5590688,471.71844317,471.72133299999996,471.76006837,471.7632808000001,472.20893877000003,d,1,0.4354647999998633,435.4647999998633,471.7632808000001,472.20893877000003,472.2145737999999,474.09398656999997,EMOCONPILOT024,2021_Feb_18_1020,EmoCon_Pilot_120Hz,2020.2.4,120.11146343806222,
,,,,1,0,1,0,39,0,39,0,,,,,,,,,,,,,,,,,,,,,,,,,,,,,,,,,,,,,,,,,,,,,,,39,6.0,m,033_o_m_h_a.jpg,happy,d,2,2,474.1001779999999,474.39390776999994,474.41653700000006,474.4315453700001,474.4318102,474.46992436999994,474.4713574,475.2099193700001,s,0,0.7274611999998797,727.4611999998797,474.4713574,475.2099193700001,475.2189535,476.8356540699999,EMOCONPILOT024,2021_Feb_18_1020,EmoCon_Pilot_120Hz,2020.2.4,120.11146343806222,
,,,,1,0,1,0,40,0,40,0,,,,,,,,,,,,,,,,,,,,,,,,,,,,,,,,,,,,,,,,,,,,,,,40,7.0,f,012_o_f_h_a.jpg,happy,d,17,2,476.8409343000001,477.1357171699999,477.1578571,477.2959649700001,477.30034950000004,477.34127796999996,477.34482090000006,477.79215137000006,d,1,0.4380095999999867,438.0095999999867,477.34482090000006,477.79215137000006,477.7994355999999,479.1107407700001,EMOCONPILOT024,2021_Feb_18_1020,EmoCon_Pilot_120Hz,2020.2.4,120.11146343806222,
,,,,1,0,1,0,41,0,41,0,,,,,,,,,,,,,,,,,,,,,,,,,,,,,,,,,,,,,,,,,,,,,,,41,6.0,m,033_o_m_n_a.jpg,neutral,s,17,2,479.1174076,479.41066647,479.6262813000001,479.78721556999994,479.79159329999993,479.83229467,479.8372440999999,480.2339080700001,s,1,0.3857163000000128,385.7163000000128,479.8372440999999,480.2339080700001,480.2454984000001,482.06077697,EMOCONPILOT024,2021_Feb_18_1020,EmoCon_Pilot_120Hz,2020.2.4,120.11146343806222,
,,,,1,0,1,0,42,0,42,0,,,,,,,,,,,,,,,,,,,,,,,,,,,,,,,,,,,,,,,,,,,,,,,42,7.0,f,012_o_f_h_a.jpg,happy,d,17,2,482.0649344000001,482.36080917000004,482.3856066000001,482.5207819699999,482.52253829999995,482.5620895700001,482.56401619999997,482.91694807,d,1,0.3389893999999458,338.9893999999458,482.56401619999997,482.91694807,482.9273516999999,484.63587807,EMOCONPILOT024,2021_Feb_18_1020,EmoCon_Pilot_120Hz,2020.2.4,120.11146343806222,
,,,,1,0,1,0,43,0,43,0,,,,,,,,,,,,,,,,,,,,,,,,,,,,,,,,,,,,,,,,,,,,,,,43,5.0,m,027_o_m_h_a.jpg,happy,d,17,2,484.64072699999997,484.93585377,485.15304790000005,485.3119467700001,485.31604749999997,485.3539560700001,485.3589959000001,485.7449516700001,d,1,0.3759359000000586,375.9359000000586,485.3589959000001,485.7449516700001,485.7567157000001,487.1192184700001,EMOCONPILOT024,2021_Feb_18_1020,EmoCon_Pilot_120Hz,2020.2.4,120.11146343806222,
,,,,1,0,1,0,44,0,44,0,,,,,,,,,,,,,,,,,,,,,,,,,,,,,,,,,,,,,,,,,,,,,,,44,10.0,f,028_y_f_s_a.jpg,sad,a,17,2,487.1234127,487.41921346999993,487.44519289999994,487.58322677,487.585783,487.62305306999997,487.6247747,488.17292986999996,a,1,0.5339443999998821,533.9443999998821,487.6247747,488.17292986999996,488.17794920000006,489.62757996999994,EMOCONPILOT024,2021_Feb_18_1020,EmoCon_Pilot_120Hz,2020.2.4,120.11146343806222,
,,,,1,0,1,0,45,0,45,0,,,,,,,,,,,,,,,,,,,,,,,,,,,,,,,,,,,,,,,,,,,,,,,45,7.0,f,012_o_f_n_a.jpg,neutral,s,2,2,489.63289340000006,489.92752367,490.1475310000001,490.1651771700001,490.1655928,490.20255767000003,490.2027217,490.7284341700001,s,1,0.5160216000001583,516.0216000001583,490.2027217,490.7284341700001,490.7358220000001,492.7193616700001,EMOCONPILOT024,2021_Feb_18_1020,EmoCon_Pilot_120Hz,2020.2.4,120.11146343806222,
,,,,1,0,1,0,46,0,46,0,,,,,,,,,,,,,,,,,,,,,,,,,,,,,,,,,,,,,,,,,,,,,,,46,1.0,m,004_o_m_n_a.jpg,neutral,s,2,2,492.7251884,493.0193794700001,493.20720929999993,493.22493916999997,493.2253492,493.26195147,493.26176409999994,493.80916406999995,s,1,0.5369670999998561,536.9670999998561,493.26176409999994,493.80916406999995,493.81583380000006,495.4693570700001,EMOCONPILOT024,2021_Feb_18_1020,EmoCon_Pilot_120Hz,2020.2.4,120.11146343806222,
,,,,1,0,1,0,47,0,47,0,,,,,,,,,,,,,,,,,,,,,,,,,,,,,,,,,,,,,,,,,,,,,,,47,9.0,f,021_o_f_h_a.jpg,happy,d,17,2,495.47452139999996,495.76934437,495.98732330000007,496.1574709700001,496.1616309000001,496.20265016999997,496.2077234000001,496.6506940700001,d,1,0.43090490000008685,430.90490000008685,496.2077234000001,496.6506940700001,496.65916070000003,497.8111187700001,EMOCONPILOT024,2021_Feb_18_1020,EmoCon_Pilot_120Hz,2020.2.4,120.11146343806222,
,,,,1,0,1,0,48,0,48,0,,,,,,,,,,,,,,,,,,,,,,,,,,,,,,,,,,,,,,,,,,,,,,,48,10.0,f,028_y_f_n_a.jpg,neutral,s,17,2,497.8170193000001,498.1110597700001,498.31345020000003,498.48141057,498.4852452,498.5262971699999,498.5311260000001,499.00039046999996,s,1,0.45964249999997264,459.64249999997264,498.5311260000001,499.00039046999996,499.0101849,500.4778055700001,EMOCONPILOT024,2021_Feb_18_1020,EmoCon_Pilot_120Hz,2020.2.4,120.11146343806222,
,,,,1,0,1,0,49,0,49,0,,,,,,,,,,,,,,,,,,,,,,,,,,,,,,,,,,,,,,,,,,,,,,,49,7.0,f,012_o_f_h_a.jpg,happy,d,2,2,500.4820652000001,500.7778059699999,500.8029816999999,500.81846616999997,500.8188104000001,500.85393617,500.85380869999995,501.3743696700001,d,1,0.5130235999999968,513.0235999999968,500.85380869999995,501.3743696700001,501.3862609,502.56955457000004,EMOCONPILOT024,2021_Feb_18_1020,EmoCon_Pilot_120Hz,2020.2.4,120.11146343806222,
,,,,1,0,1,0,50,0,50,0,,,,,,,,,,,,,,,,,,,,,,,,,,,,,,,,,,,,,,,,,,,,,,,50,5.0,m,027_o_m_h_a.jpg,happy,d,2,2,502.5753763,502.86956456999997,503.07108689999995,503.0879515700001,503.08888479999996,503.12383866999994,503.12381099999993,503.74988916999996,s,0,0.610989299999801,610.989299999801,503.12381099999993,503.74988916999996,503.75219289999995,505.63597987,EMOCONPILOT024,2021_Feb_18_1020,EmoCon_Pilot_120Hz,2020.2.4,120.11146343806222,
,,,,1,0,1,0,51,0,51,0,,,,,,,,,,,,,,,,,,,,,,,,,,,,,,,,,,,,,,,,,,,,,,,51,12.0,f,040_y_f_n_a.jpg,neutral,s,2,2,505.63662139999997,505.9362772700001,506.1596256,506.17618597,506.1765819,506.2131275700001,506.21335440000007,506.7731328699999,s,1,0.5453717999998844,545.3717999998844,506.21335440000007,506.7731328699999,506.77725039999996,508.6863021700001,EMOCONPILOT024,2021_Feb_18_1020,EmoCon_Pilot_120Hz,2020.2.4,120.11146343806222,
,,,,1,0,1,0,52,0,52,0,,,,,,,,,,,,,,,,,,,,,,,,,,,,,,,,,,,,,,,,,,,,,,,52,2.0,m,008_y_m_h_a.jpg,happy,d,2,2,508.6904422,508.98623427000007,509.0038013000001,509.0197638699999,509.0204853,509.0548356700001,509.0557532,509.5838293700001,s,0,0.5111412999999629,511.14129999996294,509.0557532,509.5838293700001,509.5954018,510.62779387,EMOCONPILOT024,2021_Feb_18_1020,EmoCon_Pilot_120Hz,2020.2.4,120.11146343806222,
,,,,1,0,1,0,53,0,53,0,,,,,,,,,,,,,,,,,,,,,,,,,,,,,,,,,,,,,,,,,,,,,,,53,6.0,m,033_o_m_h_a.jpg,happy,d,17,2,510.6282971999999,510.92804877000003,510.95035529999996,511.08803627,511.0922478,511.13063467000006,511.1357190000001,511.5131155700001,d,1,0.3671689999998762,367.1689999998762,511.1357190000001,511.5131155700001,511.5249117999999,513.37801517,EMOCONPILOT024,2021_Feb_18_1020,EmoCon_Pilot_120Hz,2020.2.4,120.11146343806222,
,,,,1,0,1,0,54,0,54,0,,,,,,,,,,,,,,,,,,,,,,,,,,,,,,,,,,,,,,,,,,,,,,,54,2.0,m,008_y_m_h_a.jpg,happy,d,2,2,513.3842173999999,513.6780050699999,513.7023409000001,513.71822277,513.7188159,513.75542247,513.7553845,514.3117470699999,d,1,0.5395817999999508,539.5817999999508,513.7553845,514.3117470699999,514.3230753,515.4363941700001,EMOCONPILOT024,2021_Feb_18_1020,EmoCon_Pilot_120Hz,2020.2.4,120.11146343806222,
,,,,1,0,1,0,55,0,55,0,,,,,,,,,,,,,,,,,,,,,,,,,,,,,,,,,,,,,,,,,,,,,,,55,12.0,f,040_y_f_h_a.jpg,happy,d,2,2,515.4404204,515.7363349699999,515.7629495000001,515.7783206700001,515.7800703,515.81746707,515.8192469999999,516.52378957,s,0,0.6916921999998067,691.6921999998067,515.8192469999999,516.52378957,516.5329730000001,518.18638087,EMOCONPILOT024,2021_Feb_18_1020,EmoCon_Pilot_120Hz,2020.2.4,120.11146343806222,
,,,,1,0,1,0,56,0,56,0,,,,,,,,,,,,,,,,,,,,,,,,,,,,,,,,,,,,,,,,,,,,,,,56,10.0,f,028_y_f_n_a.jpg,neutral,s,2,2,518.1895787000001,518.4863974699999,518.6997260999999,518.7160516700001,518.7191135999999,518.75870407,518.7618706999999,519.4544145699999,s,1,0.6850299000000177,685.0299000000177,518.7618706999999,519.4544145699999,519.4621973000001,521.2615425700001,EMOCONPILOT024,2021_Feb_18_1020,EmoCon_Pilot_120Hz,2020.2.4,120.11146343806222,
,,,,1,0,1,0,57,0,57,0,,,,,,,,,,,,,,,,,,,,,,,,,,,,,,,,,,,,,,,,,,,,,,,57,12.0,f,040_y_f_s_a.jpg,sad,a,2,2,521.2658598999999,521.56147947,521.5868365000001,521.60197567,521.6031438,521.6402847700001,521.6406228000001,522.2391799700001,s,0,0.5900250999998207,590.0250999998207,521.6406228000001,522.2391799700001,522.2425797000001,523.70317507,EMOCONPILOT024,2021_Feb_18_1020,EmoCon_Pilot_120Hz,2020.2.4,120.11146343806222,
,,,,1,0,1,0,58,0,58,0,,,,,,,,,,,,,,,,,,,,,,,,,,,,,,,,,,,,,,,,,,,,,,,58,5.0,m,027_o_m_n_a.jpg,neutral,s,17,2,523.7074365999999,524.0033039699999,524.2298390999999,524.3933028700001,524.3970397,524.4380012700001,524.443029,525.05283717,s,1,0.5957075999999688,595.7075999999688,524.443029,525.05283717,525.0644798000001,526.8366835700001,EMOCONPILOT024,2021_Feb_18_1020,EmoCon_Pilot_120Hz,2020.2.4,120.11146343806222,
,,,,1,0,1,0,59,0,59,0,,,,,,,,,,,,,,,,,,,,,,,,,,,,,,,,,,,,,,,,,,,,,,,59,4.0,m,016_y_m_s_a.jpg,sad,a,2,2,526.8398027999999,527.13662817,527.1537949000001,527.1691374700001,527.169521,527.20588447,527.2062149999999,527.89193537,s,0,0.6726184999999987,672.6184999999987,527.2062149999999,527.89193537,527.8992017,529.1033040699999,EMOCONPILOT024,2021_Feb_18_1020,EmoCon_Pilot_120Hz,2020.2.4,120.11146343806222,
,,,,1,0,1,0,60,0,60,0,,,,,,,,,,,,,,,,,,,,,,,,,,,,,,,,,,,,,,,,,,,,,,,60,5.0,m,027_o_m_n_a.jpg,neutral,s,17,2,529.1070377000001,529.40334927,529.6332322000001,529.7935518700001,529.7979025,529.8390808700001,529.8442008,530.3158660700001,s,1,0.4583981999999196,458.3981999999196,529.8442008,530.3158660700001,530.3218403000001,531.83656597,EMOCONPILOT024,2021_Feb_18_1020,EmoCon_Pilot_120Hz,2020.2.4,120.11146343806222,
,,,,1,0,1,0,61,0,61,0,,,,,,,,,,,,,,,,,,,,,,,,,,,,,,,,,,,,,,,,,,,,,,,61,10.0,f,028_y_f_s_a.jpg,sad,a,17,2,531.8371443999999,532.1367162700001,532.1598958,532.29668627,532.3004212999999,532.3380963700001,532.3412840000001,532.8947323699999,a,1,0.5375255999999808,537.5255999999808,532.3412840000001,532.8947323699999,532.9012075,533.96180497,EMOCONPILOT024,2021_Feb_18_1020,EmoCon_Pilot_120Hz,2020.2.4,120.11146343806222,
,,,,1,0,1,0,62,0,62,0,,,,,,,,,,,,,,,,,,,,,,,,,,,,,,,,,,,,,,,,,,,,,,,62,3.0,m,013_y_m_n_a.jpg,neutral,s,2,2,533.9678676999999,534.2617311700001,534.7647277000001,534.78190197,534.7821739999999,534.8186030700001,534.8183377,535.3830540700001,a,0,0.5563574000000244,556.3574000000244,534.8183377,535.3830540700001,535.3916389999999,537.12019577,EMOCONPILOT024,2021_Feb_18_1020,EmoCon_Pilot_120Hz,2020.2.4,120.11146343806222,
,,,,1,0,1,0,63,0,63,0,,,,,,,,,,,,,,,,,,,,,,,,,,,,,,,,,,,,,,,,,,,,,,,63,4.0,m,016_y_m_s_a.jpg,sad,a,17,2,537.1260187,537.4202025700001,537.4368371,537.57173917,537.5751831,537.6129592699999,537.6160292,538.06392127,a,1,0.43867199999999684,438.67199999999684,537.6160292,538.06392127,538.0722662000001,539.5201654699999,EMOCONPILOT024,2021_Feb_18_1020,EmoCon_Pilot_120Hz,2020.2.4,120.11146343806222,
,,,,1,0,1,0,64,0,64,0,,,,,,,,,,,,,,,,,,,,,,,,,,,,,,,,,,,,,,,,,,,,,,,64,12.0,f,040_y_f_h_a.jpg,happy,d,17,2,539.5232328,539.82021067,539.8468146,539.9800844700001,539.9831833000001,540.02265747,540.0256919000001,540.3466446699999,d,1,0.30902340000011463,309.02340000011463,540.0256919000001,540.3466446699999,540.3558926000001,541.90345187,EMOCONPILOT024,2021_Feb_18_1020,EmoCon_Pilot_120Hz,2020.2.4,120.11146343806222,
,,,,1,0,1,0,65,0,65,0,,,,,,,,,,,,,,,,,,,,,,,,,,,,,,,,,,,,,,,,,,,,,,,65,5.0,m,027_o_m_n_a.jpg,neutral,s,17,2,541.9038148,542.20351347,542.4257109,542.5844711699999,542.5890746,542.62889567,542.633654,543.1005589700001,s,1,0.45306299999992916,453.06299999992916,542.633654,543.1005589700001,543.1113828,544.65362147,EMOCONPILOT024,2021_Feb_18_1020,EmoCon_Pilot_120Hz,2020.2.4,120.11146343806222,
,,,,1,0,1,0,66,0,66,0,,,,,,,,,,,,,,,,,,,,,,,,,,,,,,,,,,,,,,,,,,,,,,,66,6.0,m,033_o_m_s_a.jpg,sad,a,17,2,544.658893,544.9536646700001,544.9689473999999,545.1060209699999,545.1105918000001,545.15147817,545.1564929000001,545.5842139700001,s,0,0.4183020000000397,418.3020000000397,545.1564929000001,545.5842139700001,545.5976043999999,546.94542327,EMOCONPILOT024,2021_Feb_18_1020,EmoCon_Pilot_120Hz,2020.2.4,120.11146343806222,
,,,,1,0,1,0,67,0,67,0,,,,,,,,,,,,,,,,,,,,,,,,,,,,,,,,,,,,,,,,,,,,,,,67,6.0,m,033_o_m_h_a.jpg,happy,d,17,2,546.9512684000001,547.2454091700001,547.2686421000001,547.4053688700001,547.4088489999999,547.44650877,547.4489613999999,547.84005247,d,1,0.3816933999999037,381.6933999999037,547.4489613999999,547.84005247,547.8486402000001,549.16209577,EMOCONPILOT024,2021_Feb_18_1020,EmoCon_Pilot_120Hz,2020.2.4,120.11146343806222,
,,,,1,0,1,0,68,0,68,0,,,,,,,,,,,,,,,,,,,,,,,,,,,,,,,,,,,,,,,,,,,,,,,68,2.0,m,008_y_m_s_a.jpg,sad,a,17,2,549.1661905999999,549.46198697,549.6936006999999,549.8540486700001,549.8587703000001,549.89966557,549.9041477000001,550.35215597,a,1,0.43865169999980935,438.65169999980935,549.9041477000001,550.35215597,550.3650471999999,552.27023887,EMOCONPILOT024,2021_Feb_18_1020,EmoCon_Pilot_120Hz,2020.2.4,120.11146343806222,
,,,,1,0,1,0,69,0,69,0,,,,,,,,,,,,,,,,,,,,,,,,,,,,,,,,,,,,,,,,,,,,,,,69,1.0,m,004_o_m_n_a.jpg,neutral,s,2,2,552.2708819,552.5705130700001,552.7752452,552.7929742700001,552.7938512999999,552.82995717,552.8299884,553.41451037,s,1,0.5688076999999794,568.8076999999794,552.8299884,553.41451037,553.4212399,554.87055037,EMOCONPILOT024,2021_Feb_18_1020,EmoCon_Pilot_120Hz,2020.2.4,120.11146343806222,
,,,,1,0,1,0,70,0,70,0,,,,,,,,,,,,,,,,,,,,,,,,,,,,,,,,,,,,,,,,,,,,,,,70,2.0,m,008_y_m_s_a.jpg,sad,a,17,2,554.8748298,555.1704544700001,555.4016568,555.5573352700001,555.5619879999999,555.6027388699999,555.6080099999999,555.95055957,a,1,0.3266312000000653,326.6312000000653,555.6080099999999,555.95055957,555.9562576999999,557.8539121700001,EMOCONPILOT024,2021_Feb_18_1020,EmoCon_Pilot_120Hz,2020.2.4,120.11146343806222,
,,,,1,0,1,0,71,0,71,0,,,,,,,,,,,,,,,,,,,,,,,,,,,,,,,,,,,,,,,,,,,,,,,71,11.0,f,030_o_f_n_a.jpg,neutral,s,2,2,557.8591944,558.15395457,558.3544033000001,558.37188977,558.3728845999999,558.40856467,558.4082215999999,559.0219599700001,s,1,0.6064982999998847,606.4982999998847,558.4082215999999,559.0219599700001,559.0291102000001,560.10389287,EMOCONPILOT024,2021_Feb_18_1020,EmoCon_Pilot_120Hz,2020.2.4,120.11146343806222,
,,,,1,0,1,0,72,0,72,0,,,,,,,,,,,,,,,,,,,,,,,,,,,,,,,,,,,,,,,,,,,,,,,72,11.0,f,030_o_f_n_a.jpg,neutral,s,2,2,560.1081798,560.40389957,560.6138887,560.63189457,560.6334552999999,560.67090807,560.6758443000001,561.12178277,s,1,0.43497610000008535,434.97610000008535,560.6758443000001,561.12178277,561.1342513,563.01238577,EMOCONPILOT024,2021_Feb_18_1020,EmoCon_Pilot_120Hz,2020.2.4,120.11146343806222,
,,,,1,0,1,0,73,0,73,0,,,,,,,,,,,,,,,,,,,,,,,,,,,,,,,,,,,,,,,,,,,,,,,73,2.0,m,008_y_m_s_a.jpg,sad,a,2,2,563.0181399999999,563.31234047,563.5486383,563.56556357,563.5663601000001,563.60299687,563.6025976999999,563.9482388700001,s,0,0.332050400000071,332.050400000071,563.6025976999999,563.9482388700001,563.9554063,565.91245207,EMOCONPILOT024,2021_Feb_18_1020,EmoCon_Pilot_120Hz,2020.2.4,120.11146343806222,
,,,,1,0,1,0,74,0,74,0,,,,,,,,,,,,,,,,,,,,,,,,,,,,,,,,,,,,,,,,,,,,,,,74,11.0,f,030_o_f_n_a.jpg,neutral,s,17,2,565.9183555,566.21240687,566.4124013999999,566.5720414699999,566.5757759,566.61558747,566.6201882,566.94840017,s,1,0.31449159999988296,314.49159999988296,566.6201882,566.94840017,566.9596733000001,568.86249617,EMOCONPILOT024,2021_Feb_18_1020,EmoCon_Pilot_120Hz,2020.2.4,120.11146343806222,
,,,,1,0,1,0,75,0,75,0,,,,,,,,,,,,,,,,,,,,,,,,,,,,,,,,,,,,,,,,,,,,,,,75,1.0,m,004_o_m_s_a.jpg,sad,a,2,2,568.8668722,569.1624708700001,569.1871435,569.2024992700001,569.2035086000001,569.2390922700001,569.2393058,570.1768181699999,a,1,0.9272988000000169,927.2988000000169,569.2393058,570.1768181699999,570.1832415000001,571.69592657,EMOCONPILOT024,2021_Feb_18_1020,EmoCon_Pilot_120Hz,2020.2.4,120.11146343806222,
,,,,1,0,1,0,76,0,76,0,,,,,,,,,,,,,,,,,,,,,,,,,,,,,,,,,,,,,,,,,,,,,,,76,3.0,m,013_y_m_n_a.jpg,neutral,s,17,2,571.6995769,571.99576707,572.2297960999999,572.38590897,572.3907028000001,572.43160967,572.4365045,572.9832000700001,s,1,0.5381070000000818,538.1070000000818,572.4365045,572.9832000700001,572.9906484999999,574.12918487,EMOCONPILOT024,2021_Feb_18_1020,EmoCon_Pilot_120Hz,2020.2.4,120.11146343806222,
,,,,1,0,1,0,77,0,77,0,,,,,,,,,,,,,,,,,,,,,,,,,,,,,,,,,,,,,,,,,,,,,,,77,7.0,f,012_o_f_s_a.jpg,sad,a,17,2,574.132321,574.42916937,574.4516988,574.58921147,574.5942749000001,574.63507157,574.6402854,575.06985867,a,1,0.414558100000022,414.558100000022,574.6402854,575.06985867,575.0808460000001,576.40432747,EMOCONPILOT024,2021_Feb_18_1020,EmoCon_Pilot_120Hz,2020.2.4,120.11146343806222,
,,,,1,0,1,0,78,0,78,0,,,,,,,,,,,,,,,,,,,,,,,,,,,,,,,,,,,,,,,,,,,,,,,78,12.0,f,040_y_f_n_a.jpg,neutral,s,2,2,576.4101183,576.70389237,576.9130562,576.92973037,576.9303553,576.96656977,576.9668525,577.48651477,s,1,0.5037801999999374,503.7801999999374,576.9668525,577.48651477,577.4938382,578.9376057700001,EMOCONPILOT024,2021_Feb_18_1020,EmoCon_Pilot_120Hz,2020.2.4,120.11146343806222,
,,,,1,0,1,0,79,0,79,0,,,,,,,,,,,,,,,,,,,,,,,,,,,,,,,,,,,,,,,,,,,,,,,79,6.0,m,033_o_m_h_a.jpg,happy,d,2,2,578.9438396999999,579.2376444700001,579.2610342,579.2770658700001,579.2779146,579.3138697700001,579.3137237999999,579.8309674699999,a,0,0.5089333999999326,508.9333999999326,579.3137237999999,579.8309674699999,579.8374215000001,581.19584197,EMOCONPILOT024,2021_Feb_18_1020,EmoCon_Pilot_120Hz,2020.2.4,120.11146343806222,
,,,,1,0,1,0,80,0,80,0,,,,,,,,,,,,,,,,,,,,,,,,,,,,,,,,,,,,,,,,,,,,,,,80,2.0,m,008_y_m_n_a.jpg,neutral,s,17,2,581.1959779000001,581.4957012699999,581.7409806999999,581.8929463700001,581.8934905000001,581.9304292700001,581.9305153,582.3637359700001,s,1,0.4202800999998999,420.2800999998999,581.9305153,582.3637359700001,582.3667814,584.04575587,EMOCONPILOT024,2021_Feb_18_1020,EmoCon_Pilot_120Hz,2020.2.4,120.11146343806222,
,,,,1,0,1,0,81,0,81,0,,,,,,,,,,,,,,,,,,,,,,,,,,,,,,,,,,,,,,,,,,,,,,,81,12.0,f,040_y_f_h_a.jpg,happy,d,2,2,584.0460588000001,584.3465373700001,584.3592507999999,584.37418757,584.3748127000001,584.4137302700001,584.41302,584.9296006700001,d,1,0.5056300999999621,505.6300999999621,584.41302,584.9296006700001,584.9322958,586.63744017,EMOCONPILOT024,2021_Feb_18_1020,EmoCon_Pilot_120Hz,2020.2.4,120.11146343806222,
,,,,1,0,1,0,82,0,82,0,,,,,,,,,,,,,,,,,,,,,,,,,,,,,,,,,,,,,,,,,,,,,,,82,9.0,f,021_o_f_h_a.jpg,happy,d,17,2,586.6378810000001,586.93736347,587.168355,587.33434977,587.3354976,587.37249907,587.3725422,587.78091997,d,1,0.39387029999988954,393.87029999988954,587.3725422,587.78091997,587.7836946,589.5542429699999,EMOCONPILOT024,2021_Feb_18_1020,EmoCon_Pilot_120Hz,2020.2.4,120.11146343806222,
,,,,1,0,1,0,83,0,83,0,,,,,,,,,,,,,,,,,,,,,,,,,,,,,,,,,,,,,,,,,,,,,,,83,6.0,m,033_o_m_h_a.jpg,happy,d,17,2,589.5546956999999,589.8540136700001,589.8643821999999,589.9978457699999,589.9980849000001,590.0390383700001,590.0392399,590.34710367,d,1,0.2951719000000139,295.1719000000139,590.0392399,590.34710367,590.350664,592.0210988700001,EMOCONPILOT024,2021_Feb_18_1020,EmoCon_Pilot_120Hz,2020.2.4,120.11146343806222,
,,,,1,0,1,0,84,0,84,0,,,,,,,,,,,,,,,,,,,,,,,,,,,,,,,,,,,,,,,,,,,,,,,84,2.0,m,008_y_m_n_a.jpg,neutral,s,2,2,592.0210059999999,592.32081847,592.5679428000001,592.58511267,592.5859284000001,592.62229847,592.6220484,593.2214935700001,s,1,0.5844163000001572,584.4163000001572,592.6220484,593.2214935700001,593.2248992,594.27091817,EMOCONPILOT024,2021_Feb_18_1020,EmoCon_Pilot_120Hz,2020.2.4,120.11146343806222,
,,,,1,0,1,0,85,0,85,0,,,,,,,,,,,,,,,,,,,,,,,,,,,,,,,,,,,,,,,,,,,,,,,85,10.0,f,028_y_f_n_a.jpg,neutral,s,17,2,594.2715154,594.5709169700001,594.7799754,594.94955387,594.950063,594.9862850700001,594.9859849,595.33819877,s,1,0.3405479999998988,340.5479999998988,594.9859849,595.33819877,595.341633,596.73776797,EMOCONPILOT024,2021_Feb_18_1020,EmoCon_Pilot_120Hz,2020.2.4,120.11146343806222,
,,,,1,0,1,0,86,0,86,0,,,,,,,,,,,,,,,,,,,,,,,,,,,,,,,,,,,,,,,,,,,,,,,86,6.0,m,033_o_m_h_a.jpg,happy,d,17,2,596.7379452,597.03763637,597.049172,597.18106857,597.1815084,597.22256857,597.2228212,597.7522984699999,d,1,0.5201793999999609,520.1793999999609,597.2228212,597.7522984699999,597.7561327999999,598.75433447,EMOCONPILOT024,2021_Feb_18_1020,EmoCon_Pilot_120Hz,2020.2.4,120.11146343806222,
,,,,1,0,1,0,87,0,87,0,,,,,,,,,,,,,,,,,,,,,,,,,,,,,,,,,,,,,,,,,,,,,,,87,5.0,m,027_o_m_s_a.jpg,sad,a,17,2,598.7543261000001,599.0544739700001,599.0626668,599.1977955699999,599.1981283,599.2390606700001,599.2384411999999,599.6632645699999,a,1,0.4160841000000346,416.0841000000346,599.2384411999999,599.6632645699999,599.6667953000001,601.6126616700001,EMOCONPILOT024,2021_Feb_18_1020,EmoCon_Pilot_120Hz,2020.2.4,120.11146343806222,
,,,,1,0,1,0,88,0,88,0,,,,,,,,,,,,,,,,,,,,,,,,,,,,,,,,,,,,,,,,,,,,,,,88,7.0,f,012_o_f_s_a.jpg,sad,a,17,2,601.6128088,601.9126657700001,601.9224193,602.0561088700001,602.0568114,602.0975815700001,602.096978,602.79649227,a,1,0.6855080000000271,685.5080000000271,602.096978,602.79649227,602.7995335999999,604.02117107,EMOCONPILOT024,2021_Feb_18_1020,EmoCon_Pilot_120Hz,2020.2.4,120.11146343806222,
,,,,1,0,1,0,89,0,89,0,,,,,,,,,,,,,,,,,,,,,,,,,,,,,,,,,,,,,,,,,,,,,,,89,2.0,m,008_y_m_h_a.jpg,happy,d,2,2,604.0217792999999,604.3210843700001,604.3305513,604.34610137,604.3464372999999,604.38251317,604.3823877,605.16333317,s,0,0.7680643999999575,768.0643999999575,604.3823877,605.16333317,605.1665548000001,606.72148087,EMOCONPILOT024,2021_Feb_18_1020,EmoCon_Pilot_120Hz,2020.2.4,120.11146343806222,
,,,,1,0,1,0,90,0,90,0,,,,,,,,,,,,,,,,,,,,,,,,,,,,,,,,,,,,,,,,,,,,,,,90,7.0,f,012_o_f_h_a.jpg,happy,d,17,2,606.7217034,607.02120087,607.0321451,607.1649582699999,607.1663235000001,607.20608247,607.2061543,607.5570744700001,d,1,0.3362776000001304,336.2776000001304,607.2061543,607.5570744700001,607.5605462999999,609.46284087,EMOCONPILOT024,2021_Feb_18_1020,EmoCon_Pilot_120Hz,2020.2.4,120.11146343806222,
,,,,1,0,1,0,91,0,91,0,,,,,,,,,,,,,,,,,,,,,,,,,,,,,,,,,,,,,,,,,,,,,,,91,10.0,f,028_y_f_s_a.jpg,sad,a,2,2,609.4631534,609.76277977,609.7706232,609.78633887,609.7866555999999,609.82248757,609.8217818,610.3632939700001,s,0,0.5286748999999418,528.6748999999418,609.8217818,610.3632939700001,610.3667588999999,612.04635657,EMOCONPILOT024,2021_Feb_18_1020,EmoCon_Pilot_120Hz,2020.2.4,120.11146343806222,
,,,,1,0,1,0,92,0,92,0,,,,,,,,,,,,,,,,,,,,,,,,,,,,,,,,,,,,,,,,,,,,,,,92,12.0,f,040_y_f_s_a.jpg,sad,a,17,2,612.0464089,612.34638137,612.3612069999999,612.4982642699999,612.4983113999999,612.53961387,612.5398215,613.1138374699999,s,0,0.5627694000002066,562.7694000002066,612.5398215,613.1138374699999,613.1155412999999,614.1713639700001,EMOCONPILOT024,2021_Feb_18_1020,EmoCon_Pilot_120Hz,2020.2.4,120.11146343806222,
,,,,1,0,1,0,93,0,93,0,,,,,,,,,,,,,,,,,,,,,,,,,,,,,,,,,,,,,,,,,,,,,,,93,2.0,m,008_y_m_n_a.jpg,neutral,s,17,2,614.1716134000001,614.4713246700001,614.7098169000001,614.86103697,614.86113,614.89758927,614.8973091,615.3801036699999,s,1,0.46921470000006593,469.21470000006593,614.8973091,615.3801036699999,615.3832990000001,617.05471577,EMOCONPILOT024,2021_Feb_18_1020,EmoCon_Pilot_120Hz,2020.2.4,120.11146343806222,
,,,,1,0,1,0,94,0,94,0,,,,,,,,,,,,,,,,,,,,,,,,,,,,,,,,,,,,,,,,,,,,,,,94,11.0,f,030_o_f_s_a.jpg,sad,a,2,2,617.0549272999999,617.3546692699999,617.5429555000001,617.56049607,617.5609251999999,617.5979128700001,617.5982058,618.54683277,a,1,0.9363208999998278,936.3208999998278,617.5982058,618.54683277,618.5499967000001,619.7796144700001,EMOCONPILOT024,2021_Feb_18_1020,EmoCon_Pilot_120Hz,2020.2.4,120.11146343806222,
,,,,1,0,1,0,95,0,95,0,,,,,,,,,,,,,,,,,,,,,,,,,,,,,,,,,,,,,,,,,,,,,,,95,9.0,f,021_o_f_n_a.jpg,neutral,s,17,2,619.7801923,620.0797552700001,620.2970448000001,620.44867757,620.4490401,620.48542757,620.4854451000001,620.8719560700001,s,1,0.37720020000006116,377.20020000006116,620.4854451000001,620.8719560700001,620.8748875000001,622.1381749699999,EMOCONPILOT024,2021_Feb_18_1020,EmoCon_Pilot_120Hz,2020.2.4,120.11146343806222,
,,,,1,0,1,0,96,0,96,0,,,,,,,,,,,,,,,,,,,,,,,,,,,,,,,,,,,,,,,,,,,,,,,96,6.0,m,033_o_m_h_a.jpg,happy,d,17,2,622.1383837000001,622.43810497,622.4510255,622.5825581700001,622.5843500000001,622.62351687,622.6254590000001,622.98008557,d,1,0.3409795000000031,340.9795000000031,622.6254590000001,622.98008557,622.9834470999999,624.8548569700001,EMOCONPILOT024,2021_Feb_18_1020,EmoCon_Pilot_120Hz,2020.2.4,120.11146343806222,
,,,,1,0,1,0,97,0,97,0,,,,,,,,,,,,,,,,,,,,,,,,,,,,,,,,,,,,,,,,,,,,,,,97,3.0,m,013_y_m_s_a.jpg,sad,a,2,2,624.8552422,625.15474657,625.1647789000001,625.1804561700001,625.1807685000001,625.21692437,625.2167003,625.70532357,s,0,0.47779050000008283,477.79050000008283,625.2167003,625.70532357,625.7078366999999,627.6048876699999,EMOCONPILOT024,2021_Feb_18_1020,EmoCon_Pilot_120Hz,2020.2.4,120.11146343806222,
,,,,1,0,1,0,98,0,98,0,,,,,,,,,,,,,,,,,,,,,,,,,,,,,,,,,,,,,,,,,,,,,,,98,12.0,f,040_y_f_s_a.jpg,sad,a,17,2,627.6048942,627.9049146699999,627.9178512999999,628.05362287,628.0545367,628.0904862699999,628.0905255,628.59844957,a,1,0.49984200000017154,499.84200000017154,628.0905255,628.59844957,628.6016241,630.11325177,EMOCONPILOT024,2021_Feb_18_1020,EmoCon_Pilot_120Hz,2020.2.4,120.11146343806222,
,,,,1,0,1,0,99,0,99,0,,,,,,,,,,,,,,,,,,,,,,,,,,,,,,,,,,,,,,,,,,,,,,,99,11.0,f,030_o_f_s_a.jpg,sad,a,17,2,630.1135423000001,630.41334407,630.6791912000001,630.8555648700001,630.8570748,630.89337757,630.8929063,631.41357027,a,1,0.5054631999998946,505.46319999989464,630.8929063,631.41357027,631.4168305999999,632.5466001699999,EMOCONPILOT024,2021_Feb_18_1020,EmoCon_Pilot_120Hz,2020.2.4,120.11146343806222,
,,,,1,0,1,0,100,0,100,0,,,,,,,,,,,,,,,,,,,,,,,,,,,,,,,,,,,,,,,,,,,,,,,100,8.0,f,019_m_f_n_a.jpg,neutral,s,2,2,632.546793,632.84666747,633.0878951,633.1056520699999,633.1065358000001,633.14272717,633.1427119,633.6721899700001,s,1,0.519779299999982,519.779299999982,633.1427119,633.6721899700001,633.675819,634.88007937,EMOCONPILOT024,2021_Feb_18_1020,EmoCon_Pilot_120Hz,2020.2.4,120.11146343806222,
,,,,1,0,1,0,101,0,101,0,,,,,,,,,,,,,,,,,,,,,,,,,,,,,,,,,,,,,,,,,,,,,,,101,6.0,m,033_o_m_h_a.jpg,happy,d,2,2,634.8803751,635.1800357699999,635.1907891000001,635.2065699699999,635.2067118,635.24332587,635.2431477,635.6479415700001,s,0,0.39545429999998305,395.45429999998305,635.2431477,635.6479415700001,635.6518327000001,637.57181477,EMOCONPILOT024,2021_Feb_18_1020,EmoCon_Pilot_120Hz,2020.2.4,120.11146343806222,
,,,,1,0,1,0,102,0,102,0,,,,,,,,,,,,,,,,,,,,,,,,,,,,,,,,,,,,,,,,,,,,,,,102,9.0,f,021_o_f_s_a.jpg,sad,a,2,2,637.5721492,637.8717017700001,637.8807171000001,637.8963287700001,637.8967541,637.93283397,637.9328545999999,638.7305528700001,d,0,0.7855755999999019,785.5755999999019,637.9328545999999,638.7305528700001,638.7333192000001,639.7384851700001,EMOCONPILOT024,2021_Feb_18_1020,EmoCon_Pilot_120Hz,2020.2.4,120.11146343806222,
