,block,conditions,correct,level,primer_time,real_trial_number,response,rt,stim,study_number,subj_idx,trial
,0.0,141ms_happy,0.0,141ms,0.14998569999983147,1.0,8.0,0.9420097000001988,happy,study2,40.0,0.0
,0.0,141ms_neutral,1.0,141ms,0.1493706999999631,8.0,8.0,0.8812821999999869,neutral,study2,40.0,7.0
,0.0,25ms_happy,1.0,25ms,0.024402900000097816,10.0,9.0,1.1860867999998843,happy,study2,40.0,9.0
,0.0,141ms_happy,1.0,141ms,0.1499310999998329,11.0,9.0,1.1039248000001862,happy,study2,40.0,10.0
,0.0,141ms_sad,1.0,141ms,0.14959009999978434,13.0,7.0,0.6955109999998967,sad,study2,40.0,12.0
,0.0,25ms_neutral,1.0,25ms,0.024297399999795743,14.0,8.0,1.298703999999816,neutral,study2,40.0,13.0
,0.0,25ms_happy,1.0,25ms,0.024903800000060983,15.0,9.0,0.9048437999999804,happy,study2,40.0,14.0
,0.0,25ms_neutral,0.0,25ms,0.024433699999974582,17.0,7.0,1.000534300000254,neutral,study2,40.0,16.0
,0.0,141ms_neutral,1.0,141ms,0.14925950000002786,18.0,8.0,0.9194682999996076,neutral,study2,40.0,17.0
,0.0,25ms_happy,1.0,25ms,0.024766200000158282,19.0,9.0,0.8337601000002905,happy,study2,40.0,18.0
,0.0,141ms_happy,1.0,141ms,0.14974629999966282,20.0,9.0,0.7006960000003346,happy,study2,40.0,19.0
,0.0,16ms_neutral,1.0,16ms,0.015811099999950784,21.0,8.0,1.061341099999936,neutral,study2,40.0,20.0
,0.0,25ms_happy,1.0,25ms,0.0243335999999772,25.0,9.0,0.7229948999997758,happy,study2,40.0,24.0
,0.0,25ms_sad,0.0,25ms,0.02471710000014582,26.0,8.0,0.9236218999999436,sad,study2,40.0,25.0
,0.0,25ms_sad,0.0,25ms,0.024513400000103047,28.0,8.0,0.8798807000002853,sad,study2,40.0,27.0
,0.0,141ms_sad,1.0,141ms,0.14981949999997826,29.0,7.0,1.0488728999998784,sad,study2,40.0,28.0
,0.0,25ms_neutral,1.0,25ms,0.0244310999995605,34.0,8.0,1.0073247000000265,neutral,study2,40.0,33.0
,0.0,25ms_sad,0.0,25ms,0.024862100000007104,39.0,8.0,0.8138844000004609,sad,study2,40.0,38.0
,0.0,25ms_happy,1.0,25ms,0.024822900000799564,43.0,9.0,0.9649552999999288,happy,study2,40.0,42.0
,0.0,141ms_sad,1.0,141ms,0.1497813000005408,45.0,7.0,1.2004180000003544,sad,study2,40.0,44.0
,0.0,25ms_happy,1.0,25ms,0.024876300000016727,46.0,9.0,0.8101954999992813,happy,study2,40.0,45.0
,0.0,16ms_happy,1.0,16ms,0.016699500000015632,47.0,9.0,0.8214632999997775,happy,study2,40.0,46.0
,0.0,141ms_neutral,0.0,141ms,0.1494557000005443,50.0,7.0,0.9115576999993208,neutral,study2,40.0,49.0
,0.0,16ms_happy,1.0,16ms,0.01639060000070458,51.0,9.0,1.091290399999707,happy,study2,40.0,50.0
,0.0,25ms_happy,1.0,25ms,0.02433589999952801,54.0,9.0,1.1197526000005382,happy,study2,40.0,53.0
,0.0,141ms_sad,1.0,141ms,0.14953029999992395,55.0,7.0,0.9247783000000708,sad,study2,40.0,54.0
,0.0,25ms_sad,0.0,25ms,0.02489709999997558,59.0,8.0,1.1624206999995297,sad,study2,40.0,58.0
,0.0,16ms_happy,1.0,16ms,0.016053599999281687,60.0,9.0,0.9570040999997218,happy,study2,40.0,59.0
,0.0,25ms_neutral,0.0,25ms,0.024345499999981257,61.0,7.0,1.386782200000198,neutral,study2,40.0,60.0
,0.0,141ms_neutral,1.0,141ms,0.149428699999703,64.0,8.0,0.8890995000001567,neutral,study2,40.0,63.0
,0.0,141ms_sad,1.0,141ms,0.1498880999999983,66.0,7.0,1.20618579999973,sad,study2,40.0,65.0
,0.0,141ms_sad,1.0,141ms,0.1498132999995505,67.0,7.0,0.7431950999998662,sad,study2,40.0,66.0
,0.0,25ms_happy,1.0,25ms,0.02434439999979077,68.0,9.0,0.7411925000005795,happy,study2,40.0,67.0
,0.0,16ms_happy,1.0,16ms,0.016112299999804236,69.0,9.0,1.1229724000004353,happy,study2,40.0,68.0
,0.0,16ms_happy,1.0,16ms,0.016483100000186823,72.0,9.0,0.7563485000000583,happy,study2,40.0,71.0
,0.0,25ms_neutral,1.0,25ms,0.024653299999840783,74.0,8.0,0.9044112000001404,neutral,study2,40.0,73.0
,0.0,25ms_happy,1.0,25ms,0.024802099999760685,75.0,9.0,0.6878198000003977,happy,study2,40.0,74.0
,0.0,25ms_neutral,1.0,25ms,0.024613899999963,78.0,8.0,1.4527047999999922,neutral,study2,40.0,77.0
,0.0,25ms_neutral,1.0,25ms,0.02428889999919193,80.0,8.0,0.7540562000003774,neutral,study2,40.0,79.0
,0.0,16ms_happy,1.0,16ms,0.016458400000487927,84.0,9.0,1.117546199999197,happy,study2,40.0,83.0
,0.0,16ms_sad,0.0,16ms,0.01661460000013904,86.0,9.0,1.1447107999993025,sad,study2,40.0,85.0
,0.0,141ms_neutral,1.0,141ms,0.14950630000009826,88.0,8.0,0.9537822000002052,neutral,study2,40.0,87.0
,0.0,16ms_happy,1.0,16ms,0.01654559999940375,89.0,9.0,0.8945915000003879,happy,study2,40.0,88.0
,0.0,25ms_happy,1.0,25ms,0.024335899999755384,90.0,9.0,0.6368819999997868,happy,study2,40.0,89.0
,0.0,25ms_sad,0.0,25ms,0.02511599999991176,91.0,8.0,1.4233788999999888,sad,study2,40.0,90.0
,0.0,141ms_neutral,1.0,141ms,0.14938879999954224,93.0,8.0,0.8774515999994037,neutral,study2,40.0,92.0
,0.0,141ms_neutral,1.0,141ms,0.14943349999975908,94.0,8.0,0.6651584999999614,neutral,study2,40.0,93.0
,0.0,141ms_neutral,1.0,141ms,0.14967109999997774,96.0,8.0,1.0598085999999969,neutral,study2,40.0,95.0
,0.0,25ms_sad,0.0,25ms,0.025149199999873417,97.0,9.0,0.9852000999999292,sad,study2,40.0,96.0
,0.0,141ms_happy,1.0,141ms,0.14939830000002985,98.0,9.0,0.6010440999998536,happy,study2,40.0,97.0
,0.0,16ms_sad,0.0,16ms,0.016005800000129966,101.0,8.0,1.2293159000000742,sad,study2,40.0,100.0
,0.0,25ms_neutral,1.0,25ms,0.02440109999952256,102.0,8.0,0.8964906000001065,neutral,study2,40.0,101.0
,0.0,25ms_happy,1.0,25ms,0.024426500000345186,103.0,9.0,0.6759192999998049,happy,study2,40.0,102.0
,0.0,141ms_happy,1.0,141ms,0.14976410000065246,104.0,9.0,0.4856052000004638,happy,study2,40.0,103.0
,0.0,16ms_sad,0.0,16ms,0.016057699999691977,105.0,8.0,0.9194901000000756,sad,study2,40.0,104.0
,0.0,141ms_sad,1.0,141ms,0.15004229999976815,106.0,7.0,1.1593881999997393,sad,study2,40.0,105.0
,0.0,25ms_neutral,1.0,25ms,0.02436310000018693,107.0,8.0,0.7564020999998321,neutral,study2,40.0,106.0
,0.0,25ms_happy,1.0,25ms,0.024801400000001198,108.0,9.0,0.6014381000004505,happy,study2,40.0,107.0
,0.0,16ms_sad,0.0,16ms,0.016513000000372813,109.0,8.0,1.1088284999996176,sad,study2,40.0,108.0
,0.0,16ms_happy,1.0,16ms,0.015978099999983897,111.0,9.0,0.9414105000005292,happy,study2,40.0,110.0
,0.0,25ms_happy,1.0,25ms,0.024624300000027688,114.0,9.0,0.6661967999998524,happy,study2,40.0,113.0
,0.0,141ms_neutral,1.0,141ms,0.1493843000000652,116.0,8.0,0.672358400000121,neutral,study2,40.0,115.0
,0.0,141ms_sad,1.0,141ms,0.14987770000027467,119.0,7.0,0.8457503999998153,sad,study2,40.0,118.0
,0.0,25ms_sad,0.0,25ms,0.024995999999987358,120.0,8.0,1.0369811000000482,sad,study2,40.0,119.0
,1.0,25ms_sad,1.0,25ms,0.024563300000295385,121.0,7.0,1.1761271999994278,sad,study2,40.0,0.0
,1.0,16ms_neutral,0.0,16ms,0.01605219999964902,122.0,7.0,1.1809462000001076,neutral,study2,40.0,1.0
,1.0,16ms_happy,1.0,16ms,0.01672019999944041,123.0,9.0,0.817849699999897,happy,study2,40.0,2.0
,1.0,141ms_happy,1.0,141ms,0.14986759999987953,124.0,9.0,0.8573595999996542,happy,study2,40.0,3.0
,1.0,141ms_sad,1.0,141ms,0.14971190000073875,126.0,7.0,1.1308779999999388,sad,study2,40.0,5.0
,1.0,141ms_sad,1.0,141ms,0.14987449999989622,127.0,7.0,0.6835512999996354,sad,study2,40.0,6.0
,1.0,16ms_neutral,1.0,16ms,0.016171300000451083,129.0,8.0,0.7794184999993377,neutral,study2,40.0,8.0
,1.0,25ms_happy,0.0,25ms,0.024862500000608637,132.0,7.0,0.9514972999995734,happy,study2,40.0,11.0
,1.0,25ms_happy,1.0,25ms,0.02496909999968011,133.0,9.0,1.017425699999876,happy,study2,40.0,12.0
,1.0,25ms_sad,1.0,25ms,0.024373499999228443,136.0,7.0,0.845727199999601,sad,study2,40.0,15.0
,1.0,25ms_sad,0.0,25ms,0.02443370000014511,137.0,8.0,1.0800865999999587,sad,study2,40.0,16.0
,1.0,141ms_neutral,1.0,141ms,0.14939770000000865,139.0,8.0,0.6301407000000836,neutral,study2,40.0,18.0
,1.0,16ms_neutral,1.0,16ms,0.016169399999625966,140.0,8.0,0.9230662999998458,neutral,study2,40.0,19.0
,1.0,16ms_happy,1.0,16ms,0.016368799999099792,141.0,9.0,0.9567660000002434,happy,study2,40.0,20.0
,1.0,141ms_neutral,1.0,141ms,0.14956480000000738,143.0,8.0,0.5749270999995133,neutral,study2,40.0,22.0
,1.0,141ms_neutral,1.0,141ms,0.14956249999954707,146.0,8.0,0.8074461000005613,neutral,study2,40.0,25.0
,1.0,25ms_neutral,1.0,25ms,0.024187499999925418,147.0,8.0,0.7832796000002418,neutral,study2,40.0,26.0
,1.0,16ms_happy,0.0,16ms,0.016164500000058982,148.0,8.0,1.2356221000000005,happy,study2,40.0,27.0
,1.0,25ms_sad,1.0,25ms,0.02432610000050772,150.0,7.0,0.8457645999997112,sad,study2,40.0,29.0
,1.0,141ms_neutral,1.0,141ms,0.1495240000006106,151.0,8.0,1.0406450000000405,neutral,study2,40.0,30.0
,1.0,25ms_neutral,1.0,25ms,0.02434849999986,154.0,8.0,0.7057015999998839,neutral,study2,40.0,33.0
,1.0,25ms_happy,1.0,25ms,0.024446300000136038,156.0,9.0,0.8208229000001666,happy,study2,40.0,35.0
,1.0,25ms_sad,0.0,25ms,0.02430980000031013,157.0,8.0,1.1347240999994028,sad,study2,40.0,36.0
,1.0,25ms_sad,1.0,25ms,0.024831899999071542,158.0,7.0,0.8410017999995034,sad,study2,40.0,37.0
,1.0,25ms_neutral,1.0,25ms,0.024538900000152356,159.0,8.0,0.8747012000003451,neutral,study2,40.0,38.0
,1.0,16ms_neutral,1.0,16ms,0.01604090000000724,161.0,8.0,1.2319060999998328,neutral,study2,40.0,40.0
,1.0,141ms_sad,1.0,141ms,0.14984510000022055,162.0,7.0,0.8078560000003563,sad,study2,40.0,41.0
,1.0,25ms_happy,1.0,25ms,0.024756599999591344,163.0,9.0,0.6429854999996678,happy,study2,40.0,42.0
,1.0,25ms_neutral,1.0,25ms,0.024377600000661914,165.0,8.0,0.8131655999995928,neutral,study2,40.0,44.0
,1.0,25ms_happy,1.0,25ms,0.024960599999985792,169.0,9.0,0.8883492000004479,happy,study2,40.0,48.0
,1.0,25ms_happy,1.0,25ms,0.024759900000617563,170.0,9.0,0.6147405000001527,happy,study2,40.0,49.0
,1.0,16ms_sad,0.0,16ms,0.01649659999998221,171.0,9.0,0.8325802999997904,sad,study2,40.0,50.0
,1.0,141ms_happy,1.0,141ms,0.14940430000024207,173.0,9.0,0.5910027999998421,happy,study2,40.0,52.0
,1.0,8ms_sad,0.0,8ms,0.0083411999994496,174.0,9.0,0.7415195000003223,sad,study2,40.0,53.0
,1.0,16ms_sad,0.0,16ms,0.016182300000991745,175.0,9.0,0.9458211999999548,sad,study2,40.0,54.0
,1.0,25ms_sad,1.0,25ms,0.02442979999955241,176.0,7.0,1.2965953000002628,sad,study2,40.0,55.0
,1.0,25ms_neutral,1.0,25ms,0.024558799999567785,178.0,8.0,1.119929399999819,neutral,study2,40.0,57.0
,1.0,141ms_neutral,0.0,141ms,0.14949319999959698,182.0,7.0,1.005723900000703,neutral,study2,40.0,61.0
,1.0,141ms_neutral,1.0,141ms,0.149191399999836,184.0,8.0,0.9543118000001414,neutral,study2,40.0,63.0
,1.0,141ms_happy,1.0,141ms,0.14995160000034954,187.0,9.0,0.6872229999999035,happy,study2,40.0,66.0
,1.0,25ms_sad,0.0,25ms,0.02515750000020489,190.0,8.0,0.8962676000001011,sad,study2,40.0,69.0
,1.0,25ms_sad,1.0,25ms,0.024972399999569458,191.0,7.0,1.4363647000000128,sad,study2,40.0,70.0
,1.0,141ms_sad,1.0,141ms,0.14958420000061778,193.0,7.0,0.7625794999994469,sad,study2,40.0,72.0
,1.0,141ms_sad,1.0,141ms,0.150042100000519,196.0,7.0,1.121012799999335,sad,study2,40.0,75.0
,1.0,16ms_happy,0.0,16ms,0.0164898000004996,198.0,7.0,1.3331185999995796,happy,study2,40.0,77.0
,1.0,141ms_happy,1.0,141ms,0.14943960000005066,199.0,9.0,0.7880703999999241,happy,study2,40.0,78.0
,1.0,25ms_neutral,1.0,25ms,0.024366800000734656,200.0,8.0,0.988968499999828,neutral,study2,40.0,79.0
,1.0,141ms_sad,1.0,141ms,0.14980639999930645,202.0,7.0,0.8999577000004138,sad,study2,40.0,81.0
,1.0,141ms_neutral,1.0,141ms,0.14927010000087648,203.0,8.0,0.6948896000003515,neutral,study2,40.0,82.0
,1.0,16ms_sad,0.0,16ms,0.016493600000330844,205.0,8.0,0.9513606000000436,sad,study2,40.0,84.0
,1.0,25ms_neutral,1.0,25ms,0.024354700000003504,207.0,8.0,0.9393347000004724,neutral,study2,40.0,86.0
,1.0,25ms_happy,1.0,25ms,0.02500650000001769,208.0,9.0,0.9269117999992886,happy,study2,40.0,87.0
,1.0,25ms_neutral,1.0,25ms,0.024365600000692208,209.0,8.0,0.7678082000002178,neutral,study2,40.0,88.0
,1.0,25ms_neutral,1.0,25ms,0.02490099999999984,213.0,8.0,1.0940611000005451,neutral,study2,40.0,92.0
,1.0,25ms_neutral,1.0,25ms,0.024595099999260128,215.0,8.0,0.9493707999999972,neutral,study2,40.0,94.0
,1.0,25ms_happy,1.0,25ms,0.024881299999833573,218.0,9.0,0.6884079000001293,happy,study2,40.0,97.0
,1.0,8ms_sad,0.0,8ms,0.007620800000040617,219.0,9.0,0.8937411000006249,sad,study2,40.0,98.0
,1.0,25ms_neutral,1.0,25ms,0.024373199999899956,221.0,8.0,1.1980178000003434,neutral,study2,40.0,100.0
,1.0,141ms_sad,1.0,141ms,0.14939310000067962,222.0,7.0,0.7854998000002524,sad,study2,40.0,101.0
,1.0,141ms_neutral,1.0,141ms,0.14938849999998638,223.0,8.0,0.698103099999571,neutral,study2,40.0,102.0
,1.0,141ms_sad,1.0,141ms,0.14995900000030815,226.0,7.0,0.8539123999998992,sad,study2,40.0,105.0
,1.0,141ms_neutral,1.0,141ms,0.14931009999941125,227.0,8.0,0.4693673000001581,neutral,study2,40.0,106.0
,1.0,25ms_happy,1.0,25ms,0.025039199999582703,228.0,9.0,0.5437343999992663,happy,study2,40.0,107.0
,1.0,141ms_sad,1.0,141ms,0.15001980000010914,229.0,7.0,0.9291653000000224,sad,study2,40.0,108.0
,1.0,16ms_neutral,1.0,16ms,0.01600069999904008,230.0,8.0,0.8638941000008344,neutral,study2,40.0,109.0
,1.0,141ms_happy,1.0,141ms,0.1500787999991644,233.0,9.0,0.5595430000003034,happy,study2,40.0,112.0
,1.0,141ms_happy,1.0,141ms,0.1494524000004276,234.0,9.0,0.5670415000004141,happy,study2,40.0,113.0
,1.0,16ms_sad,0.0,16ms,0.016324300001087973,235.0,8.0,0.6508970999993835,sad,study2,40.0,114.0
,1.0,16ms_neutral,1.0,16ms,0.016245600000274862,237.0,8.0,1.1444079000002605,neutral,study2,40.0,116.0
,2.0,25ms_happy,1.0,25ms,0.024056700000755882,242.0,9.0,0.8041647999998531,happy,study2,40.0,1.0
,2.0,141ms_happy,1.0,141ms,0.14931169999999838,243.0,9.0,0.5974581000000398,happy,study2,40.0,2.0
,2.0,16ms_happy,1.0,16ms,0.016197199999169243,245.0,9.0,0.6768474000000424,happy,study2,40.0,4.0
,2.0,16ms_happy,1.0,16ms,0.016127500000038708,247.0,9.0,0.6923329999999623,happy,study2,40.0,6.0
,2.0,141ms_sad,1.0,141ms,0.14942930000052002,248.0,7.0,0.9959297000004879,sad,study2,40.0,7.0
,2.0,16ms_sad,0.0,16ms,0.01649449999990793,249.0,8.0,0.8222572999993645,sad,study2,40.0,8.0
,2.0,141ms_neutral,1.0,141ms,0.14967109999997774,250.0,8.0,0.7575225999999019,neutral,study2,40.0,9.0
,2.0,16ms_sad,1.0,16ms,0.01636200000075405,252.0,7.0,1.2268239000004542,sad,study2,40.0,11.0
,2.0,141ms_sad,1.0,141ms,0.1499949999999899,253.0,7.0,0.8193692999993799,sad,study2,40.0,12.0
,2.0,141ms_happy,1.0,141ms,0.14937499999996362,255.0,9.0,0.7111711000006835,happy,study2,40.0,14.0
,2.0,141ms_happy,1.0,141ms,0.1497177000001102,256.0,9.0,0.4178801999996722,happy,study2,40.0,15.0
,2.0,25ms_sad,1.0,25ms,0.024491799999168503,257.0,7.0,1.1433216000004904,sad,study2,40.0,16.0
,2.0,16ms_neutral,1.0,16ms,0.01605739999990874,258.0,8.0,1.1711128000006283,neutral,study2,40.0,17.0
,2.0,16ms_sad,0.0,16ms,0.016469299999926083,259.0,8.0,1.0422916999996232,sad,study2,40.0,18.0
,2.0,25ms_neutral,1.0,25ms,0.024530200000526747,260.0,8.0,1.068270599999778,neutral,study2,40.0,19.0
,2.0,141ms_neutral,1.0,141ms,0.14932500000008986,261.0,8.0,0.6689465999997992,neutral,study2,40.0,20.0
,2.0,25ms_sad,1.0,25ms,0.02482329999975264,262.0,7.0,1.1195642000002408,sad,study2,40.0,21.0
,2.0,141ms_happy,1.0,141ms,0.14933920000021314,264.0,9.0,0.5506326000004265,happy,study2,40.0,23.0
,2.0,16ms_sad,0.0,16ms,0.01653860000055829,266.0,9.0,1.0279616999996506,sad,study2,40.0,25.0
,2.0,141ms_sad,1.0,141ms,0.14985730000012154,267.0,7.0,0.871356100000412,sad,study2,40.0,26.0
,2.0,16ms_happy,1.0,16ms,0.016375400000242738,268.0,9.0,0.7982190999991872,happy,study2,40.0,27.0
,2.0,16ms_happy,1.0,16ms,0.01598110000009001,269.0,9.0,1.0469003999996858,happy,study2,40.0,28.0
,2.0,141ms_sad,1.0,141ms,0.1496978000004674,271.0,7.0,0.7798512999997911,sad,study2,40.0,30.0
,2.0,141ms_happy,1.0,141ms,0.14948849999996128,273.0,9.0,0.604091299999709,happy,study2,40.0,32.0
,2.0,141ms_neutral,1.0,141ms,0.14956979999988107,274.0,8.0,1.1530118999999104,neutral,study2,40.0,33.0
,2.0,25ms_sad,1.0,25ms,0.024791900000082023,275.0,7.0,1.1323223999997936,sad,study2,40.0,34.0
,2.0,25ms_neutral,1.0,25ms,0.02458810000007361,276.0,8.0,0.8127632000005178,neutral,study2,40.0,35.0
,2.0,25ms_neutral,1.0,25ms,0.02457830000003014,277.0,8.0,1.2670775999995385,neutral,study2,40.0,36.0
,2.0,141ms_sad,1.0,141ms,0.148850699999457,278.0,7.0,0.9528788999996324,sad,study2,40.0,37.0
,2.0,141ms_neutral,1.0,141ms,0.14955890000010186,280.0,8.0,0.7752983000000313,neutral,study2,40.0,39.0
,2.0,141ms_neutral,1.0,141ms,0.1494643000000906,281.0,8.0,0.6363871000003201,neutral,study2,40.0,40.0
,2.0,25ms_happy,1.0,25ms,0.024670999998761545,284.0,9.0,0.8225355999993553,happy,study2,40.0,43.0
,2.0,141ms_neutral,1.0,141ms,0.14942689999998038,286.0,8.0,0.6607752999998411,neutral,study2,40.0,45.0
,2.0,141ms_sad,1.0,141ms,0.15003610000030676,288.0,7.0,0.8357101999999941,sad,study2,40.0,47.0
,2.0,141ms_neutral,1.0,141ms,0.14939619999995554,291.0,8.0,0.7396297000004779,neutral,study2,40.0,50.0
,2.0,16ms_neutral,0.0,16ms,0.015846199999941746,292.0,7.0,1.2263462999999322,neutral,study2,40.0,51.0
,2.0,16ms_happy,1.0,16ms,0.016412599999966915,293.0,9.0,1.0732409000002008,happy,study2,40.0,52.0
,2.0,25ms_neutral,1.0,25ms,0.024585599998772526,295.0,8.0,0.7430215000003955,neutral,study2,40.0,54.0
,2.0,16ms_happy,1.0,16ms,0.01655979999986812,298.0,9.0,1.3929922000006627,happy,study2,40.0,57.0
,2.0,141ms_happy,1.0,141ms,0.1495915000000423,299.0,9.0,0.5851875999996992,happy,study2,40.0,58.0
,2.0,25ms_happy,1.0,25ms,0.024370099999941885,300.0,9.0,0.8533648000002358,happy,study2,40.0,59.0
,2.0,16ms_sad,0.0,16ms,0.015937099999973725,301.0,9.0,1.2799424999993791,sad,study2,40.0,60.0
,2.0,25ms_neutral,1.0,25ms,0.02437730000019656,302.0,8.0,1.0402291000000332,neutral,study2,40.0,61.0
,2.0,141ms_sad,1.0,141ms,0.14972249999937048,304.0,7.0,1.312127099999998,sad,study2,40.0,63.0
,2.0,141ms_happy,1.0,141ms,0.1493508000003203,306.0,9.0,0.6610430999999153,happy,study2,40.0,65.0
,2.0,25ms_happy,1.0,25ms,0.02481339999894772,309.0,9.0,0.6717403000002378,happy,study2,40.0,68.0
,2.0,16ms_neutral,1.0,16ms,0.01603030000023864,310.0,8.0,1.062644700000419,neutral,study2,40.0,69.0
,2.0,141ms_sad,1.0,141ms,0.1498237999999219,311.0,7.0,1.3617543999998816,sad,study2,40.0,70.0
,2.0,16ms_happy,1.0,16ms,0.01647899999989022,312.0,9.0,0.6452255000003788,happy,study2,40.0,71.0
,2.0,141ms_happy,1.0,141ms,0.14983089999941512,313.0,9.0,0.5449945000000298,happy,study2,40.0,72.0
,2.0,16ms_neutral,0.0,16ms,0.01631309999993391,314.0,9.0,1.2807485000002998,neutral,study2,40.0,73.0
,2.0,25ms_neutral,1.0,25ms,0.024276899999676967,316.0,8.0,0.8502178999997341,neutral,study2,40.0,75.0
,2.0,141ms_sad,1.0,141ms,0.14993879999974524,321.0,7.0,1.396426799999972,sad,study2,40.0,80.0
,2.0,16ms_happy,1.0,16ms,0.016381700000238197,322.0,9.0,1.3840966999996454,happy,study2,40.0,81.0
,2.0,141ms_sad,0.0,141ms,0.14932319999979882,323.0,9.0,0.5644179999999324,sad,study2,40.0,82.0
,2.0,141ms_sad,1.0,141ms,0.1497878000000128,325.0,7.0,0.8431516000000556,sad,study2,40.0,84.0
,2.0,141ms_happy,1.0,141ms,0.14970639999955893,327.0,9.0,1.0025831000002654,happy,study2,40.0,86.0
,2.0,141ms_neutral,1.0,141ms,0.14945710000029067,328.0,8.0,1.1138305999993463,neutral,study2,40.0,87.0
,2.0,25ms_neutral,1.0,25ms,0.02425799999991796,331.0,8.0,1.0205610000002707,neutral,study2,40.0,90.0
,2.0,141ms_sad,1.0,141ms,0.14915309999969395,332.0,7.0,1.0045710999993391,sad,study2,40.0,91.0
,2.0,141ms_happy,1.0,141ms,0.1496194000005744,335.0,9.0,0.6786376999998538,happy,study2,40.0,94.0
,2.0,25ms_happy,1.0,25ms,0.02471070000092368,336.0,9.0,0.5621934000000692,happy,study2,40.0,95.0
,2.0,25ms_happy,1.0,25ms,0.02444280000099752,337.0,9.0,0.7240452999994886,happy,study2,40.0,96.0
,2.0,25ms_happy,1.0,25ms,0.024772000000211847,338.0,9.0,0.6692105000001902,happy,study2,40.0,97.0
,2.0,16ms_happy,1.0,16ms,0.01601059999939025,340.0,9.0,0.8475645999997141,happy,study2,40.0,99.0
,2.0,141ms_sad,1.0,141ms,0.14928679999911765,341.0,7.0,0.8799129999997604,sad,study2,40.0,100.0
,2.0,141ms_happy,1.0,141ms,0.14934990000119794,342.0,9.0,1.0631112000000942,happy,study2,40.0,101.0
,2.0,141ms_happy,1.0,141ms,0.14948109999977532,343.0,9.0,0.8017337000001135,happy,study2,40.0,102.0
,2.0,141ms_neutral,1.0,141ms,0.14929419999953095,345.0,8.0,0.5800986000003832,neutral,study2,40.0,104.0
,2.0,16ms_sad,0.0,16ms,0.016450000000077125,346.0,8.0,1.036025499999596,sad,study2,40.0,105.0
,2.0,25ms_neutral,1.0,25ms,0.024279200001274148,347.0,8.0,0.9801362999996854,neutral,study2,40.0,106.0
,2.0,16ms_happy,1.0,16ms,0.016244299999925715,349.0,9.0,0.7954379000002518,happy,study2,40.0,108.0
,2.0,141ms_happy,1.0,141ms,0.14945899999975154,350.0,9.0,0.5154653999998118,happy,study2,40.0,109.0
,2.0,25ms_sad,0.0,25ms,0.024840600000061386,352.0,8.0,0.8387201000005007,sad,study2,40.0,111.0
,2.0,16ms_happy,1.0,16ms,0.01633750000019063,353.0,9.0,0.6029932999999801,happy,study2,40.0,112.0
,2.0,16ms_sad,0.0,16ms,0.016492299999299576,355.0,9.0,0.6365256999997655,sad,study2,40.0,114.0
,2.0,141ms_sad,1.0,141ms,0.14936330000000453,356.0,7.0,1.3950819000001502,sad,study2,40.0,115.0
,2.0,25ms_happy,1.0,25ms,0.025098899999647983,359.0,9.0,0.6863259000001563,happy,study2,40.0,118.0
,2.0,141ms_neutral,1.0,141ms,0.14933779999910254,360.0,8.0,0.9259313999991718,neutral,study2,40.0,119.0
,0.0,141ms_sad,1.0,141ms,0.1673450699950081,4.0,sad,0.9041579000186176,sad,study1,17.0,0.0
,0.0,25ms_happy,1.0,25ms,0.0264761700004783,7.0,happy,1.1098322000470944,happy,study1,17.0,3.0
,0.0,141ms_sad,1.0,141ms,0.16892977001270992,8.0,sad,0.9237748999730684,sad,study1,17.0,4.0
,0.0,141ms_sad,1.0,141ms,0.16148707003458185,9.0,sad,1.4615066000260413,sad,study1,17.0,5.0
,0.0,141ms_neutral,1.0,141ms,0.16101667000293673,10.0,neutral,0.6681518999976106,neutral,study1,17.0,6.0
,0.0,25ms_neutral,1.0,25ms,0.02702426998303054,11.0,neutral,1.3103701000218275,neutral,study1,17.0,7.0
,0.0,25ms_happy,1.0,25ms,0.02625746996500311,12.0,happy,0.5731529999757186,happy,study1,17.0,8.0
,0.0,25ms_neutral,1.0,25ms,0.02629547002197796,13.0,neutral,0.812386300007347,neutral,study1,17.0,9.0
,0.0,25ms_happy,1.0,25ms,0.02748456999506743,14.0,happy,0.6651539999875239,happy,study1,17.0,10.0
,0.0,25ms_sad,0.0,25ms,0.022945270006857758,15.0,neutral,1.2771728999796323,sad,study1,17.0,11.0
,0.0,141ms_happy,1.0,141ms,0.1310134700092931,17.0,happy,0.4873916999786161,happy,study1,17.0,13.0
,0.0,141ms_happy,1.0,141ms,0.13502077002203805,18.0,happy,0.3654088000184856,happy,study1,17.0,14.0
,0.0,25ms_neutral,1.0,25ms,0.02559447003841342,19.0,neutral,0.7169424000312574,neutral,study1,17.0,15.0
,0.0,141ms_sad,1.0,141ms,0.13655396999683944,20.0,sad,0.4664373999694362,sad,study1,17.0,16.0
,0.0,141ms_happy,1.0,141ms,0.1358894700010751,21.0,happy,0.3873616999480873,happy,study1,17.0,17.0
,0.0,25ms_happy,1.0,25ms,0.02649486996824635,22.0,happy,0.4530983999720775,happy,study1,17.0,18.0
,0.0,25ms_happy,1.0,25ms,0.023189069999716597,23.0,happy,0.4253964000381529,happy,study1,17.0,19.0
,0.0,25ms_happy,1.0,25ms,0.02606746997344089,24.0,happy,0.44245620002038777,happy,study1,17.0,20.0
,0.0,141ms_sad,1.0,141ms,0.1665994700219926,25.0,sad,0.4626589000108652,sad,study1,17.0,21.0
,0.0,25ms_sad,0.0,25ms,0.023087169980499308,26.0,neutral,1.260112099989783,sad,study1,17.0,22.0
,0.0,141ms_happy,1.0,141ms,0.13279527001395766,27.0,happy,0.3373576999874785,happy,study1,17.0,23.0
,0.0,25ms_happy,1.0,25ms,0.022278269992057176,28.0,happy,0.4150611000368372,happy,study1,17.0,24.0
,0.0,141ms_neutral,1.0,141ms,0.15653356997654555,29.0,neutral,0.4556116999592632,neutral,study1,17.0,25.0
,0.0,141ms_happy,1.0,141ms,0.13053836999961274,30.0,happy,0.453737000003457,happy,study1,17.0,26.0
,0.0,141ms_happy,1.0,141ms,0.13563947001784982,31.0,happy,0.2505991000216454,happy,study1,17.0,27.0
,0.0,141ms_sad,1.0,141ms,0.16987886996321322,32.0,sad,0.4080471000052057,sad,study1,17.0,28.0
,0.0,25ms_neutral,1.0,25ms,0.02513746999329669,33.0,neutral,0.5757600000360981,neutral,study1,17.0,29.0
,0.0,141ms_neutral,0.0,141ms,0.16795866995289546,34.0,sad,0.4034589999937453,neutral,study1,17.0,30.0
,0.0,25ms_neutral,0.0,25ms,0.026754770026855116,35.0,happy,0.7396709999884479,neutral,study1,17.0,31.0
,0.0,141ms_neutral,1.0,141ms,0.16121436999628713,36.0,neutral,0.36249700002372265,neutral,study1,17.0,32.0
,0.0,141ms_neutral,1.0,141ms,0.15799807001030786,37.0,neutral,0.4340925000142306,neutral,study1,17.0,33.0
,0.0,141ms_neutral,1.0,141ms,0.16110207001338495,38.0,neutral,0.34490319999167696,neutral,study1,17.0,34.0
,0.0,25ms_happy,1.0,25ms,0.025522470014038845,39.0,happy,0.4996399999945425,happy,study1,17.0,35.0
,0.0,25ms_sad,1.0,25ms,0.02704307000976769,40.0,sad,1.0071678999811409,sad,study1,17.0,36.0
,0.0,141ms_neutral,1.0,141ms,0.15693687002158185,41.0,neutral,0.5966190000181086,neutral,study1,17.0,37.0
,0.0,25ms_sad,0.0,25ms,0.02319646994101276,42.0,happy,0.7753387999837287,sad,study1,17.0,38.0
,0.0,141ms_neutral,1.0,141ms,0.1570684699750018,43.0,neutral,0.3840277999988757,neutral,study1,17.0,39.0
,0.0,25ms_sad,0.0,25ms,0.02276097000003574,44.0,happy,1.0613233000040054,sad,study1,17.0,40.0
,0.0,25ms_happy,1.0,25ms,0.026895969995621268,45.0,happy,0.7715744999586605,happy,study1,17.0,41.0
,0.0,25ms_happy,1.0,25ms,0.023316869984228102,46.0,happy,0.5315943000023253,happy,study1,17.0,42.0
,0.0,141ms_sad,1.0,141ms,0.13591556996698273,47.0,sad,0.887649699987378,sad,study1,17.0,43.0
,0.0,25ms_happy,1.0,25ms,0.022463570006038932,48.0,happy,0.6053819999797271,happy,study1,17.0,44.0
,0.0,141ms_sad,1.0,141ms,0.13722766994578706,49.0,sad,0.6812292999820784,sad,study1,17.0,45.0
,0.0,141ms_neutral,1.0,141ms,0.16146616999230898,50.0,neutral,0.4412999000051059,neutral,study1,17.0,46.0
,0.0,25ms_happy,1.0,25ms,0.02264037001350516,51.0,happy,0.7615053000045009,happy,study1,17.0,47.0
,0.0,141ms_neutral,1.0,141ms,0.1585257700121474,52.0,neutral,0.3875580999883823,neutral,study1,17.0,48.0
,0.0,141ms_neutral,1.0,141ms,0.15830056998538564,53.0,neutral,0.5963116000057198,neutral,study1,17.0,49.0
,0.0,25ms_happy,1.0,25ms,0.022014969965766795,54.0,happy,0.8624518999713473,happy,study1,17.0,50.0
,0.0,25ms_neutral,1.0,25ms,0.02670816996214853,56.0,neutral,0.6968377999728546,neutral,study1,17.0,52.0
,0.0,141ms_happy,1.0,141ms,0.1615848700225797,57.0,happy,0.5161130000487901,happy,study1,17.0,53.0
,0.0,25ms_neutral,1.0,25ms,0.027472369961742515,58.0,neutral,0.7171249000239186,neutral,study1,17.0,54.0
,0.0,25ms_neutral,1.0,25ms,0.02521307004462869,59.0,neutral,0.6812312999973074,neutral,study1,17.0,55.0
,0.0,141ms_happy,1.0,141ms,0.1360737700078971,60.0,happy,0.3742077000206336,happy,study1,17.0,56.0
,0.0,25ms_neutral,1.0,25ms,0.02573456994150547,61.0,neutral,0.5701757000060752,neutral,study1,17.0,57.0
,0.0,141ms_neutral,1.0,141ms,0.16944506997879216,62.0,neutral,0.696716699982062,neutral,study1,17.0,58.0
,0.0,141ms_neutral,1.0,141ms,0.15656526998509435,63.0,neutral,0.3212653000373393,neutral,study1,17.0,59.0
,0.0,141ms_sad,0.0,141ms,0.13405637001278592,64.0,neutral,0.3059392999857664,sad,study1,17.0,60.0
,0.0,141ms_neutral,1.0,141ms,0.16211397003507955,65.0,neutral,0.531608400051482,neutral,study1,17.0,61.0
,0.0,141ms_happy,1.0,141ms,0.13750796998465376,66.0,happy,0.47585259994957596,happy,study1,17.0,62.0
,0.0,25ms_happy,1.0,25ms,0.023273169999811216,67.0,happy,0.7330921000102535,happy,study1,17.0,63.0
,0.0,141ms_happy,1.0,141ms,0.13842906995523666,68.0,happy,0.2985150000313297,happy,study1,17.0,64.0
,0.0,141ms_happy,1.0,141ms,0.16867226997328544,71.0,happy,0.4124995999736712,happy,study1,17.0,67.0
,0.0,25ms_happy,1.0,25ms,0.02328547003617132,72.0,happy,0.7958723999909125,happy,study1,17.0,68.0
,0.0,141ms_sad,1.0,141ms,0.13053826999930607,73.0,sad,0.5489753999863751,sad,study1,17.0,69.0
,0.0,25ms_happy,1.0,25ms,0.02640917001372145,75.0,happy,0.4991823000018485,happy,study1,17.0,71.0
,0.0,25ms_happy,1.0,25ms,0.02623846999495072,76.0,happy,0.5194496000185609,happy,study1,17.0,72.0
,0.0,25ms_sad,1.0,25ms,0.026334869972288292,77.0,sad,0.79944680002518,sad,study1,17.0,73.0
,0.0,141ms_happy,1.0,141ms,0.1593813700078499,78.0,happy,0.3664737000362948,happy,study1,17.0,74.0
,0.0,25ms_sad,1.0,25ms,0.0259437700210583,79.0,sad,0.7325922999880277,sad,study1,17.0,75.0
,0.0,141ms_neutral,1.0,141ms,0.16333537002219597,80.0,neutral,0.4841596999904141,neutral,study1,17.0,76.0
,0.0,141ms_sad,0.0,141ms,0.13728736999337346,81.0,neutral,0.396010699972976,sad,study1,17.0,77.0
,0.0,25ms_happy,1.0,25ms,0.0264269700337536,82.0,happy,0.4811040000058711,happy,study1,17.0,78.0
,0.0,141ms_sad,1.0,141ms,0.13368446997492356,83.0,sad,0.6025063999695703,sad,study1,17.0,79.0
,0.0,25ms_sad,0.0,25ms,0.022862269956931414,84.0,happy,1.3006544000236318,sad,study1,17.0,80.0
,0.0,25ms_sad,0.0,25ms,0.022531069995693542,85.0,neutral,0.8500680000288412,sad,study1,17.0,81.0
,0.0,141ms_happy,1.0,141ms,0.13504147000458033,86.0,happy,0.4401740999892354,happy,study1,17.0,82.0
,0.0,25ms_sad,0.0,25ms,0.0233355699515414,87.0,neutral,0.5892919999896549,sad,study1,17.0,83.0
,0.0,25ms_sad,0.0,25ms,0.02331556997523876,88.0,neutral,1.1770250999834388,sad,study1,17.0,84.0
,0.0,141ms_sad,1.0,141ms,0.13368926995326547,89.0,sad,0.4990192000404932,sad,study1,17.0,85.0
,0.0,141ms_neutral,1.0,141ms,0.16149437003196,90.0,neutral,1.1067170000169426,neutral,study1,17.0,86.0
,0.0,141ms_happy,1.0,141ms,0.16406346997928267,91.0,happy,0.4530061000259593,happy,study1,17.0,87.0
,0.0,141ms_sad,1.0,141ms,0.1321300700133179,92.0,sad,0.6063525000354275,sad,study1,17.0,88.0
,0.0,141ms_sad,1.0,141ms,0.13669717003995174,93.0,sad,0.5039638000307605,sad,study1,17.0,89.0
,0.0,25ms_sad,1.0,25ms,0.022836769995137732,94.0,sad,0.9475441999966279,sad,study1,17.0,90.0
,0.0,141ms_neutral,1.0,141ms,0.16594286996996746,95.0,neutral,0.4286455999827013,neutral,study1,17.0,91.0
,0.0,25ms_sad,1.0,25ms,0.022501970007397176,96.0,sad,0.7807890999829397,sad,study1,17.0,92.0
,0.0,141ms_sad,0.0,141ms,0.13642107003306592,97.0,neutral,0.8256582000176422,sad,study1,17.0,93.0
,0.0,25ms_sad,0.0,25ms,0.02630446997409308,98.0,neutral,0.4307749000145121,sad,study1,17.0,94.0
,0.0,141ms_sad,1.0,141ms,0.16215166997335473,99.0,sad,0.4197754000197165,sad,study1,17.0,95.0
,0.0,25ms_neutral,0.0,25ms,0.028355469992220605,100.0,sad,0.9893803999875672,neutral,study1,17.0,96.0
,0.0,141ms_happy,1.0,141ms,0.16024067003263553,101.0,happy,0.3505422999733128,happy,study1,17.0,97.0
,0.0,25ms_neutral,1.0,25ms,0.025019669969424285,102.0,neutral,0.8044414000469259,neutral,study1,17.0,98.0
,0.0,141ms_neutral,1.0,141ms,0.15991336998422412,104.0,neutral,0.8217778999824077,neutral,study1,17.0,100.0
,0.0,141ms_sad,1.0,141ms,0.16157846997384695,105.0,sad,0.44222219998482615,sad,study1,17.0,101.0
,0.0,25ms_happy,1.0,25ms,0.026177469995673164,106.0,happy,0.6642212000442669,happy,study1,17.0,102.0
,0.0,25ms_sad,1.0,25ms,0.0251176700180622,107.0,sad,0.6093182999757119,sad,study1,17.0,103.0
,0.0,25ms_sad,0.0,25ms,0.02591487003428483,108.0,neutral,0.6800871999585071,sad,study1,17.0,104.0
,0.0,141ms_happy,1.0,141ms,0.13255067001546195,109.0,happy,0.3765767000149936,happy,study1,17.0,105.0
,0.0,141ms_neutral,0.0,141ms,0.1649733699796343,110.0,sad,0.2633092000032775,neutral,study1,17.0,106.0
,0.0,25ms_happy,1.0,25ms,0.02660377003985559,111.0,happy,0.5501708999508992,happy,study1,17.0,107.0
,0.0,141ms_sad,1.0,141ms,0.13529586996264698,112.0,sad,0.39977019996149465,sad,study1,17.0,108.0
,0.0,141ms_neutral,1.0,141ms,0.15754607000280885,113.0,neutral,0.3795856000506319,neutral,study1,17.0,109.0
,0.0,141ms_sad,0.0,141ms,0.13762507000365076,114.0,neutral,0.2600800000363961,sad,study1,17.0,110.0
,0.0,25ms_happy,1.0,25ms,0.02581686998610166,115.0,happy,0.5859595999936573,happy,study1,17.0,111.0
,0.0,141ms_neutral,1.0,141ms,0.17135416996279673,116.0,neutral,0.5288461999734864,neutral,study1,17.0,112.0
,0.0,25ms_sad,1.0,25ms,0.02522607002765653,117.0,sad,0.7211650999961421,sad,study1,17.0,113.0
,0.0,141ms_happy,1.0,141ms,0.15633867000542526,118.0,happy,0.4209821000113152,happy,study1,17.0,114.0
,0.0,141ms_happy,1.0,141ms,0.1630868699930943,119.0,happy,0.377968700020574,happy,study1,17.0,115.0
,0.0,25ms_sad,1.0,25ms,0.026982770016729773,120.0,sad,1.445166799996514,sad,study1,17.0,116.0
,0.0,25ms_neutral,1.0,25ms,0.025953170034426883,121.0,neutral,0.6242614999646321,neutral,study1,17.0,117.0
,0.0,25ms_neutral,1.0,25ms,0.02684937004823951,122.0,neutral,1.1206406999845058,neutral,study1,17.0,118.0
,0.0,25ms_neutral,1.0,25ms,0.025680369994461216,123.0,neutral,0.6399257999728434,neutral,study1,17.0,119.0
,1.0,16ms_sad,0.0,16ms,0.015025570004581825,124.0,neutral,1.2434537000372077,sad,study1,17.0,0.0
,1.0,16ms_neutral,1.0,16ms,0.017229470022812166,125.0,neutral,0.5572257000021636,neutral,study1,17.0,1.0
,1.0,141ms_sad,1.0,141ms,0.16007097002011506,126.0,sad,0.5455883999820799,sad,study1,17.0,2.0
,1.0,16ms_sad,0.0,16ms,0.015709769976183452,127.0,neutral,0.8300267999875359,sad,study1,17.0,3.0
,1.0,141ms_neutral,1.0,141ms,0.15831837000450832,128.0,neutral,0.9544823999749495,neutral,study1,17.0,4.0
,1.0,16ms_neutral,1.0,16ms,0.017221870024059168,129.0,neutral,0.5665439000003971,neutral,study1,17.0,5.0
,1.0,16ms_sad,0.0,16ms,0.015142769966587366,130.0,neutral,0.6346794000128284,sad,study1,17.0,6.0
,1.0,16ms_neutral,1.0,16ms,0.017027569998845138,131.0,neutral,0.5262651000521146,neutral,study1,17.0,7.0
,1.0,16ms_sad,0.0,16ms,0.015192169992133131,132.0,neutral,0.5318124999757856,sad,study1,17.0,8.0
,1.0,141ms_sad,1.0,141ms,0.13517736999210686,133.0,sad,0.5094228999805637,sad,study1,17.0,9.0
,1.0,141ms_neutral,1.0,141ms,0.16412787000308526,134.0,neutral,1.0628644999815149,neutral,study1,17.0,10.0
,1.0,141ms_neutral,1.0,141ms,0.15850467002564986,135.0,neutral,0.5026176000246778,neutral,study1,17.0,11.0
,1.0,16ms_sad,0.0,16ms,0.014964070001951768,136.0,neutral,0.5948971000034362,sad,study1,17.0,12.0
,1.0,141ms_happy,1.0,141ms,0.13570587000003798,137.0,happy,0.4577930999803357,happy,study1,17.0,13.0
,1.0,141ms_happy,1.0,141ms,0.16708607000191478,138.0,happy,0.3468021999578923,happy,study1,17.0,14.0
,1.0,141ms_neutral,1.0,141ms,0.1597209699752966,139.0,neutral,0.6979921000311151,neutral,study1,17.0,15.0
,1.0,141ms_neutral,1.0,141ms,0.15757477004717654,140.0,neutral,0.29242220002925023,neutral,study1,17.0,16.0
,1.0,141ms_happy,1.0,141ms,0.16974647000324694,141.0,happy,0.3489225000375882,happy,study1,17.0,17.0
,1.0,16ms_sad,0.0,16ms,0.015498769998885109,142.0,neutral,1.0046386000467464,sad,study1,17.0,18.0
,1.0,16ms_happy,0.0,16ms,0.015308770008232388,143.0,neutral,0.5623738000285812,happy,study1,17.0,19.0
,1.0,16ms_happy,0.0,16ms,0.014937370032384932,144.0,neutral,0.6856841999688186,happy,study1,17.0,20.0
,1.0,16ms_happy,0.0,16ms,0.015094470005806215,145.0,neutral,0.6315315000247211,happy,study1,17.0,21.0
,1.0,141ms_sad,1.0,141ms,0.13708516996712206,146.0,sad,0.42791819997364655,sad,study1,17.0,22.0
,1.0,16ms_neutral,1.0,16ms,0.01637486997697124,147.0,neutral,1.0606474000378512,neutral,study1,17.0,23.0
,1.0,141ms_neutral,1.0,141ms,0.15523336997148365,148.0,neutral,0.6438898000051267,neutral,study1,17.0,24.0
,1.0,141ms_happy,1.0,141ms,0.13517207001041245,149.0,happy,0.4079511999734677,happy,study1,17.0,25.0
,1.0,141ms_neutral,1.0,141ms,0.16008377000116525,150.0,neutral,0.5893050000304356,neutral,study1,17.0,26.0
,1.0,141ms_happy,1.0,141ms,0.15987576998850273,151.0,happy,0.4279461000114679,happy,study1,17.0,27.0
,1.0,16ms_sad,0.0,16ms,0.015397769986520869,152.0,neutral,0.5287185999914072,sad,study1,17.0,28.0
,1.0,16ms_happy,1.0,16ms,0.018318369990993236,153.0,happy,0.6733421999961138,happy,study1,17.0,29.0
,1.0,141ms_happy,1.0,141ms,0.1356347699820617,154.0,happy,0.3156814000103623,happy,study1,17.0,30.0
,1.0,141ms_happy,1.0,141ms,0.16273476998912886,155.0,happy,0.3385235000168905,happy,study1,17.0,31.0
,1.0,16ms_neutral,0.0,16ms,0.01738376997582236,156.0,happy,0.6689380999887362,neutral,study1,17.0,32.0
,1.0,16ms_sad,0.0,16ms,0.015181469970229957,157.0,neutral,0.5225568999885581,sad,study1,17.0,33.0
,1.0,16ms_neutral,1.0,16ms,0.017475170031048037,158.0,neutral,0.7692873000050895,neutral,study1,17.0,34.0
,1.0,141ms_happy,1.0,141ms,0.13147967000804786,159.0,happy,0.37053060001926497,happy,study1,17.0,35.0
,1.0,16ms_neutral,1.0,16ms,0.017102769988923683,160.0,neutral,0.9703044000198132,neutral,study1,17.0,36.0
,1.0,16ms_neutral,1.0,16ms,0.01754336996737038,161.0,neutral,0.8695341999991797,neutral,study1,17.0,37.0
,1.0,16ms_happy,0.0,16ms,0.017655869951795466,162.0,neutral,0.7668554999982007,happy,study1,17.0,38.0
,1.0,141ms_happy,1.0,141ms,0.13409866998608774,163.0,happy,0.3487165999831632,happy,study1,17.0,39.0
,1.0,141ms_happy,1.0,141ms,0.13644507004073606,164.0,happy,0.2763104999903589,happy,study1,17.0,40.0
,1.0,141ms_neutral,1.0,141ms,0.1696007699997608,165.0,neutral,0.41882010002154857,neutral,study1,17.0,41.0
,1.0,141ms_happy,1.0,141ms,0.1358502699931705,166.0,happy,0.431217800010927,happy,study1,17.0,42.0
,1.0,16ms_happy,0.0,16ms,0.017085470032270678,167.0,neutral,0.6292188999941573,happy,study1,17.0,43.0
,1.0,16ms_sad,0.0,16ms,0.015221970045331544,168.0,neutral,0.4417038999963552,sad,study1,17.0,44.0
,1.0,141ms_neutral,1.0,141ms,0.1663765700136537,169.0,neutral,0.361923799966462,neutral,study1,17.0,45.0
,1.0,16ms_neutral,1.0,16ms,0.01742446999378444,170.0,neutral,0.4794095000252128,neutral,study1,17.0,46.0
,1.0,16ms_neutral,1.0,16ms,0.01642997004546487,172.0,neutral,1.0899422999937087,neutral,study1,17.0,48.0
,1.0,141ms_happy,1.0,141ms,0.13838627003769946,173.0,happy,0.3740091999643482,happy,study1,17.0,49.0
,1.0,16ms_happy,0.0,16ms,0.016650569980356522,174.0,neutral,0.846667299978435,happy,study1,17.0,50.0
,1.0,141ms_neutral,1.0,141ms,0.16340647003971753,175.0,neutral,0.5039678000030108,neutral,study1,17.0,51.0
,1.0,16ms_happy,1.0,16ms,0.015038969990200712,176.0,happy,1.2895655000465922,happy,study1,17.0,52.0
,1.0,16ms_happy,1.0,16ms,0.015458670043699385,177.0,happy,0.8121017999947071,happy,study1,17.0,53.0
,1.0,16ms_happy,0.0,16ms,0.015357570030573697,178.0,neutral,1.0692272000014782,happy,study1,17.0,54.0
,1.0,16ms_neutral,1.0,16ms,0.016576369996982976,180.0,neutral,0.7254077999969013,neutral,study1,17.0,56.0
,1.0,141ms_sad,1.0,141ms,0.1337181699982466,181.0,sad,0.4510976999881677,sad,study1,17.0,57.0
,1.0,16ms_neutral,1.0,16ms,0.01701806998516986,182.0,neutral,0.5774449000018649,neutral,study1,17.0,58.0
,1.0,141ms_sad,1.0,141ms,0.13076437003292085,183.0,sad,0.5105444000218995,sad,study1,17.0,59.0
,1.0,16ms_neutral,1.0,16ms,0.01754736999873785,184.0,neutral,0.5578932000207715,neutral,study1,17.0,60.0
,1.0,16ms_sad,0.0,16ms,0.015576269949178824,185.0,neutral,0.8419348999741487,sad,study1,17.0,61.0
,1.0,141ms_neutral,1.0,141ms,0.1514125699818578,186.0,neutral,0.5781701999949291,neutral,study1,17.0,62.0
,1.0,16ms_sad,0.0,16ms,0.01587477000975923,187.0,neutral,0.4885269000078552,sad,study1,17.0,63.0
,1.0,141ms_happy,1.0,141ms,0.13520287001165346,188.0,happy,0.42103720002342016,happy,study1,17.0,64.0
,1.0,141ms_neutral,1.0,141ms,0.16932017001681746,189.0,neutral,0.5904059000313282,neutral,study1,17.0,65.0
,1.0,141ms_sad,0.0,141ms,0.1379851700103245,190.0,neutral,1.0007412999984808,sad,study1,17.0,66.0
,1.0,141ms_happy,1.0,141ms,0.13135687000476534,191.0,happy,0.3465128999669105,happy,study1,17.0,67.0
,1.0,141ms_sad,1.0,141ms,0.15627077001272482,192.0,sad,0.4969940999872051,sad,study1,17.0,68.0
,1.0,141ms_neutral,1.0,141ms,0.15823716996828807,193.0,neutral,0.5208126000361517,neutral,study1,17.0,69.0
,1.0,141ms_sad,1.0,141ms,0.15453417000207992,194.0,sad,0.4486919000046328,sad,study1,17.0,70.0
,1.0,141ms_neutral,0.0,141ms,0.1618474700430852,196.0,sad,0.6814527999958955,neutral,study1,17.0,72.0
,1.0,16ms_sad,1.0,16ms,0.016722370003208198,197.0,sad,1.0500867000082508,sad,study1,17.0,73.0
,1.0,16ms_neutral,1.0,16ms,0.0171559699874706,198.0,neutral,0.6780774000217207,neutral,study1,17.0,74.0
,1.0,141ms_sad,1.0,141ms,0.13056167000286226,199.0,sad,0.4535013999557122,sad,study1,17.0,75.0
,1.0,141ms_neutral,1.0,141ms,0.1559868700046536,200.0,neutral,0.5565178999677299,neutral,study1,17.0,76.0
,1.0,16ms_sad,0.0,16ms,0.015047569997477694,201.0,neutral,0.5457169999717735,sad,study1,17.0,77.0
,1.0,16ms_neutral,1.0,16ms,0.01652346994387699,202.0,neutral,0.8299673000001349,neutral,study1,17.0,78.0
,1.0,141ms_happy,1.0,141ms,0.13100907003354226,203.0,happy,0.38707460003206506,happy,study1,17.0,79.0
,1.0,141ms_neutral,1.0,141ms,0.16926106997379975,204.0,neutral,0.417999500001315,neutral,study1,17.0,80.0
,1.0,141ms_happy,1.0,141ms,0.1355214699924545,205.0,happy,0.4068717999616638,happy,study1,17.0,81.0
,1.0,16ms_happy,0.0,16ms,0.017186969990234502,206.0,neutral,0.5231981999822892,happy,study1,17.0,82.0
,1.0,141ms_happy,1.0,141ms,0.1301426700142656,207.0,happy,0.4378877999843098,happy,study1,17.0,83.0
,1.0,141ms_neutral,1.0,141ms,0.15883526998186426,208.0,neutral,0.5941331000067294,neutral,study1,17.0,84.0
,1.0,141ms_neutral,1.0,141ms,0.1534872700053711,209.0,neutral,0.4595022000139579,neutral,study1,17.0,85.0
,1.0,141ms_happy,1.0,141ms,0.13641916995993594,210.0,happy,0.31734069995582104,happy,study1,17.0,86.0
,1.0,141ms_sad,1.0,141ms,0.13040816999773594,211.0,sad,0.5872882000403479,sad,study1,17.0,87.0
,1.0,16ms_sad,0.0,16ms,0.01580316998933995,212.0,neutral,1.0091973000089638,sad,study1,17.0,88.0
,1.0,141ms_happy,1.0,141ms,0.13501177001217002,213.0,happy,0.4734334000386298,happy,study1,17.0,89.0
,1.0,141ms_happy,1.0,141ms,0.13524227002062614,214.0,happy,0.34172869997564703,happy,study1,17.0,90.0
,1.0,16ms_sad,0.0,16ms,0.015807269961442216,215.0,neutral,0.5480149000068195,sad,study1,17.0,91.0
,1.0,141ms_sad,1.0,141ms,0.1354554700137669,216.0,sad,0.3935304000042379,sad,study1,17.0,92.0
,1.0,141ms_neutral,1.0,141ms,0.15685636998978225,217.0,neutral,0.31517399998847395,neutral,study1,17.0,93.0
,1.0,141ms_sad,1.0,141ms,0.16078717000164033,218.0,sad,0.36701320001157,sad,study1,17.0,94.0
,1.0,16ms_neutral,1.0,16ms,0.017886170018300618,219.0,neutral,0.7313110999530181,neutral,study1,17.0,95.0
,1.0,141ms_happy,1.0,141ms,0.13390757004390252,220.0,happy,0.40666740003507584,happy,study1,17.0,96.0
,1.0,141ms_sad,1.0,141ms,0.13631927001506486,222.0,sad,0.5191484999959357,sad,study1,17.0,98.0
,1.0,16ms_sad,0.0,16ms,0.017052070010777243,223.0,neutral,0.5442392999539152,sad,study1,17.0,99.0
,1.0,16ms_neutral,1.0,16ms,0.017804670037094183,224.0,neutral,0.4659504999872297,neutral,study1,17.0,100.0
,1.0,141ms_happy,1.0,141ms,0.13575486996523978,225.0,happy,0.2923617000342347,happy,study1,17.0,101.0
,1.0,141ms_sad,1.0,141ms,0.13592787000288808,226.0,sad,0.4905095999711193,sad,study1,17.0,102.0
,1.0,141ms_neutral,1.0,141ms,0.15867546998788384,227.0,neutral,0.33050869998987764,neutral,study1,17.0,103.0
,1.0,16ms_happy,0.0,16ms,0.01534497005150115,228.0,neutral,0.497926699987147,happy,study1,17.0,104.0
,1.0,16ms_neutral,1.0,16ms,0.01735206996636407,229.0,neutral,0.4501921000191942,neutral,study1,17.0,105.0
,1.0,141ms_sad,1.0,141ms,0.13814286998922398,230.0,sad,0.4896333999931812,sad,study1,17.0,106.0
,1.0,16ms_happy,0.0,16ms,0.014779469994664398,231.0,neutral,0.5003444000030868,happy,study1,17.0,107.0
,1.0,141ms_sad,1.0,141ms,0.16091837001158638,232.0,sad,0.6406652000150643,sad,study1,17.0,108.0
,1.0,141ms_sad,1.0,141ms,0.13521656999955667,233.0,sad,0.4210742000141181,sad,study1,17.0,109.0
,1.0,16ms_happy,1.0,16ms,0.017743369977779366,234.0,happy,0.6163553000078537,happy,study1,17.0,110.0
,1.0,16ms_neutral,1.0,16ms,0.016977270023289748,235.0,neutral,0.8117050000000745,neutral,study1,17.0,111.0
,1.0,16ms_sad,0.0,16ms,0.015867469954628174,236.0,neutral,0.6937894999864511,sad,study1,17.0,112.0
,1.0,16ms_happy,1.0,16ms,0.01559147000671146,237.0,happy,0.9129441999830306,happy,study1,17.0,113.0
,1.0,16ms_sad,0.0,16ms,0.01697796997086698,238.0,neutral,0.6295370000298135,sad,study1,17.0,114.0
,1.0,16ms_happy,1.0,16ms,0.017192669975429453,239.0,happy,0.6701112000155263,happy,study1,17.0,115.0
,1.0,16ms_neutral,1.0,16ms,0.01749576995462121,240.0,neutral,0.6693462999537587,neutral,study1,17.0,116.0
,1.0,16ms_neutral,1.0,16ms,0.017078470037176885,241.0,neutral,0.5176318000303581,neutral,study1,17.0,117.0
,1.0,16ms_neutral,1.0,16ms,0.017262269981529244,242.0,neutral,0.5100260999752209,neutral,study1,17.0,118.0
,1.0,16ms_sad,0.0,16ms,0.015513969998664834,243.0,neutral,1.1240692000137642,sad,study1,17.0,119.0
,2.0,8ms_happy,0.0,8ms,0.008320269995692797,244.0,neutral,1.3468405000166968,happy,study1,17.0,0.0
,2.0,8ms_happy,0.0,8ms,0.008320269995692797,245.0,neutral,1.0625263000256382,happy,study1,17.0,1.0
,2.0,141ms_sad,1.0,141ms,0.1356208699939998,246.0,sad,0.4558100000140257,sad,study1,17.0,2.0
,2.0,141ms_happy,1.0,141ms,0.1587362699856385,247.0,happy,0.3418685999931768,happy,study1,17.0,3.0
,2.0,141ms_sad,1.0,141ms,0.13156446995526494,248.0,sad,0.4722732999944128,sad,study1,17.0,4.0
,2.0,8ms_neutral,1.0,8ms,0.008320269996147545,249.0,neutral,0.7007245999993756,neutral,study1,17.0,5.0
,2.0,8ms_neutral,1.0,8ms,0.00832026999523805,250.0,neutral,0.491322299989406,neutral,study1,17.0,6.0
,2.0,141ms_neutral,0.0,141ms,0.15930036997406205,251.0,sad,0.2607956000138074,neutral,study1,17.0,7.0
,2.0,8ms_happy,0.0,8ms,0.008320269995692797,252.0,neutral,0.5584570000064559,happy,study1,17.0,8.0
,2.0,141ms_happy,1.0,141ms,0.1578622700244523,253.0,happy,0.2814265000051819,happy,study1,17.0,9.0
,2.0,8ms_neutral,1.0,8ms,0.008320269996602292,254.0,neutral,0.4002851999830455,neutral,study1,17.0,10.0
,2.0,141ms_neutral,0.0,141ms,0.16012987000294746,255.0,sad,0.3151386000099592,neutral,study1,17.0,11.0
,2.0,8ms_neutral,1.0,8ms,0.00832026999523805,256.0,neutral,0.4860061000217684,neutral,study1,17.0,12.0
,2.0,141ms_neutral,1.0,141ms,0.16934507003134058,257.0,neutral,0.4435869999579154,neutral,study1,17.0,13.0
,2.0,8ms_sad,0.0,8ms,0.008320269995692797,258.0,neutral,0.4772090999758802,sad,study1,17.0,14.0
,2.0,8ms_happy,0.0,8ms,0.008320269996602292,259.0,neutral,0.3800789000233635,happy,study1,17.0,15.0
,2.0,8ms_sad,0.0,8ms,0.00832026999523805,260.0,neutral,0.3831966000143439,sad,study1,17.0,16.0
,2.0,8ms_neutral,1.0,8ms,0.008320269995692797,261.0,neutral,0.4880558999720961,neutral,study1,17.0,17.0
,2.0,8ms_sad,0.0,8ms,0.00832026999523805,262.0,neutral,0.4676502000074834,sad,study1,17.0,18.0
,2.0,8ms_neutral,1.0,8ms,0.008320269995692797,263.0,neutral,0.25667440000688657,neutral,study1,17.0,19.0
,2.0,141ms_neutral,1.0,141ms,0.16698076995726294,264.0,neutral,0.4858522000140511,neutral,study1,17.0,20.0
,2.0,141ms_sad,1.0,141ms,0.13062176999528674,265.0,sad,0.41511559998616576,sad,study1,17.0,21.0
,2.0,141ms_happy,1.0,141ms,0.16891996999629555,266.0,happy,0.3521523000090383,happy,study1,17.0,22.0
,2.0,8ms_happy,0.0,8ms,0.008320269995692797,267.0,neutral,0.6415586000075564,happy,study1,17.0,23.0
,2.0,141ms_neutral,1.0,141ms,0.16134416999420864,268.0,neutral,0.4731358999852091,neutral,study1,17.0,24.0
,2.0,8ms_happy,0.0,8ms,0.008320269995692797,269.0,neutral,0.4753853000001982,happy,study1,17.0,25.0
,2.0,8ms_sad,0.0,8ms,0.008320269996147545,270.0,neutral,0.4501527000102215,sad,study1,17.0,26.0
,2.0,141ms_neutral,1.0,141ms,0.1607169699914266,271.0,neutral,0.31743530003586784,neutral,study1,17.0,27.0
,2.0,141ms_happy,1.0,141ms,0.13574647001860285,272.0,happy,0.4845346000511199,happy,study1,17.0,28.0
,2.0,141ms_neutral,1.0,141ms,0.15824147000057565,273.0,neutral,0.3521733999950811,neutral,study1,17.0,29.0
,2.0,141ms_neutral,1.0,141ms,0.15921846998935507,274.0,neutral,0.29003129998454824,neutral,study1,17.0,30.0
,2.0,141ms_sad,1.0,141ms,0.1673005699476562,275.0,sad,0.3448347000521608,sad,study1,17.0,31.0
,2.0,8ms_sad,0.0,8ms,0.00832026999523805,276.0,neutral,0.30437050003092736,sad,study1,17.0,32.0
,2.0,141ms_sad,1.0,141ms,0.13119356998322473,277.0,sad,0.5205905999755487,sad,study1,17.0,33.0
,2.0,141ms_neutral,1.0,141ms,0.1533926699830772,278.0,neutral,0.2545815999619663,neutral,study1,17.0,34.0
,2.0,8ms_happy,0.0,8ms,0.008320269995692797,279.0,neutral,0.3740595999988727,happy,study1,17.0,35.0
,2.0,141ms_sad,1.0,141ms,0.13796386996500587,280.0,sad,0.652065800037235,sad,study1,17.0,36.0
,2.0,8ms_happy,0.0,8ms,0.00832026999523805,281.0,neutral,0.5755428999545984,happy,study1,17.0,37.0
,2.0,141ms_neutral,1.0,141ms,0.15631836996772108,282.0,neutral,0.5215584000106901,neutral,study1,17.0,38.0
,2.0,8ms_neutral,1.0,8ms,0.008320269996147545,283.0,neutral,0.4316094000241719,neutral,study1,17.0,39.0
,2.0,141ms_neutral,1.0,141ms,0.16164816998116294,284.0,neutral,0.12236790003953504,neutral,study1,17.0,40.0
,2.0,141ms_happy,1.0,141ms,0.16933776997575478,285.0,happy,0.3404364999732934,happy,study1,17.0,41.0
,2.0,141ms_sad,1.0,141ms,0.13796566997734772,286.0,sad,0.7814712999970652,sad,study1,17.0,42.0
,2.0,8ms_happy,0.0,8ms,0.008320269994783303,287.0,neutral,0.49576239997986704,happy,study1,17.0,43.0
,2.0,8ms_happy,0.0,8ms,0.008320269995692797,288.0,neutral,0.3795435000211,happy,study1,17.0,44.0
,2.0,141ms_sad,1.0,141ms,0.13461256999880788,289.0,sad,0.5622840999858454,sad,study1,17.0,45.0
,2.0,8ms_neutral,1.0,8ms,0.008320269996147545,290.0,neutral,0.39430479996372014,neutral,study1,17.0,46.0
,2.0,141ms_sad,1.0,141ms,0.13033257000461165,291.0,sad,0.3945832999888808,sad,study1,17.0,47.0
,2.0,8ms_sad,0.0,8ms,0.008320269995692797,292.0,neutral,0.2951576999621466,sad,study1,17.0,48.0
,2.0,141ms_happy,1.0,141ms,0.16452396999193294,293.0,happy,0.4542814000160434,happy,study1,17.0,49.0
,2.0,141ms_neutral,1.0,141ms,0.1695835700434145,294.0,neutral,0.5787653999868779,neutral,study1,17.0,50.0
,2.0,141ms_happy,1.0,141ms,0.13374446996658662,295.0,happy,0.4226959000225179,happy,study1,17.0,51.0
,2.0,141ms_sad,0.0,141ms,0.13138757000479018,296.0,neutral,0.1452411999925971,sad,study1,17.0,52.0
,2.0,8ms_neutral,1.0,8ms,0.008320269996602292,297.0,neutral,0.4006067999871448,neutral,study1,17.0,53.0
,2.0,8ms_sad,0.0,8ms,0.008320269995692797,298.0,neutral,0.41872320004040375,sad,study1,17.0,54.0
,2.0,141ms_happy,1.0,141ms,0.13463356998408926,299.0,happy,0.4213225000421517,happy,study1,17.0,55.0
,2.0,8ms_sad,0.0,8ms,0.008320269995692797,300.0,neutral,0.5004777999711223,sad,study1,17.0,56.0
,2.0,8ms_neutral,1.0,8ms,0.008320269995692797,301.0,neutral,0.44840619998285547,neutral,study1,17.0,57.0
,2.0,141ms_happy,1.0,141ms,0.16024066997306366,302.0,happy,0.3914979000110179,happy,study1,17.0,58.0
,2.0,8ms_happy,0.0,8ms,0.008320269995692797,303.0,neutral,0.4201161999953911,happy,study1,17.0,59.0
,2.0,8ms_sad,0.0,8ms,0.008320269995692797,304.0,happy,0.4140502999653109,sad,study1,17.0,60.0
,2.0,141ms_happy,1.0,141ms,0.16016197001545152,305.0,happy,0.3655521000036969,happy,study1,17.0,61.0
,2.0,8ms_happy,0.0,8ms,0.008320269996147545,306.0,neutral,0.4713629999896512,happy,study1,17.0,62.0
,2.0,8ms_neutral,1.0,8ms,0.008320269995692797,307.0,neutral,0.4254972999915481,neutral,study1,17.0,63.0
,2.0,8ms_happy,1.0,8ms,0.008320269996147545,308.0,happy,0.7834869000362232,happy,study1,17.0,64.0
,2.0,141ms_sad,1.0,141ms,0.13623876998371998,309.0,sad,0.5317980999825522,sad,study1,17.0,65.0
,2.0,141ms_sad,0.0,141ms,0.1343736699841429,310.0,neutral,0.9380748000112362,sad,study1,17.0,66.0
,2.0,141ms_sad,1.0,141ms,0.1613932699601719,311.0,sad,0.392870599986054,sad,study1,17.0,67.0
,2.0,8ms_neutral,1.0,8ms,0.008320269995692797,312.0,neutral,0.4859559999895282,neutral,study1,17.0,68.0
,2.0,141ms_neutral,1.0,141ms,0.15862976998869271,313.0,neutral,0.5437477999948896,neutral,study1,17.0,69.0
,2.0,8ms_happy,0.0,8ms,0.008320269996147545,314.0,neutral,0.48231120000127703,happy,study1,17.0,70.0
,2.0,8ms_neutral,1.0,8ms,0.008320269995692797,315.0,neutral,0.4252777999499813,neutral,study1,17.0,71.0
,2.0,8ms_sad,0.0,8ms,0.00832026999523805,316.0,neutral,0.4083232999546453,sad,study1,17.0,72.0
,2.0,141ms_happy,1.0,141ms,0.13674186997241122,318.0,happy,1.2494712000479922,happy,study1,17.0,74.0
,2.0,141ms_neutral,1.0,141ms,0.15731416998323766,319.0,neutral,0.4117915999959223,neutral,study1,17.0,75.0
,2.0,8ms_happy,0.0,8ms,0.008320269996602292,320.0,neutral,0.6084229999687523,happy,study1,17.0,76.0
,2.0,141ms_happy,1.0,141ms,0.15572956996675202,321.0,happy,0.3498167999787256,happy,study1,17.0,77.0
,2.0,141ms_sad,1.0,141ms,0.16104766994794772,322.0,sad,0.3794604000286199,sad,study1,17.0,78.0
,2.0,8ms_happy,0.0,8ms,0.008320269994783303,323.0,neutral,0.5725523000000976,happy,study1,17.0,79.0
,2.0,8ms_sad,0.0,8ms,0.008320269996147545,324.0,neutral,0.4290599999949336,sad,study1,17.0,80.0
,2.0,141ms_happy,1.0,141ms,0.13568696997253935,325.0,happy,0.3991844999836758,happy,study1,17.0,81.0
,2.0,8ms_neutral,1.0,8ms,0.008320269996602292,326.0,neutral,0.3797923999954945,neutral,study1,17.0,82.0
,2.0,8ms_happy,0.0,8ms,0.008320269994783303,327.0,neutral,1.3745928999851458,happy,study1,17.0,83.0
,2.0,141ms_happy,1.0,141ms,0.15884506999964287,328.0,happy,0.4827277000294998,happy,study1,17.0,84.0
,2.0,141ms_happy,1.0,141ms,0.1375466699896606,329.0,happy,0.4739667000249028,happy,study1,17.0,85.0
,2.0,141ms_sad,1.0,141ms,0.13789987000063775,330.0,sad,0.4390918000135571,sad,study1,17.0,86.0
,2.0,141ms_sad,0.0,141ms,0.13581146998922122,331.0,neutral,0.4640649000066333,sad,study1,17.0,87.0
,2.0,141ms_sad,1.0,141ms,0.13464797003598505,332.0,sad,0.4404137000092305,sad,study1,17.0,88.0
,2.0,8ms_sad,0.0,8ms,0.008320269996147545,333.0,neutral,0.4183450999553315,sad,study1,17.0,89.0
,2.0,141ms_sad,1.0,141ms,0.15232426999682502,334.0,sad,0.36761969997314736,sad,study1,17.0,90.0
,2.0,8ms_sad,0.0,8ms,0.008320269996602292,335.0,neutral,0.42717999999877065,sad,study1,17.0,91.0
,2.0,8ms_happy,1.0,8ms,0.008320269996147545,336.0,happy,0.7512386000016704,happy,study1,17.0,92.0
,2.0,8ms_neutral,1.0,8ms,0.008320269995692797,337.0,neutral,0.4293343999888748,neutral,study1,17.0,93.0
,2.0,141ms_neutral,1.0,141ms,0.15923677001228498,338.0,neutral,0.5697792000137271,neutral,study1,17.0,94.0
,2.0,8ms_sad,0.0,8ms,0.008320269996147545,339.0,neutral,0.4420799000072293,sad,study1,17.0,95.0
,2.0,141ms_sad,1.0,141ms,0.13752886997008318,340.0,sad,0.7062168999691494,sad,study1,17.0,96.0
,2.0,141ms_neutral,1.0,141ms,0.16384077002931008,341.0,neutral,0.37457939999876544,neutral,study1,17.0,97.0
,2.0,8ms_happy,0.0,8ms,0.008320269995692797,342.0,neutral,0.258033299993258,happy,study1,17.0,98.0
,2.0,8ms_sad,0.0,8ms,0.008320269996602292,343.0,neutral,0.31986599997617304,sad,study1,17.0,99.0
,2.0,8ms_sad,0.0,8ms,0.008320269995692797,344.0,neutral,0.40066469996236265,sad,study1,17.0,100.0
,2.0,141ms_neutral,1.0,141ms,0.15644106997069684,345.0,neutral,0.4947415000060573,neutral,study1,17.0,101.0
,2.0,141ms_sad,0.0,141ms,0.1692532699730691,346.0,neutral,0.5691769999684766,sad,study1,17.0,102.0
,2.0,141ms_happy,1.0,141ms,0.1303297699837458,347.0,happy,0.4208694999688305,happy,study1,17.0,103.0
,2.0,141ms_neutral,1.0,141ms,0.16116846999511836,348.0,neutral,0.4661163000273518,neutral,study1,17.0,104.0
,2.0,141ms_happy,0.0,141ms,0.13028757001211488,349.0,neutral,0.3601923999958672,happy,study1,17.0,105.0
,2.0,141ms_neutral,1.0,141ms,0.162504669982809,350.0,neutral,0.2875978000229225,neutral,study1,17.0,106.0
,2.0,8ms_sad,0.0,8ms,0.008320269996147545,351.0,neutral,0.4650671000126749,sad,study1,17.0,107.0
,2.0,141ms_neutral,1.0,141ms,0.1600220699970123,352.0,neutral,0.2507505999528803,neutral,study1,17.0,108.0
,2.0,141ms_sad,1.0,141ms,0.13510207000035734,353.0,sad,0.7108087999513373,sad,study1,17.0,109.0
,2.0,141ms_neutral,1.0,141ms,0.1603884699925402,354.0,neutral,0.7318172000232153,neutral,study1,17.0,110.0
,2.0,141ms_happy,1.0,141ms,0.16222477000519575,355.0,happy,0.3611558999982663,happy,study1,17.0,111.0
,2.0,8ms_happy,0.0,8ms,0.008320269995692797,356.0,neutral,0.5095915999845602,happy,study1,17.0,112.0
,2.0,8ms_sad,0.0,8ms,0.008320269995692797,357.0,neutral,1.0424032000009902,sad,study1,17.0,113.0
,2.0,8ms_neutral,1.0,8ms,0.008320269995692797,358.0,neutral,0.441313799994532,neutral,study1,17.0,114.0
,2.0,8ms_sad,0.0,8ms,0.008320269995692797,359.0,neutral,0.397305199992843,sad,study1,17.0,115.0
,2.0,8ms_sad,0.0,8ms,0.008320269995692797,360.0,neutral,0.3416294999769889,sad,study1,17.0,116.0
,2.0,8ms_sad,0.0,8ms,0.008320269995692797,361.0,neutral,0.41306549997534603,sad,study1,17.0,117.0
,2.0,8ms_neutral,1.0,8ms,0.008320269996602292,362.0,neutral,0.3636210999684408,neutral,study1,17.0,118.0
,2.0,8ms_happy,0.0,8ms,0.008320269995692797,363.0,neutral,0.3820165999932215,happy,study1,17.0,119.0
,0.0,141ms_sad,1.0,141ms,0.15868507999993398,4.0,sad,0.544181700000081,sad,study1,2.0,0.0
,0.0,25ms_neutral,1.0,25ms,0.026326180000047827,5.0,neutral,1.3977548000000295,neutral,study1,2.0,1.0
,0.0,141ms_sad,1.0,141ms,0.151775479999948,6.0,sad,0.4638033999999607,sad,study1,2.0,2.0
,0.0,141ms_happy,1.0,141ms,0.16727848000002865,7.0,happy,0.4385188999999627,happy,study1,2.0,3.0
,0.0,25ms_sad,1.0,25ms,0.02659287999993154,8.0,sad,1.2603423000000475,sad,study1,2.0,4.0
,0.0,25ms_neutral,1.0,25ms,0.02676237999999387,10.0,neutral,0.6056467000000794,neutral,study1,2.0,6.0
,0.0,25ms_neutral,1.0,25ms,0.027275679999959838,11.0,neutral,0.9116036000000348,neutral,study1,2.0,7.0
,0.0,25ms_happy,1.0,25ms,0.02703807999998276,12.0,happy,0.6534552000000531,happy,study1,2.0,8.0
,0.0,141ms_neutral,1.0,141ms,0.15695187999990878,13.0,neutral,0.4619634000000588,neutral,study1,2.0,9.0
,0.0,141ms_happy,1.0,141ms,0.15990087999985292,14.0,happy,0.4558328999999048,happy,study1,2.0,10.0
,0.0,25ms_sad,1.0,25ms,0.022554079999935084,15.0,sad,0.6289824999998928,sad,study1,2.0,11.0
,0.0,25ms_neutral,1.0,25ms,0.02614977999992618,16.0,neutral,1.111972700000024,neutral,study1,2.0,12.0
,0.0,25ms_happy,1.0,25ms,0.022807080000092128,17.0,happy,0.5423647000000074,happy,study1,2.0,13.0
,0.0,25ms_happy,1.0,25ms,0.022703679999921175,18.0,happy,0.5376596999999492,happy,study1,2.0,14.0
,0.0,141ms_neutral,1.0,141ms,0.16147907999992128,19.0,neutral,0.46092380000004607,neutral,study1,2.0,15.0
,0.0,141ms_sad,1.0,141ms,0.13828408000016168,20.0,sad,1.0274880999998004,sad,study1,2.0,16.0
,0.0,25ms_happy,1.0,25ms,0.022664779999999496,21.0,happy,0.7705222000001868,happy,study1,2.0,17.0
,0.0,25ms_happy,1.0,25ms,0.025869779999965203,22.0,happy,0.704128800000035,happy,study1,2.0,18.0
,0.0,25ms_happy,1.0,25ms,0.02273407999993537,23.0,happy,0.5079464000000371,happy,study1,2.0,19.0
,0.0,25ms_happy,1.0,25ms,0.025986079999896102,24.0,happy,0.4863158999999087,happy,study1,2.0,20.0
,0.0,25ms_sad,1.0,25ms,0.026291879999888582,25.0,sad,0.5776611999999659,sad,study1,2.0,21.0
,0.0,25ms_sad,1.0,25ms,0.02254377999994972,26.0,sad,0.6172669999998561,sad,study1,2.0,22.0
,0.0,25ms_happy,1.0,25ms,0.02266168000001301,27.0,happy,0.6464114000000336,happy,study1,2.0,23.0
,0.0,141ms_happy,1.0,141ms,0.1360008799999406,28.0,happy,0.33342439999978524,happy,study1,2.0,24.0
,0.0,141ms_neutral,1.0,141ms,0.15799757999999994,29.0,neutral,0.6922349999999824,neutral,study1,2.0,25.0
,0.0,141ms_happy,1.0,141ms,0.13439577999993446,30.0,happy,0.5087929999999687,happy,study1,2.0,26.0
,0.0,25ms_happy,1.0,25ms,0.022809680000122512,31.0,happy,0.5359246000000439,happy,study1,2.0,27.0
,0.0,141ms_sad,1.0,141ms,0.17014378000020258,32.0,sad,0.4448678999999629,sad,study1,2.0,28.0
,0.0,141ms_neutral,1.0,141ms,0.16615227999997728,33.0,neutral,0.5240284999999858,neutral,study1,2.0,29.0
,0.0,25ms_neutral,1.0,25ms,0.025593280000038018,34.0,neutral,0.6925760000001446,neutral,study1,2.0,30.0
,0.0,141ms_neutral,1.0,141ms,0.16858358000007456,35.0,neutral,0.4588490999999522,neutral,study1,2.0,31.0
,0.0,141ms_neutral,1.0,141ms,0.16007787999998868,36.0,neutral,0.4187021000000186,neutral,study1,2.0,32.0
,0.0,141ms_neutral,1.0,141ms,0.16338117999990232,37.0,neutral,0.36263209999992796,neutral,study1,2.0,33.0
,0.0,25ms_neutral,1.0,25ms,0.02667117999993707,38.0,neutral,0.7430798000000323,neutral,study1,2.0,34.0
,0.0,25ms_happy,1.0,25ms,0.026256080000138127,39.0,happy,0.6338407000000643,happy,study1,2.0,35.0
,0.0,25ms_sad,1.0,25ms,0.025993380000045363,40.0,sad,1.0812794999999369,sad,study1,2.0,36.0
,0.0,141ms_neutral,1.0,141ms,0.1579701800000919,41.0,neutral,0.5947654000001421,neutral,study1,2.0,37.0
,0.0,141ms_sad,1.0,141ms,0.13764067999997565,42.0,sad,0.8495442999999341,sad,study1,2.0,38.0
,0.0,25ms_neutral,1.0,25ms,0.025660179999903217,43.0,neutral,0.5319455999999718,neutral,study1,2.0,39.0
,0.0,141ms_sad,1.0,141ms,0.13693358000000444,44.0,sad,0.7668888000000607,sad,study1,2.0,40.0
,0.0,25ms_happy,1.0,25ms,0.02701477999994495,45.0,happy,0.5942241000000195,happy,study1,2.0,41.0
,0.0,141ms_happy,1.0,141ms,0.13436918000002152,46.0,happy,0.3972077999999328,happy,study1,2.0,42.0
,0.0,141ms_sad,1.0,141ms,0.13132587999982093,47.0,sad,1.0086679000000909,sad,study1,2.0,43.0
,0.0,141ms_happy,1.0,141ms,0.13508537999996406,48.0,happy,0.4113724999999704,happy,study1,2.0,44.0
,0.0,25ms_sad,1.0,25ms,0.024393180000032544,49.0,sad,0.6626297000000251,sad,study1,2.0,45.0
,0.0,25ms_neutral,1.0,25ms,0.025833379999966155,50.0,neutral,1.1087735000000976,neutral,study1,2.0,46.0
,0.0,25ms_happy,1.0,25ms,0.02188457999997695,51.0,happy,0.628272700000025,happy,study1,2.0,47.0
,0.0,25ms_neutral,1.0,25ms,0.025383780000055367,52.0,neutral,0.8286656000000221,neutral,study1,2.0,48.0
,0.0,25ms_neutral,1.0,25ms,0.02582538000001477,53.0,neutral,0.6559861000000637,neutral,study1,2.0,49.0
,0.0,141ms_happy,1.0,141ms,0.13137707999993609,54.0,happy,0.38918710000007206,happy,study1,2.0,50.0
,0.0,25ms_neutral,1.0,25ms,0.02669667999995795,55.0,neutral,0.9213801999999304,neutral,study1,2.0,51.0
,0.0,25ms_neutral,1.0,25ms,0.024984279999898718,56.0,neutral,0.5756569999998646,neutral,study1,2.0,52.0
,0.0,25ms_happy,1.0,25ms,0.026881480000071182,57.0,happy,0.8662724000000708,happy,study1,2.0,53.0
,0.0,141ms_neutral,1.0,141ms,0.15731937999990464,58.0,neutral,0.737659800000074,neutral,study1,2.0,54.0
,0.0,25ms_neutral,1.0,25ms,0.02567238000003158,59.0,neutral,0.605699500000128,neutral,study1,2.0,55.0
,0.0,141ms_happy,1.0,141ms,0.13399427999999602,60.0,happy,0.3786360999999943,happy,study1,2.0,56.0
,0.0,25ms_neutral,1.0,25ms,0.02570137999990152,61.0,neutral,0.7791408000000501,neutral,study1,2.0,57.0
,0.0,25ms_neutral,1.0,25ms,0.025644579999834605,62.0,neutral,0.6931870999999319,neutral,study1,2.0,58.0
,0.0,141ms_neutral,1.0,141ms,0.15680367999991066,63.0,neutral,0.3615983999998207,neutral,study1,2.0,59.0
,0.0,25ms_sad,1.0,25ms,0.02314588000010076,64.0,sad,0.8943484999999782,sad,study1,2.0,60.0
,0.0,25ms_neutral,0.0,25ms,0.027438680000130944,65.0,sad,0.8259573000000273,neutral,study1,2.0,61.0
,0.0,141ms_happy,1.0,141ms,0.13796908000011854,66.0,happy,0.5508285000000797,happy,study1,2.0,62.0
,0.0,25ms_happy,1.0,25ms,0.022568280000086816,67.0,happy,0.6936200000000099,happy,study1,2.0,63.0
,0.0,25ms_happy,1.0,25ms,0.02255587999999875,68.0,happy,0.6999004000001605,happy,study1,2.0,64.0
,0.0,25ms_sad,1.0,25ms,0.021746679999921525,69.0,sad,1.1913024000000405,sad,study1,2.0,65.0
,0.0,25ms_happy,1.0,25ms,0.02310237999992637,70.0,happy,0.5660456000000522,happy,study1,2.0,66.0
,0.0,141ms_happy,1.0,141ms,0.16126478000003885,71.0,happy,0.3704519000000346,happy,study1,2.0,67.0
,0.0,25ms_happy,1.0,25ms,0.022087379999931045,72.0,happy,0.4396190999998453,happy,study1,2.0,68.0
,0.0,141ms_sad,1.0,141ms,0.13719528000001446,73.0,sad,0.7090679999998883,sad,study1,2.0,69.0
,0.0,141ms_happy,1.0,141ms,0.13608078000012824,74.0,happy,0.4874718000000939,happy,study1,2.0,70.0
,0.0,141ms_happy,1.0,141ms,0.15563027999991166,75.0,happy,0.3976689000000988,happy,study1,2.0,71.0
,0.0,25ms_happy,1.0,25ms,0.026992279999859647,76.0,happy,0.6307636999999886,happy,study1,2.0,72.0
,0.0,25ms_sad,1.0,25ms,0.026181379999968613,77.0,sad,0.5825485999998818,sad,study1,2.0,73.0
,0.0,25ms_happy,1.0,25ms,0.02842218000000685,78.0,happy,0.5676449000000048,happy,study1,2.0,74.0
,0.0,25ms_sad,1.0,25ms,0.02577107999994155,79.0,sad,0.6259333000000424,sad,study1,2.0,75.0
,0.0,25ms_neutral,0.0,25ms,0.026998979999916628,80.0,sad,0.7816012000000683,neutral,study1,2.0,76.0
,0.0,141ms_happy,1.0,141ms,0.15703187999991994,82.0,happy,0.3883498999998665,happy,study1,2.0,78.0
,0.0,141ms_sad,1.0,141ms,0.13279928000002886,83.0,sad,0.6349555000001601,sad,study1,2.0,79.0
,0.0,141ms_sad,1.0,141ms,0.13779857999998055,84.0,sad,1.2230125999999473,sad,study1,2.0,80.0
,0.0,25ms_sad,1.0,25ms,0.021713680000118533,85.0,sad,0.9002146999998786,sad,study1,2.0,81.0
,0.0,25ms_happy,1.0,25ms,0.02248538000003464,86.0,happy,0.6099364999997761,happy,study1,2.0,82.0
,0.0,25ms_sad,0.0,25ms,0.022274680000066386,87.0,neutral,0.5370763000000807,sad,study1,2.0,83.0
,0.0,25ms_sad,0.0,25ms,0.02284037999993416,88.0,neutral,1.0145838000000822,sad,study1,2.0,84.0
,0.0,25ms_sad,1.0,25ms,0.02206667999990941,89.0,sad,1.2209226999998464,sad,study1,2.0,85.0
,0.0,25ms_neutral,1.0,25ms,0.026544979999926003,90.0,neutral,0.8062264000000141,neutral,study1,2.0,86.0
,0.0,25ms_happy,1.0,25ms,0.0259665800001585,91.0,happy,0.5219403999999486,happy,study1,2.0,87.0
,0.0,25ms_sad,0.0,25ms,0.02313507999997455,92.0,neutral,0.7099439000000984,sad,study1,2.0,88.0
,0.0,141ms_sad,0.0,141ms,0.13195838000007146,93.0,neutral,0.4741355999999541,sad,study1,2.0,89.0
,0.0,25ms_sad,1.0,25ms,0.022557479999932184,94.0,sad,0.7563641000001553,sad,study1,2.0,90.0
,0.0,25ms_neutral,0.0,25ms,0.02601637999987361,95.0,sad,1.1886715999999071,neutral,study1,2.0,91.0
,0.0,141ms_sad,1.0,141ms,0.13044457999995984,96.0,sad,0.6386185000001205,sad,study1,2.0,92.0
,0.0,25ms_sad,1.0,25ms,0.022385980000080963,97.0,sad,1.3137768999999937,sad,study1,2.0,93.0
,0.0,25ms_sad,1.0,25ms,0.025854379999884717,98.0,sad,0.6387114999999994,sad,study1,2.0,94.0
,0.0,141ms_sad,1.0,141ms,0.17122218000008615,99.0,sad,0.5172479000000294,sad,study1,2.0,95.0
,0.0,25ms_neutral,1.0,25ms,0.026188379999894096,100.0,neutral,0.8033756999998332,neutral,study1,2.0,96.0
,0.0,141ms_happy,1.0,141ms,0.15736698000000615,101.0,happy,0.4307739999999285,happy,study1,2.0,97.0
,0.0,141ms_neutral,1.0,141ms,0.16318797999997514,102.0,neutral,0.4721761999999217,neutral,study1,2.0,98.0
,0.0,141ms_sad,1.0,141ms,0.13799757999987605,103.0,sad,1.0700480999998945,sad,study1,2.0,99.0
,0.0,141ms_neutral,1.0,141ms,0.15793788000024733,104.0,neutral,0.829667900000004,neutral,study1,2.0,100.0
,0.0,141ms_sad,1.0,141ms,0.16366847999989886,105.0,sad,0.5137073000000782,sad,study1,2.0,101.0
,0.0,141ms_happy,1.0,141ms,0.15114148000003524,106.0,happy,0.4451861000000008,happy,study1,2.0,102.0
,0.0,141ms_sad,1.0,141ms,0.15267137999990155,107.0,sad,0.6186350999998922,sad,study1,2.0,103.0
,0.0,141ms_sad,1.0,141ms,0.16076487999993105,108.0,sad,0.3961133000000245,sad,study1,2.0,104.0
,0.0,141ms_happy,1.0,141ms,0.1362994799999342,109.0,happy,0.3898477999998704,happy,study1,2.0,105.0
,0.0,141ms_neutral,1.0,141ms,0.16374577999994244,110.0,neutral,0.4964164000000437,neutral,study1,2.0,106.0
,0.0,141ms_happy,1.0,141ms,0.16048807999999326,111.0,happy,0.4724584000000505,happy,study1,2.0,107.0
,0.0,141ms_sad,1.0,141ms,0.1324003800000355,112.0,sad,0.8009041000000252,sad,study1,2.0,108.0
,0.0,141ms_neutral,1.0,141ms,0.15659298000014132,113.0,neutral,0.4940025999999307,neutral,study1,2.0,109.0
,0.0,141ms_sad,1.0,141ms,0.13157598000003645,114.0,sad,0.7655272000001787,sad,study1,2.0,110.0
,0.0,141ms_happy,1.0,141ms,0.16022238000005018,115.0,happy,0.4436550999998872,happy,study1,2.0,111.0
,0.0,141ms_neutral,1.0,141ms,0.1644944800000303,116.0,neutral,1.0111985000000914,neutral,study1,2.0,112.0
,0.0,141ms_sad,1.0,141ms,0.1542605800000274,117.0,sad,0.8241818999999849,sad,study1,2.0,113.0
,0.0,141ms_happy,1.0,141ms,0.16802147999987938,118.0,happy,0.4933734000001096,happy,study1,2.0,114.0
,0.0,141ms_happy,1.0,141ms,0.16030158000012307,119.0,happy,0.3369133999999576,happy,study1,2.0,115.0
,0.0,141ms_sad,1.0,141ms,0.16382468000000472,120.0,sad,0.8157145000000128,sad,study1,2.0,116.0
,0.0,141ms_neutral,1.0,141ms,0.16355217999984006,121.0,neutral,0.47313660000008895,neutral,study1,2.0,117.0
,0.0,141ms_neutral,1.0,141ms,0.16103338000016265,122.0,neutral,0.4424817999999959,neutral,study1,2.0,118.0
,0.0,141ms_neutral,1.0,141ms,0.15910567999998193,123.0,neutral,0.3460374999999658,neutral,study1,2.0,119.0
,1.0,141ms_sad,1.0,141ms,0.13120418000011114,124.0,sad,0.7955575999999382,sad,study1,2.0,0.0
,1.0,141ms_sad,1.0,141ms,0.15964997999998332,126.0,sad,0.5192556000001787,sad,study1,2.0,2.0
,1.0,16ms_sad,1.0,16ms,0.0152453800000103,127.0,sad,0.6474788000000444,sad,study1,2.0,3.0
,1.0,141ms_neutral,1.0,141ms,0.16459237999981724,128.0,neutral,0.3650322999999389,neutral,study1,2.0,4.0
,1.0,16ms_neutral,1.0,16ms,0.01626087999994752,129.0,neutral,0.6569954000001417,neutral,study1,2.0,5.0
,1.0,16ms_sad,1.0,16ms,0.01499077999983456,130.0,sad,0.9998219000001428,sad,study1,2.0,6.0
,1.0,16ms_neutral,1.0,16ms,0.01734348000013597,131.0,neutral,0.7258332000001246,neutral,study1,2.0,7.0
,1.0,141ms_sad,1.0,141ms,0.13755978000000368,132.0,sad,0.924510699999928,sad,study1,2.0,8.0
,1.0,16ms_sad,0.0,16ms,0.014930180000305882,133.0,neutral,1.2279661999998552,sad,study1,2.0,9.0
,1.0,141ms_neutral,1.0,141ms,0.17158928000009155,134.0,neutral,0.4026421000000937,neutral,study1,2.0,10.0
,1.0,16ms_neutral,1.0,16ms,0.01648107999994863,135.0,neutral,0.7703196000002208,neutral,study1,2.0,11.0
,1.0,16ms_sad,0.0,16ms,0.016095979999988685,136.0,happy,0.7671298999998726,sad,study1,2.0,12.0
,1.0,141ms_happy,1.0,141ms,0.13022448000003806,137.0,happy,0.3676138000000719,happy,study1,2.0,13.0
,1.0,16ms_happy,1.0,16ms,0.017207680000012715,138.0,happy,0.5122592000000168,happy,study1,2.0,14.0
,1.0,16ms_neutral,0.0,16ms,0.01700027999993381,139.0,happy,1.3863940999999609,neutral,study1,2.0,15.0
,1.0,141ms_neutral,1.0,141ms,0.15546347999998034,140.0,neutral,0.439310100000057,neutral,study1,2.0,16.0
,1.0,141ms_happy,1.0,141ms,0.17053557999992108,141.0,happy,0.4551586000000043,happy,study1,2.0,17.0
,1.0,141ms_sad,1.0,141ms,0.13484758000009833,142.0,sad,1.2476246000001083,sad,study1,2.0,18.0
,1.0,141ms_happy,1.0,141ms,0.13133478000003151,143.0,happy,0.616438799999969,happy,study1,2.0,19.0
,1.0,16ms_happy,1.0,16ms,0.015087080000171229,144.0,happy,0.8297291999999743,happy,study1,2.0,20.0
,1.0,16ms_happy,1.0,16ms,0.015131680000138203,145.0,happy,0.5963216000000102,happy,study1,2.0,21.0
,1.0,141ms_sad,1.0,141ms,0.13107588000008266,146.0,sad,1.4162690999999086,sad,study1,2.0,22.0
,1.0,141ms_neutral,1.0,141ms,0.1623303799999576,147.0,neutral,0.4388864999998532,neutral,study1,2.0,23.0
,1.0,141ms_neutral,1.0,141ms,0.15970577999991065,148.0,neutral,0.5073717999998735,neutral,study1,2.0,24.0
,1.0,141ms_happy,1.0,141ms,0.1364609799998675,149.0,happy,0.4125878999998349,happy,study1,2.0,25.0
,1.0,141ms_neutral,1.0,141ms,0.15527468000010458,150.0,neutral,0.7086389999999483,neutral,study1,2.0,26.0
,1.0,16ms_happy,1.0,16ms,0.017423679999978958,151.0,happy,0.5614201999997022,happy,study1,2.0,27.0
,1.0,16ms_sad,0.0,16ms,0.015221979999694213,152.0,happy,0.9004304000000047,sad,study1,2.0,28.0
,1.0,141ms_happy,1.0,141ms,0.1635082799999168,153.0,happy,0.5063968999997996,happy,study1,2.0,29.0
,1.0,141ms_happy,1.0,141ms,0.13609278000006952,154.0,happy,0.35660680000000866,happy,study1,2.0,30.0
,1.0,141ms_happy,1.0,141ms,0.1585950799998841,155.0,happy,0.31727090000003955,happy,study1,2.0,31.0
,1.0,141ms_neutral,1.0,141ms,0.16269057999988945,156.0,neutral,0.5646725999999944,neutral,study1,2.0,32.0
,1.0,16ms_sad,0.0,16ms,0.015851180000026943,157.0,happy,0.8109713000003467,sad,study1,2.0,33.0
,1.0,141ms_neutral,1.0,141ms,0.1559050800001387,158.0,neutral,0.4912192000001596,neutral,study1,2.0,34.0
,1.0,141ms_happy,1.0,141ms,0.13044988000007152,159.0,happy,0.6993102999999792,happy,study1,2.0,35.0
,1.0,141ms_neutral,1.0,141ms,0.16488528000002134,160.0,neutral,0.5437825000003613,neutral,study1,2.0,36.0
,1.0,16ms_neutral,0.0,16ms,0.01709257999982583,161.0,happy,0.6669394000000466,neutral,study1,2.0,37.0
,1.0,141ms_happy,1.0,141ms,0.16744748000024856,162.0,happy,0.5162881000001107,happy,study1,2.0,38.0
,1.0,141ms_happy,1.0,141ms,0.13032137999977067,163.0,happy,0.3753301000001557,happy,study1,2.0,39.0
,1.0,16ms_happy,1.0,16ms,0.015610180000237506,164.0,happy,0.5341640999999981,happy,study1,2.0,40.0
,1.0,16ms_neutral,1.0,16ms,0.017525779999687074,165.0,neutral,0.6376906999998937,neutral,study1,2.0,41.0
,1.0,141ms_happy,1.0,141ms,0.13794978000032646,166.0,happy,0.4471350999997412,happy,study1,2.0,42.0
,1.0,141ms_happy,1.0,141ms,0.16100638000028766,167.0,happy,0.2589655000001585,happy,study1,2.0,43.0
,1.0,141ms_sad,0.0,141ms,0.13757488000010198,168.0,neutral,0.3826903999997739,sad,study1,2.0,44.0
,1.0,141ms_neutral,1.0,141ms,0.16226508000005424,169.0,neutral,0.5263383000001339,neutral,study1,2.0,45.0
,1.0,141ms_neutral,1.0,141ms,0.16005747999992082,170.0,neutral,0.4662689000001592,neutral,study1,2.0,46.0
,1.0,16ms_happy,1.0,16ms,0.017214980000062496,171.0,happy,0.7981557999996767,happy,study1,2.0,47.0
,1.0,16ms_neutral,1.0,16ms,0.01687447999984215,172.0,neutral,0.7626408000000993,neutral,study1,2.0,48.0
,1.0,16ms_happy,1.0,16ms,0.015668979999986732,173.0,happy,0.8174085999999079,happy,study1,2.0,49.0
,1.0,16ms_happy,1.0,16ms,0.01659568000013678,174.0,happy,0.5876726999999846,happy,study1,2.0,50.0
,1.0,16ms_neutral,0.0,16ms,0.01637107999977161,175.0,happy,0.8357014999996863,neutral,study1,2.0,51.0
,1.0,141ms_happy,1.0,141ms,0.13608908000014708,176.0,happy,0.3571955999996135,happy,study1,2.0,52.0
,1.0,141ms_happy,1.0,141ms,0.13275717999965764,177.0,happy,0.296604600000137,happy,study1,2.0,53.0
,1.0,141ms_happy,1.0,141ms,0.1333183800002189,178.0,happy,0.2973253000000113,happy,study1,2.0,54.0
,1.0,141ms_happy,1.0,141ms,0.1344072800001186,179.0,happy,0.2930634999997892,happy,study1,2.0,55.0
,1.0,141ms_neutral,1.0,141ms,0.16053948000023865,180.0,neutral,0.3406262000003153,neutral,study1,2.0,56.0
,1.0,141ms_sad,1.0,141ms,0.1307092800002465,181.0,sad,0.4966887999999017,sad,study1,2.0,57.0
,1.0,16ms_neutral,1.0,16ms,0.01661547999981394,182.0,neutral,1.2669986999999308,neutral,study1,2.0,58.0
,1.0,141ms_neutral,1.0,141ms,0.15737948000014512,184.0,neutral,0.5376780000001418,neutral,study1,2.0,60.0
,1.0,16ms_sad,1.0,16ms,0.01507828000023892,185.0,sad,0.8839497999997548,sad,study1,2.0,61.0
,1.0,141ms_neutral,1.0,141ms,0.15969087999962994,186.0,neutral,0.4593329999997877,neutral,study1,2.0,62.0
,1.0,141ms_sad,1.0,141ms,0.13091728000006242,187.0,sad,1.0725862999997844,sad,study1,2.0,63.0
,1.0,16ms_happy,0.0,16ms,0.015770980000183954,188.0,neutral,0.731354100000317,happy,study1,2.0,64.0
,1.0,141ms_neutral,1.0,141ms,0.16945387999965078,189.0,neutral,0.4023385000000417,neutral,study1,2.0,65.0
,1.0,141ms_sad,1.0,141ms,0.13920457999984134,190.0,sad,0.6487067999996725,sad,study1,2.0,66.0
,1.0,16ms_happy,1.0,16ms,0.016133980000176962,191.0,happy,1.1021236000001409,happy,study1,2.0,67.0
,1.0,141ms_sad,1.0,141ms,0.1667619800000466,192.0,sad,0.7729840999995758,sad,study1,2.0,68.0
,1.0,16ms_neutral,1.0,16ms,0.017740079999953196,193.0,neutral,1.0763354999999135,neutral,study1,2.0,69.0
,1.0,141ms_sad,1.0,141ms,0.15097577999995335,194.0,sad,0.3997351000002709,sad,study1,2.0,70.0
,1.0,141ms_neutral,1.0,141ms,0.15774568000006184,195.0,neutral,0.4315350000001672,neutral,study1,2.0,71.0
,1.0,16ms_neutral,0.0,16ms,0.017664680000052613,196.0,happy,0.6709362999999939,neutral,study1,2.0,72.0
,1.0,16ms_sad,1.0,16ms,0.016638979999697767,197.0,sad,0.7343605000000935,sad,study1,2.0,73.0
,1.0,141ms_neutral,1.0,141ms,0.1680500799998299,198.0,neutral,0.4248615999999856,neutral,study1,2.0,74.0
,1.0,16ms_sad,1.0,16ms,0.015685280000184317,199.0,sad,0.954095000000052,sad,study1,2.0,75.0
,1.0,141ms_neutral,1.0,141ms,0.15552897999975812,200.0,neutral,0.42714139999998224,neutral,study1,2.0,76.0
,1.0,16ms_sad,0.0,16ms,0.01514217999954326,201.0,happy,1.3396586999997453,sad,study1,2.0,77.0
,1.0,141ms_neutral,1.0,141ms,0.1610951800004159,202.0,neutral,0.3822793999997885,neutral,study1,2.0,78.0
,1.0,141ms_happy,1.0,141ms,0.13017988000012792,203.0,happy,0.6873507000000245,happy,study1,2.0,79.0
,1.0,141ms_neutral,1.0,141ms,0.15808358000003864,204.0,neutral,0.9328556999998908,neutral,study1,2.0,80.0
,1.0,16ms_happy,1.0,16ms,0.015468280000277447,205.0,happy,0.6237237000000277,happy,study1,2.0,81.0
,1.0,16ms_happy,1.0,16ms,0.017234780000308092,206.0,happy,1.0081612000003588,happy,study1,2.0,82.0
,1.0,16ms_happy,1.0,16ms,0.015771679999829757,207.0,happy,0.5808524000003672,happy,study1,2.0,83.0
,1.0,16ms_neutral,1.0,16ms,0.017132380000134617,208.0,neutral,0.8847654000001057,neutral,study1,2.0,84.0
,1.0,141ms_neutral,1.0,141ms,0.15549377999957414,209.0,neutral,1.151426100000208,neutral,study1,2.0,85.0
,1.0,141ms_happy,1.0,141ms,0.13090237999983856,210.0,happy,0.3203696000000491,happy,study1,2.0,86.0
,1.0,141ms_sad,1.0,141ms,0.13023968000004515,211.0,sad,0.5461999999997715,sad,study1,2.0,87.0
,1.0,141ms_sad,1.0,141ms,0.1375340799999094,212.0,sad,0.4735569999998006,sad,study1,2.0,88.0
,1.0,16ms_happy,1.0,16ms,0.01468928000042524,213.0,happy,0.6895872999998574,happy,study1,2.0,89.0
,1.0,16ms_happy,1.0,16ms,0.015789379999546327,214.0,happy,0.5161788999998862,happy,study1,2.0,90.0
,1.0,16ms_sad,0.0,16ms,0.014801379999880737,215.0,happy,0.9998441000002458,sad,study1,2.0,91.0
,1.0,141ms_sad,1.0,141ms,0.13610848000007536,216.0,sad,0.5227963000002092,sad,study1,2.0,92.0
,1.0,141ms_neutral,1.0,141ms,0.15970348000030302,217.0,neutral,0.6630927999999585,neutral,study1,2.0,93.0
,1.0,16ms_sad,0.0,16ms,0.017367379999996047,218.0,neutral,0.8504421999996339,sad,study1,2.0,94.0
,1.0,141ms_neutral,1.0,141ms,0.16952198000035426,219.0,neutral,0.4951435000002675,neutral,study1,2.0,95.0
,1.0,141ms_happy,1.0,141ms,0.13041048000013689,220.0,happy,0.4854307000000517,happy,study1,2.0,96.0
,1.0,141ms_sad,1.0,141ms,0.13157607999983156,221.0,sad,0.6786179000000631,sad,study1,2.0,97.0
,1.0,141ms_sad,1.0,141ms,0.13641538000001674,222.0,sad,0.6082370999997693,sad,study1,2.0,98.0
,1.0,141ms_sad,1.0,141ms,0.153163080000013,223.0,sad,0.6374811000000591,sad,study1,2.0,99.0
,1.0,141ms_neutral,1.0,141ms,0.15987668000025226,224.0,neutral,0.5019283000001451,neutral,study1,2.0,100.0
,1.0,16ms_happy,1.0,16ms,0.015608979999797157,225.0,happy,0.7309753999998065,happy,study1,2.0,101.0
,1.0,16ms_sad,0.0,16ms,0.01599657999975079,226.0,happy,0.8678401000001941,sad,study1,2.0,102.0
,1.0,16ms_neutral,1.0,16ms,0.016770079999673726,227.0,neutral,1.0251959000001991,neutral,study1,2.0,103.0
,1.0,16ms_happy,1.0,16ms,0.015242279999597487,228.0,happy,0.5171732000003431,happy,study1,2.0,104.0
,1.0,16ms_neutral,1.0,16ms,0.01748577999978806,229.0,neutral,0.7653385000003254,neutral,study1,2.0,105.0
,1.0,16ms_sad,1.0,16ms,0.014902279999660097,230.0,sad,0.8912700999999288,sad,study1,2.0,106.0
,1.0,16ms_happy,1.0,16ms,0.0154696800000238,231.0,happy,0.6030037000000448,happy,study1,2.0,107.0
,1.0,16ms_sad,0.0,16ms,0.01731008000024303,232.0,happy,0.7392067000000679,sad,study1,2.0,108.0
,1.0,16ms_sad,0.0,16ms,0.01492898000014975,233.0,happy,0.5975816000000123,sad,study1,2.0,109.0
,1.0,16ms_happy,1.0,16ms,0.01751217999981236,234.0,happy,0.5630874000003132,happy,study1,2.0,110.0
,1.0,16ms_neutral,0.0,16ms,0.017581579999728092,235.0,happy,0.7322982999999113,neutral,study1,2.0,111.0
,1.0,16ms_sad,0.0,16ms,0.015177880000010191,236.0,neutral,1.077185399999962,sad,study1,2.0,112.0
,1.0,16ms_sad,0.0,16ms,0.017633280000154627,238.0,neutral,1.004580100000112,sad,study1,2.0,114.0
,1.0,16ms_happy,1.0,16ms,0.01751978000049803,239.0,happy,0.6849966999998287,happy,study1,2.0,115.0
,1.0,16ms_neutral,0.0,16ms,0.016951680000374836,240.0,happy,1.0835971999999856,neutral,study1,2.0,116.0
,1.0,16ms_neutral,1.0,16ms,0.017450280000048224,241.0,neutral,0.8698655000002873,neutral,study1,2.0,117.0
,1.0,16ms_sad,0.0,16ms,0.015582880000465591,243.0,happy,0.553945599999679,sad,study1,2.0,119.0
,2.0,141ms_happy,1.0,141ms,0.16998018000003867,244.0,happy,0.39093110000021625,happy,study1,2.0,0.0
,2.0,141ms_happy,1.0,141ms,0.15194528000051832,245.0,happy,0.35803319999968153,happy,study1,2.0,1.0
,2.0,141ms_sad,1.0,141ms,0.13925217999974393,246.0,sad,0.5162279000001035,sad,study1,2.0,2.0
,2.0,141ms_sad,1.0,141ms,0.13521608000030486,248.0,sad,0.7148784000000887,sad,study1,2.0,4.0
,2.0,8ms_neutral,1.0,8ms,0.008333880000009229,249.0,neutral,0.8826545000001715,neutral,study1,2.0,5.0
,2.0,8ms_neutral,1.0,8ms,0.008333880000122917,250.0,neutral,0.615014599999995,neutral,study1,2.0,6.0
,2.0,8ms_neutral,1.0,8ms,0.008333880000236604,251.0,neutral,0.546028600000227,neutral,study1,2.0,7.0
,2.0,141ms_happy,1.0,141ms,0.16931148000014673,252.0,happy,0.4035616000001028,happy,study1,2.0,8.0
,2.0,141ms_happy,1.0,141ms,0.15691728000001606,253.0,happy,0.4707650000000285,happy,study1,2.0,9.0
,2.0,141ms_neutral,1.0,141ms,0.17244837999987794,255.0,neutral,0.4779610000000503,neutral,study1,2.0,11.0
,2.0,8ms_neutral,0.0,8ms,0.008333880000009229,256.0,happy,1.1777773000003435,neutral,study1,2.0,12.0
,2.0,141ms_neutral,1.0,141ms,0.1611387799998738,257.0,neutral,0.5168629999998302,neutral,study1,2.0,13.0
,2.0,141ms_sad,1.0,141ms,0.13686308000023928,258.0,sad,0.8831967999999506,sad,study1,2.0,14.0
,2.0,8ms_happy,0.0,8ms,0.008333880000009229,259.0,sad,1.2551963999999316,happy,study1,2.0,15.0
,2.0,141ms_sad,1.0,141ms,0.13087267999969754,260.0,sad,0.4966408999998748,sad,study1,2.0,16.0
,2.0,141ms_neutral,0.0,141ms,0.1637943800001267,261.0,sad,1.244852599999831,neutral,study1,2.0,17.0
,2.0,8ms_sad,1.0,8ms,0.008333880000122917,262.0,sad,0.8642994000001636,sad,study1,2.0,18.0
,2.0,141ms_neutral,1.0,141ms,0.156973480000147,263.0,neutral,0.5650114000000029,neutral,study1,2.0,19.0
,2.0,8ms_neutral,1.0,8ms,0.008333880000009229,264.0,neutral,0.8107829000000493,neutral,study1,2.0,20.0
,2.0,8ms_sad,0.0,8ms,0.008333880000009229,265.0,neutral,0.8897148999999445,sad,study1,2.0,21.0
,2.0,141ms_happy,1.0,141ms,0.16013838000026226,266.0,happy,0.37945740000031947,happy,study1,2.0,22.0
,2.0,8ms_happy,1.0,8ms,0.008333879999895544,267.0,happy,0.6826510000000781,happy,study1,2.0,23.0
,2.0,141ms_neutral,1.0,141ms,0.16607737999981964,268.0,neutral,0.448733700000048,neutral,study1,2.0,24.0
,2.0,8ms_happy,1.0,8ms,0.008333879999895544,269.0,happy,0.8132037999998829,happy,study1,2.0,25.0
,2.0,141ms_sad,1.0,141ms,0.13866348000010476,270.0,sad,0.6376152000002548,sad,study1,2.0,26.0
,2.0,8ms_neutral,1.0,8ms,0.008333880000009229,271.0,neutral,1.0264400000000933,neutral,study1,2.0,27.0
,2.0,8ms_happy,0.0,8ms,0.008333880000122917,272.0,neutral,0.6176117999998496,happy,study1,2.0,28.0
,2.0,8ms_neutral,1.0,8ms,0.008333880000009229,273.0,neutral,0.7040600999998787,neutral,study1,2.0,29.0
,2.0,141ms_neutral,1.0,141ms,0.15537928000003376,274.0,neutral,0.3985087999999449,neutral,study1,2.0,30.0
,2.0,8ms_sad,0.0,8ms,0.008333880000009229,275.0,neutral,0.8327222999996593,sad,study1,2.0,31.0
,2.0,8ms_sad,0.0,8ms,0.008333880000009229,276.0,neutral,0.6284141999999521,sad,study1,2.0,32.0
,2.0,8ms_sad,1.0,8ms,0.008333879999895544,277.0,sad,0.9285878000000594,sad,study1,2.0,33.0
,2.0,8ms_neutral,0.0,8ms,0.008333880000009229,278.0,sad,0.6657230999999229,neutral,study1,2.0,34.0
,2.0,141ms_happy,1.0,141ms,0.16893508000032398,279.0,happy,0.4290922000000137,happy,study1,2.0,35.0
,2.0,141ms_sad,1.0,141ms,0.13772217999985514,280.0,sad,0.8787870000001021,sad,study1,2.0,36.0
,2.0,141ms_happy,1.0,141ms,0.13125618000015038,281.0,happy,0.6586610999997902,happy,study1,2.0,37.0
,2.0,8ms_neutral,0.0,8ms,0.008333880000009229,282.0,sad,1.0260424999996758,neutral,study1,2.0,38.0
,2.0,141ms_neutral,1.0,141ms,0.1605708799996819,283.0,neutral,0.4594211999997242,neutral,study1,2.0,39.0
,2.0,8ms_neutral,0.0,8ms,0.008333880000009229,284.0,happy,1.11864659999992,neutral,study1,2.0,40.0
,2.0,8ms_happy,1.0,8ms,0.008333880000009229,285.0,happy,0.6917511999999988,happy,study1,2.0,41.0
,2.0,141ms_sad,1.0,141ms,0.13100388000032126,286.0,sad,0.8449639999998908,sad,study1,2.0,42.0
,2.0,141ms_happy,1.0,141ms,0.13046597999971254,287.0,happy,0.4151941000000079,happy,study1,2.0,43.0
,2.0,8ms_happy,1.0,8ms,0.008333880000009229,288.0,happy,0.7826614000000518,happy,study1,2.0,44.0
,2.0,141ms_sad,1.0,141ms,0.13681337999958032,289.0,sad,0.6595145999999659,sad,study1,2.0,45.0
,2.0,141ms_neutral,1.0,141ms,0.16688898000040808,290.0,neutral,0.79014079999979,neutral,study1,2.0,46.0
,2.0,8ms_sad,0.0,8ms,0.008333879999895544,291.0,neutral,0.7320859999999811,sad,study1,2.0,47.0
,2.0,141ms_sad,1.0,141ms,0.13818037999999433,292.0,sad,0.7636300999997729,sad,study1,2.0,48.0
,2.0,8ms_happy,0.0,8ms,0.008333880000009229,293.0,sad,0.7864205999999285,happy,study1,2.0,49.0
,2.0,141ms_neutral,1.0,141ms,0.16728278000027785,294.0,neutral,0.6510227999997369,neutral,study1,2.0,50.0
,2.0,8ms_happy,0.0,8ms,0.008333880000009229,295.0,neutral,0.7164372000002004,happy,study1,2.0,51.0
,2.0,141ms_sad,1.0,141ms,0.1326328799999601,296.0,sad,0.5013617999998132,sad,study1,2.0,52.0
,2.0,8ms_neutral,0.0,8ms,0.008333880000009229,297.0,sad,0.6678735999998935,neutral,study1,2.0,53.0
,2.0,8ms_sad,1.0,8ms,0.008333880000009229,298.0,sad,0.6146929000001364,sad,study1,2.0,54.0
,2.0,141ms_happy,1.0,141ms,0.1364985799993974,299.0,happy,0.4178445000002285,happy,study1,2.0,55.0
,2.0,141ms_sad,1.0,141ms,0.1304573799998252,300.0,sad,0.4376417999997102,sad,study1,2.0,56.0
,2.0,141ms_neutral,1.0,141ms,0.15949957999953313,301.0,neutral,0.5626121000000239,neutral,study1,2.0,57.0
,2.0,8ms_happy,0.0,8ms,0.008333880000009229,302.0,neutral,0.6431075000000419,happy,study1,2.0,58.0
,2.0,141ms_happy,1.0,141ms,0.13379398000017773,303.0,happy,0.4070934999999736,happy,study1,2.0,59.0
,2.0,141ms_sad,1.0,141ms,0.13100788000019747,304.0,sad,1.1886580999998841,sad,study1,2.0,60.0
,2.0,8ms_happy,0.0,8ms,0.008333880000009229,305.0,sad,0.7883995999995932,happy,study1,2.0,61.0
,2.0,141ms_happy,1.0,141ms,0.1535290800003395,306.0,happy,0.4098450999999841,happy,study1,2.0,62.0
,2.0,141ms_neutral,1.0,141ms,0.1660086800004592,307.0,neutral,0.5528352999999697,neutral,study1,2.0,63.0
,2.0,141ms_happy,1.0,141ms,0.13699298000051385,308.0,happy,0.4498598999998649,happy,study1,2.0,64.0
,2.0,8ms_sad,0.0,8ms,0.008333880000009229,309.0,neutral,0.8097387999996499,sad,study1,2.0,65.0
,2.0,141ms_sad,1.0,141ms,0.13260497999999646,310.0,sad,0.5892134999999143,sad,study1,2.0,66.0
,2.0,141ms_sad,1.0,141ms,0.16993587999991178,311.0,sad,0.4388576999999714,sad,study1,2.0,67.0
,2.0,8ms_neutral,0.0,8ms,0.008333880000009229,312.0,sad,0.8566365000001497,neutral,study1,2.0,68.0
,2.0,8ms_neutral,1.0,8ms,0.008333880000122917,313.0,neutral,1.1179508999998689,neutral,study1,2.0,69.0
,2.0,141ms_happy,1.0,141ms,0.1699579799997082,314.0,happy,0.3659290999999029,happy,study1,2.0,70.0
,2.0,8ms_neutral,0.0,8ms,0.008333880000009229,315.0,happy,0.5882947000000058,neutral,study1,2.0,71.0
,2.0,141ms_sad,1.0,141ms,0.14032068000005893,316.0,sad,0.8478099999997539,sad,study1,2.0,72.0
,2.0,141ms_neutral,1.0,141ms,0.16705888000001326,317.0,neutral,0.5585420000002159,neutral,study1,2.0,73.0
,2.0,8ms_happy,1.0,8ms,0.008333880000009229,318.0,happy,0.6003872000001138,happy,study1,2.0,74.0
,2.0,8ms_neutral,1.0,8ms,0.008333880000009229,319.0,neutral,0.6489840999997796,neutral,study1,2.0,75.0
,2.0,8ms_happy,1.0,8ms,0.008333880000236604,320.0,happy,0.6435566999998628,happy,study1,2.0,76.0
,2.0,8ms_happy,1.0,8ms,0.008333880000009229,321.0,happy,0.5777088999998341,happy,study1,2.0,77.0
,2.0,141ms_sad,1.0,141ms,0.16052458000024214,322.0,sad,0.43137590000014825,sad,study1,2.0,78.0
,2.0,8ms_happy,0.0,8ms,0.008333880000009229,323.0,sad,0.8039119999998547,happy,study1,2.0,79.0
,2.0,8ms_sad,0.0,8ms,0.008333880000009229,324.0,neutral,0.4771252000000459,sad,study1,2.0,80.0
,2.0,141ms_happy,1.0,141ms,0.13077208000026985,325.0,happy,0.44436899999982415,happy,study1,2.0,81.0
,2.0,141ms_neutral,1.0,141ms,0.15838258000007954,326.0,neutral,0.5475805999999466,neutral,study1,2.0,82.0
,2.0,141ms_happy,1.0,141ms,0.13416247999998632,327.0,happy,0.5796000000000276,happy,study1,2.0,83.0
,2.0,141ms_happy,1.0,141ms,0.16026327999986734,328.0,happy,0.4624776999999085,happy,study1,2.0,84.0
,2.0,8ms_happy,1.0,8ms,0.008333879999895544,329.0,happy,0.6437501000000339,happy,study1,2.0,85.0
,2.0,8ms_sad,0.0,8ms,0.008333880000009229,330.0,happy,0.5289366000001792,sad,study1,2.0,86.0
,2.0,8ms_sad,0.0,8ms,0.008333880000009229,331.0,happy,0.5719555000000582,sad,study1,2.0,87.0
,2.0,141ms_sad,1.0,141ms,0.13737268000033964,332.0,sad,0.5304080999999314,sad,study1,2.0,88.0
,2.0,8ms_sad,1.0,8ms,0.008333880000009229,333.0,sad,0.8875441000000137,sad,study1,2.0,89.0
,2.0,141ms_sad,1.0,141ms,0.15636807999999291,334.0,sad,0.4054277000000184,sad,study1,2.0,90.0
,2.0,141ms_sad,1.0,141ms,0.1302847799997835,335.0,sad,0.41977339999994,sad,study1,2.0,91.0
,2.0,8ms_happy,0.0,8ms,0.008333880000009229,336.0,sad,0.5880445999996482,happy,study1,2.0,92.0
,2.0,8ms_neutral,1.0,8ms,0.008333880000009229,337.0,neutral,0.7805204999999659,neutral,study1,2.0,93.0
,2.0,141ms_neutral,1.0,141ms,0.16933968000034838,338.0,neutral,0.4754866000002949,neutral,study1,2.0,94.0
,2.0,8ms_sad,0.0,8ms,0.008333880000009229,339.0,neutral,0.6678883999998106,sad,study1,2.0,95.0
,2.0,8ms_sad,0.0,8ms,0.008333880000009229,340.0,neutral,0.6429315000000315,sad,study1,2.0,96.0
,2.0,8ms_neutral,1.0,8ms,0.008333880000009229,341.0,neutral,0.8718905999999151,neutral,study1,2.0,97.0
,2.0,141ms_happy,1.0,141ms,0.1302053800000067,342.0,happy,0.383744299999762,happy,study1,2.0,98.0
,2.0,141ms_sad,1.0,141ms,0.1301129800003764,343.0,sad,0.5175209999997605,sad,study1,2.0,99.0
,2.0,141ms_sad,1.0,141ms,0.13019518000010066,344.0,sad,0.6045641000000614,sad,study1,2.0,100.0
,2.0,141ms_neutral,1.0,141ms,0.16679178000003958,345.0,neutral,0.4837188000001333,neutral,study1,2.0,101.0
,2.0,8ms_sad,0.0,8ms,0.008333880000122917,346.0,neutral,0.9433671000001596,sad,study1,2.0,102.0
,2.0,141ms_happy,1.0,141ms,0.13067967999973007,347.0,happy,0.4506270000001678,happy,study1,2.0,103.0
,2.0,8ms_neutral,0.0,8ms,0.008333880000009229,348.0,happy,0.5141664999996465,neutral,study1,2.0,104.0
,2.0,141ms_happy,1.0,141ms,0.13093678000052478,349.0,happy,0.3606332999997903,happy,study1,2.0,105.0
,2.0,8ms_neutral,0.0,8ms,0.008333880000009229,350.0,happy,0.6356513999999152,neutral,study1,2.0,106.0
,2.0,8ms_sad,0.0,8ms,0.008333880000009229,351.0,happy,0.49898050000001604,sad,study1,2.0,107.0
,2.0,141ms_neutral,1.0,141ms,0.15610207999998238,352.0,neutral,0.6589246999997158,neutral,study1,2.0,108.0
,2.0,8ms_sad,0.0,8ms,0.008333880000009229,353.0,neutral,0.5364104000000225,sad,study1,2.0,109.0
,2.0,8ms_neutral,1.0,8ms,0.008333879999895544,354.0,neutral,0.5076576000001296,neutral,study1,2.0,110.0
,2.0,8ms_happy,0.0,8ms,0.008333880000009229,355.0,neutral,0.5423135000000912,happy,study1,2.0,111.0
,2.0,141ms_happy,1.0,141ms,0.1383783799997218,356.0,happy,0.4573494999999639,happy,study1,2.0,112.0
,2.0,141ms_sad,1.0,141ms,0.13763957999981358,357.0,sad,0.6330831000000217,sad,study1,2.0,113.0
,2.0,8ms_neutral,0.0,8ms,0.008333880000009229,358.0,sad,1.0655569999998988,neutral,study1,2.0,114.0
,2.0,8ms_sad,1.0,8ms,0.008333880000463978,359.0,sad,0.5850673000004463,sad,study1,2.0,115.0
,2.0,8ms_sad,1.0,8ms,0.008333880000009229,360.0,sad,0.4669337000000269,sad,study1,2.0,116.0
,2.0,8ms_sad,1.0,8ms,0.008333880000009229,361.0,sad,0.5200399999998808,sad,study1,2.0,117.0
,2.0,141ms_neutral,1.0,141ms,0.15878937999968912,362.0,neutral,0.7084129999998368,neutral,study1,2.0,118.0
,2.0,8ms_happy,0.0,8ms,0.008333880000009229,363.0,neutral,0.5752435999997942,happy,study1,2.0,119.0
,,141ms_neutral,1.0,141ms,0.14929409977048635,0.0,8,0.6838181000202894,neutral,study2,28.0,
,0.0,141ms_happy,1.0,141ms,0.14979209983721375,1.0,9,0.698463199660182,happy,study2,28.0,0.0
,0.0,16ms_happy,1.0,16ms,0.01601319992914796,2.0,9,0.8695399998687208,happy,study2,28.0,1.0
,0.0,16ms_happy,1.0,16ms,0.01644589984789491,3.0,9,1.236035999841988,happy,study2,28.0,2.0
,0.0,16ms_neutral,1.0,16ms,0.01600740011781454,4.0,8,0.6000604000873864,neutral,study2,28.0,3.0
,0.0,25ms_sad,0.0,25ms,0.024947099853420696,5.0,8,0.7053805999457836,sad,study2,28.0,4.0
,0.0,16ms_happy,1.0,16ms,0.016429699957370758,6.0,9,0.6069012000225484,happy,study2,28.0,5.0
,0.0,141ms_neutral,1.0,141ms,0.14930929988611294,8.0,8,0.4689823999069631,neutral,study2,28.0,7.0
,0.0,8ms_happy,0.0,8ms,0.008096599951386452,9.0,8,1.4751156000420451,happy,study2,28.0,8.0
,0.0,25ms_happy,1.0,25ms,0.024309800006449226,10.0,9,0.7810443001799285,happy,study2,28.0,9.0
,0.0,141ms_happy,1.0,141ms,0.14954999974008842,11.0,9,0.4509197999723256,happy,study2,28.0,10.0
,0.0,8ms_happy,0.0,8ms,0.008191300090516052,12.0,8,0.7930956999771297,happy,study2,28.0,11.0
,0.0,141ms_sad,1.0,141ms,0.14984899992123246,13.0,7,0.7376687997020781,sad,study2,28.0,12.0
,0.0,25ms_neutral,1.0,25ms,0.024738100357353687,14.0,8,0.6370442002080381,neutral,study2,28.0,13.0
,0.0,25ms_happy,1.0,25ms,0.02465360006306128,15.0,9,0.6511606997810304,happy,study2,28.0,14.0
,0.0,25ms_sad,0.0,25ms,0.0249397000297904,16.0,9,1.2862710999324918,sad,study2,28.0,15.0
,0.0,25ms_neutral,1.0,25ms,0.024244700092708626,17.0,8,0.5945141999982297,neutral,study2,28.0,16.0
,0.0,141ms_neutral,1.0,141ms,0.14948950009409145,18.0,8,0.4328015996143222,neutral,study2,28.0,17.0
,0.0,25ms_happy,1.0,25ms,0.024749599862843752,19.0,9,0.6833624998107553,happy,study2,28.0,18.0
,0.0,141ms_happy,1.0,141ms,0.14995229989301606,20.0,9,0.4542389996349812,happy,study2,28.0,19.0
,0.0,16ms_neutral,1.0,16ms,0.016112300101667643,21.0,8,0.5590568003244698,neutral,study2,28.0,20.0
,0.0,16ms_sad,0.0,16ms,0.01627000002190471,22.0,8,0.7384247998706996,sad,study2,28.0,21.0
,0.0,16ms_happy,1.0,16ms,0.015951000153904715,23.0,9,0.8136545000597835,happy,study2,28.0,22.0
,0.0,16ms_sad,0.0,16ms,0.01631879992805807,24.0,8,0.7529150997288525,sad,study2,28.0,23.0
,0.0,25ms_happy,1.0,25ms,0.02429590001725046,25.0,9,0.604912799783051,happy,study2,28.0,24.0
,0.0,25ms_sad,1.0,25ms,0.024416099768245655,26.0,7,0.6934684999287128,sad,study2,28.0,25.0
,0.0,16ms_neutral,1.0,16ms,0.015971699729561806,27.0,8,0.5699753002263606,neutral,study2,28.0,26.0
,0.0,25ms_sad,0.0,25ms,0.02491590008150979,28.0,8,0.62596599990502,sad,study2,28.0,27.0
,0.0,141ms_sad,1.0,141ms,0.14994799997657535,29.0,7,0.5068763000890613,sad,study2,28.0,28.0
,0.0,16ms_neutral,1.0,16ms,0.0162618001922965,30.0,8,0.6093405997380614,neutral,study2,28.0,29.0
,0.0,16ms_neutral,1.0,16ms,0.016066000331306896,31.0,8,0.5995895001105964,neutral,study2,28.0,30.0
,0.0,25ms_sad,0.0,25ms,0.024783700238913298,32.0,9,1.086888900026679,sad,study2,28.0,31.0
,0.0,25ms_neutral,1.0,25ms,0.024577499832844296,34.0,8,0.7931643002666533,neutral,study2,28.0,33.0
,0.0,16ms_happy,1.0,16ms,0.01655150018632412,35.0,9,0.6138301002793014,happy,study2,28.0,34.0
,0.0,25ms_happy,1.0,25ms,0.02474830020241825,36.0,9,0.5563952997326851,happy,study2,28.0,35.0
,0.0,16ms_neutral,1.0,16ms,0.016280500218158522,37.0,8,0.598583500366658,neutral,study2,28.0,36.0
,0.0,16ms_sad,0.0,16ms,0.01647209981456399,38.0,8,1.367938699666411,sad,study2,28.0,37.0
,0.0,25ms_sad,1.0,25ms,0.024457199964786014,39.0,7,0.6233183001168072,sad,study2,28.0,38.0
,0.0,25ms_sad,0.0,25ms,0.024878999684119663,40.0,8,0.6840856000781059,sad,study2,28.0,39.0
,0.0,25ms_happy,1.0,25ms,0.024735799990708074,43.0,9,0.8171776998788118,happy,study2,28.0,42.0
,0.0,16ms_sad,0.0,16ms,0.01650359993800521,44.0,8,0.6594977001659572,sad,study2,28.0,43.0
,0.0,141ms_sad,1.0,141ms,0.14967230008926435,45.0,7,0.6762763001024723,sad,study2,28.0,44.0
,0.0,25ms_happy,1.0,25ms,0.025174799840897318,46.0,9,0.6215420998632908,happy,study2,28.0,45.0
,0.0,16ms_happy,1.0,16ms,0.016607500146960774,47.0,9,0.6011808002367616,happy,study2,28.0,46.0
,0.0,16ms_neutral,1.0,16ms,0.016100900247693062,49.0,8,0.6664391998201609,neutral,study2,28.0,48.0
,0.0,141ms_neutral,1.0,141ms,0.14946480002254248,50.0,8,0.4583817003294826,neutral,study2,28.0,49.0
,0.0,16ms_happy,1.0,16ms,0.016410099808126688,51.0,9,0.5426054997369647,happy,study2,28.0,50.0
,0.0,16ms_sad,1.0,16ms,0.01602139975875616,52.0,7,0.5524333999492228,sad,study2,28.0,51.0
,0.0,16ms_neutral,1.0,16ms,0.016221699770540002,53.0,8,0.5184814999811351,neutral,study2,28.0,52.0
,0.0,25ms_happy,1.0,25ms,0.024233000352751333,54.0,9,0.7626248998567462,happy,study2,28.0,53.0
,0.0,141ms_sad,1.0,141ms,0.1494388999418561,55.0,7,0.5361611000262201,sad,study2,28.0,54.0
,0.0,141ms_neutral,1.0,141ms,0.14968169992800995,56.0,8,0.6324318000115454,neutral,study2,28.0,55.0
,0.0,141ms_sad,1.0,141ms,0.1497802999800797,58.0,7,0.5150713999755681,sad,study2,28.0,57.0
,0.0,25ms_sad,1.0,25ms,0.02491270005691604,59.0,7,0.7976110996678472,sad,study2,28.0,58.0
,0.0,16ms_happy,1.0,16ms,0.0161917000076528,60.0,9,0.6728008999489248,happy,study2,28.0,59.0
,0.0,25ms_neutral,1.0,25ms,0.02440039999794408,61.0,8,0.5987627003341913,neutral,study2,28.0,60.0
,0.0,25ms_neutral,1.0,25ms,0.024347499944269657,62.0,8,0.5531027996912599,neutral,study2,28.0,61.0
,0.0,16ms_happy,1.0,16ms,0.015806000213842708,63.0,9,0.5900544002652168,happy,study2,28.0,62.0
,0.0,141ms_neutral,1.0,141ms,0.14934000000368994,64.0,8,0.4623401998542249,neutral,study2,28.0,63.0
,0.0,141ms_sad,1.0,141ms,0.14971589995559498,66.0,7,0.7561440002173185,sad,study2,28.0,65.0
,0.0,25ms_happy,1.0,25ms,0.02465929975710424,68.0,9,0.5392478001303971,happy,study2,28.0,67.0
,0.0,16ms_happy,1.0,16ms,0.0162301999517922,69.0,9,0.5854692002758384,happy,study2,28.0,68.0
,0.0,8ms_sad,0.0,8ms,0.008183000143390018,70.0,8,0.8240434001199901,sad,study2,28.0,69.0
,0.0,16ms_sad,0.0,16ms,0.016592099796753246,71.0,8,0.9310897001996636,sad,study2,28.0,70.0
,0.0,16ms_happy,1.0,16ms,0.016319200396765154,72.0,9,0.6990175996907055,happy,study2,28.0,71.0
,0.0,16ms_neutral,1.0,16ms,0.016024199780076742,73.0,8,0.6331747001968324,neutral,study2,28.0,72.0
,0.0,25ms_neutral,1.0,25ms,0.024386600125581026,74.0,8,0.4556584004312754,neutral,study2,28.0,73.0
,0.0,25ms_happy,1.0,25ms,0.024901099968815288,75.0,9,0.5667988997884095,happy,study2,28.0,74.0
,0.0,16ms_neutral,1.0,16ms,0.016126899980008602,76.0,8,0.5263845003210008,neutral,study2,28.0,75.0
,0.0,25ms_neutral,1.0,25ms,0.024162800051271915,78.0,8,0.5315294000320137,neutral,study2,28.0,77.0
,0.0,25ms_neutral,1.0,25ms,0.0243601999245584,80.0,8,0.4739812999032438,neutral,study2,28.0,79.0
,0.0,25ms_sad,1.0,25ms,0.024789699819166344,83.0,7,0.7870164001360536,sad,study2,28.0,82.0
,0.0,16ms_happy,1.0,16ms,0.016468700021505356,84.0,9,0.6777624995447695,happy,study2,28.0,83.0
,0.0,25ms_neutral,1.0,25ms,0.02431180002145084,85.0,8,0.4960342999547721,neutral,study2,28.0,84.0
,0.0,16ms_sad,0.0,16ms,0.016067299991846085,86.0,9,0.5296565997414291,sad,study2,28.0,85.0
,0.0,16ms_neutral,1.0,16ms,0.016142100095521528,87.0,8,0.4833316002041102,neutral,study2,28.0,86.0
,0.0,141ms_neutral,1.0,141ms,0.14936529984743174,88.0,8,0.563179399818182,neutral,study2,28.0,87.0
,0.0,16ms_happy,1.0,16ms,0.01644559996202588,89.0,9,0.6236125999130309,happy,study2,28.0,88.0
,0.0,25ms_happy,1.0,25ms,0.024619999807327986,90.0,9,0.5988096999935806,happy,study2,28.0,89.0
,0.0,25ms_sad,1.0,25ms,0.0249510002322495,91.0,7,0.6812630002386868,sad,study2,28.0,90.0
,0.0,141ms_neutral,0.0,141ms,0.14913140004500747,93.0,7,0.4720832002349198,neutral,study2,28.0,92.0
,0.0,141ms_neutral,1.0,141ms,0.14928160002455115,94.0,8,0.5400538998655975,neutral,study2,28.0,93.0
,0.0,25ms_sad,1.0,25ms,0.024368499871116,95.0,7,0.6694892002269626,sad,study2,28.0,94.0
,0.0,141ms_neutral,1.0,141ms,0.14943439979128925,96.0,8,0.6539600999094546,neutral,study2,28.0,95.0
,0.0,25ms_sad,1.0,25ms,0.025054300204146784,97.0,7,0.8601939999498427,sad,study2,28.0,96.0
,0.0,141ms_happy,1.0,141ms,0.14934019977226853,98.0,9,0.5475747003220022,happy,study2,28.0,97.0
,0.0,16ms_sad,1.0,16ms,0.01592240016907454,101.0,7,0.672352799680084,sad,study2,28.0,100.0
,0.0,25ms_neutral,1.0,25ms,0.02437020000093071,102.0,8,0.5707334000617266,neutral,study2,28.0,101.0
,0.0,25ms_happy,1.0,25ms,0.024376099929213524,103.0,9,0.455151999834925,happy,study2,28.0,102.0
,0.0,141ms_happy,1.0,141ms,0.15008349996060133,104.0,9,0.4248734996654093,happy,study2,28.0,103.0
,0.0,16ms_sad,1.0,16ms,0.016168399713933468,105.0,7,0.6198140000924468,sad,study2,28.0,104.0
,0.0,141ms_sad,1.0,141ms,0.14975359989307435,106.0,7,0.3883377998135984,sad,study2,28.0,105.0
,0.0,25ms_neutral,1.0,25ms,0.024527999572455883,107.0,8,0.7132163001224399,neutral,study2,28.0,106.0
,0.0,25ms_happy,1.0,25ms,0.024514299817610663,108.0,9,0.4865278000943362,happy,study2,28.0,107.0
,0.0,16ms_sad,0.0,16ms,0.01637340011075139,109.0,8,0.5700169997289777,sad,study2,28.0,108.0
,0.0,16ms_happy,1.0,16ms,0.016000099945813414,111.0,9,0.7152478001080453,happy,study2,28.0,110.0
,0.0,25ms_happy,1.0,25ms,0.024630600120644885,114.0,9,0.6573727000504732,happy,study2,28.0,113.0
,0.0,141ms_neutral,1.0,141ms,0.14952440001093234,116.0,8,0.4558435999788344,neutral,study2,28.0,115.0
,0.0,141ms_sad,1.0,141ms,0.15009199967607856,119.0,7,0.5656508002430201,sad,study2,28.0,118.0
,0.0,25ms_sad,1.0,25ms,0.02494620019569993,120.0,7,0.7964921002276242,sad,study2,28.0,119.0
