,subj_idx,rt,correct,response,stim,level,real_trial_number,trial,block,conditions,study_number,primer_time
,42.0,1.2473605999985011,1.0,8.0,neutral,141ms,8.0,7.0,0.0,141ms_neutral,study2,0.1491496999988157
,42.0,1.104278599999816,1.0,9.0,happy,25ms,10.0,9.0,0.0,25ms_happy,study2,0.0246083999991242
,42.0,1.3665065999994113,1.0,9.0,happy,141ms,11.0,10.0,0.0,141ms_happy,study2,0.1496788999993441
,42.0,1.189962899999955,1.0,7.0,sad,141ms,13.0,12.0,0.0,141ms_sad,study2,0.1497110000000248
,42.0,1.4077118999994127,1.0,9.0,happy,25ms,15.0,14.0,0.0,25ms_happy,study2,0.024650200000849
,42.0,1.01534779999929,1.0,8.0,neutral,25ms,17.0,16.0,0.0,25ms_neutral,study2,0.0244826999987708
,42.0,0.8858782999996038,1.0,8.0,neutral,141ms,18.0,17.0,0.0,141ms_neutral,study2,0.1493143999996391
,42.0,1.0964425000001938,1.0,9.0,happy,25ms,19.0,18.0,0.0,25ms_happy,study2,0.0247811999997793
,42.0,1.123208599999998,1.0,9.0,happy,141ms,20.0,19.0,0.0,141ms_happy,study2,0.1499518000001103
,42.0,1.043310000000929,1.0,9.0,happy,16ms,23.0,22.0,0.0,16ms_happy,study2,0.0160378999989347
,42.0,1.4225495999999112,0.0,9.0,sad,16ms,24.0,23.0,0.0,16ms_sad,study2,0.0165651000007187
,42.0,0.8262776999999915,1.0,9.0,happy,25ms,25.0,24.0,0.0,25ms_happy,study2,0.0244550999995567
,42.0,1.0591038999991724,0.0,8.0,sad,25ms,26.0,25.0,0.0,25ms_sad,study2,0.024472600000081
,42.0,1.2476557000009052,1.0,7.0,sad,141ms,29.0,28.0,0.0,141ms_sad,study2,0.1498989000010624
,42.0,0.8785227999997005,1.0,8.0,neutral,16ms,30.0,29.0,0.0,16ms_neutral,study2,0.016196000000491
,42.0,1.1898421999994753,1.0,8.0,neutral,25ms,34.0,33.0,0.0,25ms_neutral,study2,0.0244359999996959
,42.0,1.0735857999989094,1.0,9.0,happy,25ms,36.0,35.0,0.0,25ms_happy,study2,0.0246416999998473
,42.0,1.2194400999997017,1.0,8.0,neutral,16ms,37.0,36.0,0.0,16ms_neutral,study2,0.0162483000003703
,42.0,1.4288702000012563,0.0,8.0,sad,16ms,38.0,37.0,0.0,16ms_sad,study2,0.0160292000000481
,42.0,0.9424693000000844,1.0,9.0,happy,25ms,43.0,42.0,0.0,25ms_happy,study2,0.0248721999996632
,42.0,1.2500987999992503,1.0,7.0,sad,141ms,45.0,44.0,0.0,141ms_sad,study2,0.1498345999989396
,42.0,1.1238329999996497,1.0,9.0,happy,25ms,46.0,45.0,0.0,25ms_happy,study2,0.0249740999988716
,42.0,1.4576582999998209,0.0,9.0,neutral,8ms,48.0,47.0,0.0,8ms_neutral,study2,0.007705399999395
,42.0,1.4460995000008552,0.0,9.0,neutral,16ms,49.0,48.0,0.0,16ms_neutral,study2,0.0161218000012013
,42.0,1.3906936999992467,1.0,8.0,neutral,141ms,50.0,49.0,0.0,141ms_neutral,study2,0.1493810000010853
,42.0,0.954527699999744,1.0,9.0,happy,16ms,51.0,50.0,0.0,16ms_happy,study2,0.0164069999991625
,42.0,0.7776982000013959,1.0,8.0,neutral,16ms,53.0,52.0,0.0,16ms_neutral,study2,0.0163436999991972
,42.0,0.7830164999995759,1.0,9.0,happy,25ms,54.0,53.0,0.0,25ms_happy,study2,0.0244820999996591
,42.0,1.1873860999985482,1.0,7.0,sad,141ms,55.0,54.0,0.0,141ms_sad,study2,0.1494081000000733
,42.0,0.8759286000004067,1.0,8.0,neutral,141ms,56.0,55.0,0.0,141ms_neutral,study2,0.1495317999997496
,42.0,0.9475886000000172,1.0,9.0,happy,16ms,60.0,59.0,0.0,16ms_happy,study2,0.0159294999994017
,42.0,0.8976063999998587,1.0,8.0,neutral,25ms,61.0,60.0,0.0,25ms_neutral,study2,0.0245615999992878
,42.0,1.1240301999987423,1.0,8.0,neutral,25ms,62.0,61.0,0.0,25ms_neutral,study2,0.0244913999995333
,42.0,0.9370324999999866,1.0,8.0,neutral,141ms,64.0,63.0,0.0,141ms_neutral,study2,0.1494278999998641
,42.0,1.1037869000010687,0.0,9.0,sad,141ms,67.0,66.0,0.0,141ms_sad,study2,0.149667199999385
,42.0,1.24575250000089,1.0,9.0,happy,25ms,68.0,67.0,0.0,25ms_happy,study2,0.0244468000000779
,42.0,0.9899730000015552,0.0,9.0,sad,16ms,71.0,70.0,0.0,16ms_sad,study2,0.0163751000000047
,42.0,1.0297261999985494,1.0,9.0,happy,16ms,72.0,71.0,0.0,16ms_happy,study2,0.0165495000001101
,42.0,0.8101305999989563,1.0,8.0,neutral,25ms,74.0,73.0,0.0,25ms_neutral,study2,0.0245377000010194
,42.0,0.8653557999987243,1.0,9.0,happy,25ms,75.0,74.0,0.0,25ms_happy,study2,0.0249306000005162
,42.0,0.840472800000498,1.0,8.0,neutral,16ms,76.0,75.0,0.0,16ms_neutral,study2,0.0164012999994156
,42.0,1.1640500000012253,1.0,8.0,neutral,25ms,78.0,77.0,0.0,25ms_neutral,study2,0.0244435000004159
,42.0,0.8414669000012509,1.0,8.0,neutral,25ms,80.0,79.0,0.0,25ms_neutral,study2,0.0242711999999301
,42.0,1.273031800001263,0.0,8.0,sad,25ms,83.0,82.0,0.0,25ms_sad,study2,0.0247347000004083
,42.0,1.037774200000058,1.0,8.0,neutral,25ms,85.0,84.0,0.0,25ms_neutral,study2,0.0242710000002261
,42.0,1.3276432999991812,0.0,8.0,sad,16ms,86.0,85.0,0.0,16ms_sad,study2,0.0164696000010735
,42.0,0.6238969000005454,1.0,8.0,neutral,141ms,88.0,87.0,0.0,141ms_neutral,study2,0.149496399999407
,42.0,1.0991522000003895,1.0,9.0,happy,25ms,90.0,89.0,0.0,25ms_happy,study2,0.0243542999996861
,42.0,0.973736400001144,0.0,8.0,sad,25ms,91.0,90.0,0.0,25ms_sad,study2,0.0245553999993717
,42.0,1.051056399999652,1.0,8.0,neutral,141ms,93.0,92.0,0.0,141ms_neutral,study2,0.1494823999984191
,42.0,1.3518708999999944,1.0,7.0,sad,25ms,95.0,94.0,0.0,25ms_sad,study2,0.0242548000006763
,42.0,1.0153388999988238,1.0,8.0,neutral,141ms,96.0,95.0,0.0,141ms_neutral,study2,0.1493957999990698
,42.0,1.2683119000012084,1.0,9.0,happy,141ms,98.0,97.0,0.0,141ms_happy,study2,0.1492705000001706
,42.0,1.298497399999178,1.0,8.0,neutral,25ms,102.0,101.0,0.0,25ms_neutral,study2,0.0244071999985635
,42.0,1.0066618000000744,1.0,9.0,happy,25ms,103.0,102.0,0.0,25ms_happy,study2,0.0243150000007972
,42.0,1.104168899999422,1.0,9.0,happy,141ms,104.0,103.0,0.0,141ms_happy,study2,0.149876999999833
,42.0,1.163188700000319,0.0,9.0,sad,16ms,105.0,104.0,0.0,16ms_sad,study2,0.0165808000001561
,42.0,1.0915182999997342,1.0,7.0,sad,141ms,106.0,105.0,0.0,141ms_sad,study2,0.1497578999988036
,42.0,0.7849504999994679,1.0,8.0,neutral,25ms,107.0,106.0,0.0,25ms_neutral,study2,0.0243756999989273
,42.0,0.7978431999999884,1.0,9.0,happy,25ms,108.0,107.0,0.0,25ms_happy,study2,0.024420600000667
,42.0,0.9139490999987174,1.0,9.0,happy,16ms,111.0,110.0,0.0,16ms_happy,study2,0.0160431999992169
,42.0,0.944309800001065,1.0,9.0,happy,25ms,114.0,113.0,0.0,25ms_happy,study2,0.0245386999995389
,42.0,0.9029905000006692,1.0,8.0,neutral,141ms,116.0,115.0,0.0,141ms_neutral,study2,0.1493312999989484
,42.0,1.076799000000392,1.0,7.0,sad,141ms,119.0,118.0,0.0,141ms_sad,study2,0.1499382000001787
,42.0,1.459560799999963,1.0,7.0,sad,25ms,120.0,119.0,0.0,25ms_sad,study2,0.0249158000003717
,42.0,0.8851388000002771,1.0,8.0,neutral,16ms,122.0,1.0,1.0,16ms_neutral,study2,0.0160375000014028
,42.0,1.4497907000004489,1.0,9.0,happy,141ms,124.0,3.0,1.0,141ms_happy,study2,0.1498645000006035
,42.0,0.7347337000010157,1.0,8.0,neutral,141ms,125.0,4.0,1.0,141ms_neutral,study2,0.1493041000012454
,42.0,0.9638977000013256,1.0,7.0,sad,141ms,126.0,5.0,1.0,141ms_sad,study2,0.150357200000144
,42.0,1.0608897999991314,1.0,7.0,sad,141ms,127.0,6.0,1.0,141ms_sad,study2,0.1497544999999718
,42.0,0.9409603999993124,1.0,8.0,neutral,16ms,129.0,8.0,1.0,16ms_neutral,study2,0.01611800000137
,42.0,1.23422009999922,1.0,9.0,happy,25ms,132.0,11.0,1.0,25ms_happy,study2,0.0248288999991928
,42.0,1.082248000000618,0.0,8.0,sad,25ms,136.0,15.0,1.0,25ms_sad,study2,0.0241996000004292
,42.0,0.9293584000006376,1.0,9.0,happy,16ms,138.0,17.0,1.0,16ms_happy,study2,0.016275199999427
,42.0,0.7068932999991375,1.0,8.0,neutral,141ms,139.0,18.0,1.0,141ms_neutral,study2,0.149576400001024
,42.0,1.24942369999917,1.0,9.0,happy,16ms,141.0,20.0,1.0,16ms_happy,study2,0.0164368000005197
,42.0,0.7161775999993552,1.0,8.0,neutral,141ms,143.0,22.0,1.0,141ms_neutral,study2,0.1494472000013047
,42.0,0.7996978999999556,0.0,8.0,sad,16ms,144.0,23.0,1.0,16ms_sad,study2,0.0163906000000224
,42.0,0.7497920000005251,1.0,8.0,neutral,141ms,146.0,25.0,1.0,141ms_neutral,study2,0.1493780000000697
,42.0,1.389814899999692,0.0,9.0,neutral,25ms,147.0,26.0,1.0,25ms_neutral,study2,0.0243958000010025
,42.0,0.8183637999991333,1.0,9.0,happy,16ms,148.0,27.0,1.0,16ms_happy,study2,0.0160373000016988
,42.0,1.0854417999998986,1.0,7.0,sad,25ms,150.0,29.0,1.0,25ms_sad,study2,0.0243634000000838
,42.0,1.2826511000002938,1.0,8.0,neutral,25ms,154.0,33.0,1.0,25ms_neutral,study2,0.0241573999992397
,42.0,0.8378226000004361,1.0,9.0,happy,25ms,156.0,35.0,1.0,25ms_happy,study2,0.0240496000005805
,42.0,1.0811469000000216,0.0,8.0,sad,25ms,157.0,36.0,1.0,25ms_sad,study2,0.0244390000009389
,42.0,1.3473594000006417,0.0,9.0,sad,25ms,158.0,37.0,1.0,25ms_sad,study2,0.0246445000013864
,42.0,1.1018827999996574,1.0,8.0,neutral,25ms,159.0,38.0,1.0,25ms_neutral,study2,0.0245395999988886
,42.0,1.123664999999164,1.0,8.0,neutral,16ms,161.0,40.0,1.0,16ms_neutral,study2,0.0161093999997774
,42.0,1.0753675000014482,1.0,7.0,sad,141ms,162.0,41.0,1.0,141ms_sad,study2,0.1499684999998862
,42.0,0.774633700000777,1.0,9.0,happy,25ms,163.0,42.0,1.0,25ms_happy,study2,0.0248042999992321
,42.0,0.870918000000529,1.0,9.0,happy,25ms,169.0,48.0,1.0,25ms_happy,study2,0.0246522000015829
,42.0,0.8212677000010444,1.0,9.0,happy,25ms,170.0,49.0,1.0,25ms_happy,study2,0.0248664999999164
,42.0,1.0379069999999049,1.0,9.0,happy,141ms,173.0,52.0,1.0,141ms_happy,study2,0.1498782999988179
,42.0,0.880610299998807,0.0,9.0,sad,16ms,175.0,54.0,1.0,16ms_sad,study2,0.0163185999992947
,42.0,0.943804700000328,1.0,8.0,neutral,25ms,178.0,57.0,1.0,25ms_neutral,study2,0.0242574000005788
,42.0,1.1504445000009582,1.0,9.0,happy,16ms,181.0,60.0,1.0,16ms_happy,study2,0.0162116999999852
,42.0,1.3657146000005014,1.0,8.0,neutral,141ms,182.0,61.0,1.0,141ms_neutral,study2,0.1494012999992264
,42.0,0.954729300001418,1.0,8.0,neutral,141ms,184.0,63.0,1.0,141ms_neutral,study2,0.1495992000000114
,42.0,1.191983299999265,1.0,9.0,happy,141ms,187.0,66.0,1.0,141ms_happy,study2,0.1498145000005024
,42.0,0.8209079999996902,0.0,9.0,neutral,16ms,189.0,68.0,1.0,16ms_neutral,study2,0.0161550000011629
,42.0,0.8490593000005902,0.0,8.0,sad,25ms,190.0,69.0,1.0,25ms_sad,study2,0.0248213999984727
,42.0,0.908796199999415,0.0,8.0,sad,25ms,191.0,70.0,1.0,25ms_sad,study2,0.024881700000833
,42.0,1.0101962000007916,1.0,7.0,sad,141ms,193.0,72.0,1.0,141ms_sad,study2,0.1493879999998171
,42.0,1.0050537000006443,1.0,9.0,happy,16ms,198.0,77.0,1.0,16ms_happy,study2,0.0164991000001464
,42.0,1.21267909999915,1.0,9.0,happy,141ms,199.0,78.0,1.0,141ms_happy,study2,0.1493940999989718
,42.0,1.0056500999999116,1.0,8.0,neutral,25ms,200.0,79.0,1.0,25ms_neutral,study2,0.0245218000000022
,42.0,1.133168599999408,1.0,7.0,sad,141ms,202.0,81.0,1.0,141ms_sad,study2,0.1497608000008767
,42.0,0.815387799999371,1.0,8.0,neutral,141ms,203.0,82.0,1.0,141ms_neutral,study2,0.1491485000008197
,42.0,0.751928499999849,1.0,9.0,happy,25ms,208.0,87.0,1.0,25ms_happy,study2,0.0245021000009728
,42.0,1.1286182000003464,0.0,7.0,neutral,25ms,209.0,88.0,1.0,25ms_neutral,study2,0.0243339999999534
,42.0,1.1243930000000546,1.0,7.0,sad,141ms,212.0,91.0,1.0,141ms_sad,study2,0.1499732999998286
,42.0,0.8138272999985929,1.0,8.0,neutral,25ms,213.0,92.0,1.0,25ms_neutral,study2,0.0246812999996564
,42.0,0.7617429000001721,1.0,8.0,neutral,16ms,216.0,95.0,1.0,16ms_neutral,study2,0.0161358999994263
,42.0,1.0894768999987718,1.0,9.0,happy,25ms,218.0,97.0,1.0,25ms_happy,study2,0.0248150000006717
,42.0,0.7995243999994273,1.0,8.0,neutral,25ms,221.0,100.0,1.0,25ms_neutral,study2,0.0244232000004558
,42.0,1.1315209999993383,1.0,7.0,sad,141ms,222.0,101.0,1.0,141ms_sad,study2,0.1492921000008209
,42.0,0.7078547999990406,1.0,8.0,neutral,141ms,223.0,102.0,1.0,141ms_neutral,study2,0.1493024000010336
,42.0,0.7702302999987296,1.0,8.0,neutral,16ms,224.0,103.0,1.0,16ms_neutral,study2,0.0159743999993224
,42.0,1.1356818999993266,1.0,7.0,sad,141ms,226.0,105.0,1.0,141ms_sad,study2,0.1500513999999384
,42.0,0.6639859999995679,1.0,8.0,neutral,141ms,227.0,106.0,1.0,141ms_neutral,study2,0.1495023000009041
,42.0,1.475505799999155,1.0,7.0,sad,141ms,229.0,108.0,1.0,141ms_sad,study2,0.1496583999996801
,42.0,1.1410962999998446,1.0,9.0,happy,141ms,233.0,112.0,1.0,141ms_happy,study2,0.1498041000002103
,42.0,1.0612156000006507,1.0,9.0,happy,141ms,234.0,113.0,1.0,141ms_happy,study2,0.1493617999985872
,42.0,0.8312944000008429,1.0,8.0,neutral,16ms,237.0,116.0,1.0,16ms_neutral,study2,0.0162518000013278
,42.0,0.9074409999993804,1.0,9.0,happy,25ms,242.0,1.0,2.0,25ms_happy,study2,0.0242713000004641
,42.0,1.092808999999761,1.0,9.0,happy,141ms,243.0,2.0,2.0,141ms_happy,study2,0.1492536000000655
,42.0,0.8133252000006905,1.0,9.0,happy,16ms,245.0,4.0,2.0,16ms_happy,study2,0.0163970000007793
,42.0,0.7900938000002498,1.0,9.0,happy,16ms,247.0,6.0,2.0,16ms_happy,study2,0.0159495999994305
,42.0,0.9897035000012692,1.0,7.0,sad,141ms,248.0,7.0,2.0,141ms_sad,study2,0.1494365999992624
,42.0,1.1525662999993074,0.0,9.0,sad,16ms,249.0,8.0,2.0,16ms_sad,study2,0.0168049999995218
,42.0,1.359911600000487,1.0,8.0,neutral,141ms,250.0,9.0,2.0,141ms_neutral,study2,0.1492445000003499
,42.0,1.0056860000004235,1.0,7.0,sad,141ms,253.0,12.0,2.0,141ms_sad,study2,0.1500435999992078
,42.0,0.9957873999992444,1.0,9.0,happy,141ms,255.0,14.0,2.0,141ms_happy,study2,0.1492823000007774
,42.0,1.046774300000834,1.0,9.0,happy,141ms,256.0,15.0,2.0,141ms_happy,study2,0.1495847999992747
,42.0,1.0532046999996965,1.0,7.0,sad,25ms,257.0,16.0,2.0,25ms_sad,study2,0.0245828000004166
,42.0,0.904115699999238,0.0,9.0,sad,16ms,259.0,18.0,2.0,16ms_sad,study2,0.0165396999996119
,42.0,0.8977099000003363,1.0,8.0,neutral,25ms,260.0,19.0,2.0,25ms_neutral,study2,0.0243245000003753
,42.0,0.6181765000001178,1.0,8.0,neutral,141ms,261.0,20.0,2.0,141ms_neutral,study2,0.149285499999678
,42.0,1.3727314000007027,1.0,7.0,sad,25ms,262.0,21.0,2.0,25ms_sad,study2,0.0249029000005975
,42.0,0.7864618000003247,1.0,8.0,neutral,16ms,263.0,22.0,2.0,16ms_neutral,study2,0.0160543999991205
,42.0,1.0438993999996455,1.0,9.0,happy,141ms,264.0,23.0,2.0,141ms_happy,study2,0.1493921999990561
,42.0,1.0444942000012816,1.0,7.0,sad,141ms,267.0,26.0,2.0,141ms_sad,study2,0.1498026000003847
,42.0,0.7557849000004353,1.0,9.0,happy,16ms,268.0,27.0,2.0,16ms_happy,study2,0.0159782000009727
,42.0,1.1721753999991051,1.0,9.0,happy,16ms,269.0,28.0,2.0,16ms_happy,study2,0.0159012999993137
,42.0,1.1370552999997017,0.0,8.0,sad,141ms,271.0,30.0,2.0,141ms_sad,study2,0.149541100000988
,42.0,1.0613324000005375,1.0,8.0,neutral,16ms,272.0,31.0,2.0,16ms_neutral,study2,0.0160465000003569
,42.0,0.9296590000012656,1.0,9.0,happy,141ms,273.0,32.0,2.0,141ms_happy,study2,0.1493221999990055
,42.0,0.8944866999991063,1.0,8.0,neutral,141ms,274.0,33.0,2.0,141ms_neutral,study2,0.1495410000006813
,42.0,0.7378728000003321,1.0,8.0,neutral,25ms,276.0,35.0,2.0,25ms_neutral,study2,0.0245653999991191
,42.0,0.8723157999993418,1.0,8.0,neutral,25ms,277.0,36.0,2.0,25ms_neutral,study2,0.0241319999986444
,42.0,1.1021541000009163,1.0,7.0,sad,141ms,278.0,37.0,2.0,141ms_sad,study2,0.1492156999993312
,42.0,0.8177095999999437,1.0,8.0,neutral,141ms,281.0,40.0,2.0,141ms_neutral,study2,0.1494545000005018
,42.0,1.3601607000000513,0.0,9.0,neutral,16ms,282.0,41.0,2.0,16ms_neutral,study2,0.0158009000006131
,42.0,0.7717723999994632,1.0,9.0,happy,25ms,284.0,43.0,2.0,25ms_happy,study2,0.02469850000125
,42.0,0.7070375999992393,1.0,8.0,neutral,141ms,286.0,45.0,2.0,141ms_neutral,study2,0.1493019000008644
,42.0,1.2018838999993022,1.0,7.0,sad,141ms,288.0,47.0,2.0,141ms_sad,study2,0.1498726000008901
,42.0,0.9520095999996556,0.0,9.0,sad,25ms,289.0,48.0,2.0,25ms_sad,study2,0.0249239999993733
,42.0,1.0305595999998332,1.0,8.0,neutral,141ms,291.0,50.0,2.0,141ms_neutral,study2,0.1492229999998926
,42.0,0.9810012000016286,1.0,9.0,happy,16ms,293.0,52.0,2.0,16ms_happy,study2,0.0163213999999243
,42.0,1.2351054999999178,1.0,9.0,happy,141ms,299.0,58.0,2.0,141ms_happy,study2,0.1495642000004409
,42.0,1.2955407000008563,1.0,9.0,happy,25ms,300.0,59.0,2.0,25ms_happy,study2,0.0244406000001617
,42.0,0.7861180999989301,1.0,8.0,neutral,25ms,302.0,61.0,2.0,25ms_neutral,study2,0.0243452999998226
,42.0,1.080808499998966,1.0,9.0,happy,16ms,303.0,62.0,2.0,16ms_happy,study2,0.0165759999999863
,42.0,0.8893621000006533,1.0,7.0,sad,141ms,304.0,63.0,2.0,141ms_sad,study2,0.1498011000003316
,42.0,1.4048519000007218,1.0,9.0,happy,141ms,306.0,65.0,2.0,141ms_happy,study2,0.1492657999988296
,42.0,1.034266700000444,1.0,7.0,sad,25ms,308.0,67.0,2.0,25ms_sad,study2,0.0247482999989188
,42.0,0.8957816000001912,1.0,9.0,happy,25ms,309.0,68.0,2.0,25ms_happy,study2,0.0249666999989131
,42.0,1.4240496999991592,1.0,8.0,neutral,16ms,310.0,69.0,2.0,16ms_neutral,study2,0.0160488999990775
,42.0,1.2831983999985823,0.0,8.0,sad,141ms,311.0,70.0,2.0,141ms_sad,study2,0.1499985999998898
,42.0,0.8707328000000416,1.0,9.0,happy,16ms,312.0,71.0,2.0,16ms_happy,study2,0.0164224000000103
,42.0,1.426433199998428,1.0,9.0,happy,141ms,313.0,72.0,2.0,141ms_happy,study2,0.1500522999995155
,42.0,1.2902890000004843,0.0,9.0,neutral,16ms,314.0,73.0,2.0,16ms_neutral,study2,0.0160728999994717
,42.0,1.155302400000437,1.0,7.0,sad,141ms,315.0,74.0,2.0,141ms_sad,study2,0.1496766999989631
,42.0,0.9161223999999492,1.0,8.0,neutral,25ms,316.0,75.0,2.0,25ms_neutral,study2,0.0241860000005544
,42.0,0.845917599999666,0.0,8.0,sad,141ms,319.0,78.0,2.0,141ms_sad,study2,0.1497319000009156
,42.0,1.0547185999985231,1.0,7.0,sad,141ms,321.0,80.0,2.0,141ms_sad,study2,0.1499586999998428
,42.0,0.8585511000001134,1.0,9.0,happy,16ms,322.0,81.0,2.0,16ms_happy,study2,0.0166825999986031
,42.0,1.0473149999997986,1.0,7.0,sad,141ms,323.0,82.0,2.0,141ms_sad,study2,0.1491439999990689
,42.0,0.8617358999999851,1.0,7.0,sad,141ms,325.0,84.0,2.0,141ms_sad,study2,0.1496322999992116
,42.0,0.5813911000004737,0.0,7.0,happy,141ms,327.0,86.0,2.0,141ms_happy,study2,0.1501716999991913
,42.0,1.2207813000004537,1.0,8.0,neutral,141ms,328.0,87.0,2.0,141ms_neutral,study2,0.1494363999991037
,42.0,0.9510207999992416,1.0,8.0,neutral,25ms,331.0,90.0,2.0,25ms_neutral,study2,0.0243825999991713
,42.0,0.8312132999999449,1.0,7.0,sad,141ms,332.0,91.0,2.0,141ms_sad,study2,0.149583899999925
,42.0,0.9637136000001192,1.0,9.0,happy,16ms,334.0,93.0,2.0,16ms_happy,study2,0.0158006999990902
,42.0,1.345725900000616,1.0,9.0,happy,141ms,335.0,94.0,2.0,141ms_happy,study2,0.1496621999999661
,42.0,1.1978834999990795,1.0,9.0,happy,25ms,336.0,95.0,2.0,25ms_happy,study2,0.0250740999999834
,42.0,1.0936507000005804,1.0,9.0,happy,25ms,337.0,96.0,2.0,25ms_happy,study2,0.0244370000000344
,42.0,0.8145556999988912,1.0,9.0,happy,25ms,338.0,97.0,2.0,25ms_happy,study2,0.0247632999999041
,42.0,1.1199830000005022,1.0,9.0,happy,16ms,340.0,99.0,2.0,16ms_happy,study2,0.0161411000008229
,42.0,0.9599417000008544,1.0,7.0,sad,141ms,341.0,100.0,2.0,141ms_sad,study2,0.1496172000006481
,42.0,1.241874800000005,1.0,9.0,happy,141ms,343.0,102.0,2.0,141ms_happy,study2,0.1493110999999771
,42.0,0.7962416999998823,1.0,8.0,neutral,141ms,345.0,104.0,2.0,141ms_neutral,study2,0.1495320999988507
,42.0,0.9799729000005756,0.0,8.0,sad,16ms,346.0,105.0,2.0,16ms_sad,study2,0.0165477000009559
,42.0,0.8447654999999941,1.0,8.0,neutral,25ms,347.0,106.0,2.0,25ms_neutral,study2,0.0244308000001183
,42.0,0.8125221000009333,1.0,9.0,happy,16ms,349.0,108.0,2.0,16ms_happy,study2,0.0164521000001514
,42.0,1.3713728000002448,1.0,9.0,happy,141ms,350.0,109.0,2.0,141ms_happy,study2,0.1495132000000012
,42.0,1.37498240000059,0.0,9.0,sad,25ms,352.0,111.0,2.0,25ms_sad,study2,0.0248417000002518
,42.0,1.1230949000000692,1.0,9.0,happy,16ms,353.0,112.0,2.0,16ms_happy,study2,0.016351799999029
,42.0,1.0004604999994626,1.0,9.0,happy,25ms,359.0,118.0,2.0,25ms_happy,study2,0.0246704000001045
,42.0,0.7042245000011462,1.0,8.0,neutral,141ms,360.0,119.0,2.0,141ms_neutral,study2,0.1494597000000794
,3.0,0.7847714000381529,0.0,neutral,sad,25ms,4.0,0.0,0.0,25ms_sad,study1,0.0256241000373904
,3.0,0.4374761999351904,1.0,neutral,neutral,25ms,5.0,1.0,0.0,25ms_neutral,study1,0.0269782999879737
,3.0,1.2608012999407947,1.0,sad,sad,25ms,6.0,2.0,0.0,25ms_sad,study1,0.026748000097001
,3.0,1.3694255000445992,1.0,happy,happy,25ms,7.0,3.0,0.0,25ms_happy,study1,0.0263179999659826
,3.0,1.3480356999207288,1.0,sad,sad,25ms,9.0,5.0,0.0,25ms_sad,study1,0.0269464000943173
,3.0,1.0940157999284563,1.0,neutral,neutral,25ms,10.0,6.0,0.0,25ms_neutral,study1,0.0270356000750382
,3.0,0.6872843999881297,1.0,neutral,neutral,141ms,11.0,7.0,0.0,141ms_neutral,study1,0.1684169998974596
,3.0,1.0874801999889314,1.0,happy,happy,25ms,12.0,8.0,0.0,25ms_happy,study1,0.0269936999888216
,3.0,0.8046442000195384,1.0,neutral,neutral,141ms,13.0,9.0,0.0,141ms_neutral,study1,0.1599163000122843
,3.0,1.3713657999178397,1.0,happy,happy,25ms,14.0,10.0,0.0,25ms_happy,study1,0.0263736000401308
,3.0,1.3665516000473872,1.0,sad,sad,141ms,15.0,11.0,0.0,141ms_sad,study1,0.1303994999383633
,3.0,0.9706366000464186,1.0,neutral,neutral,141ms,16.0,12.0,0.0,141ms_neutral,study1,0.1689366000122447
,3.0,0.7969153000740334,1.0,happy,happy,25ms,17.0,13.0,0.0,25ms_happy,study1,0.0230012999731172
,3.0,0.9843363000545652,1.0,happy,happy,25ms,18.0,14.0,0.0,25ms_happy,study1,0.0221854000468795
,3.0,1.0919647000264376,1.0,sad,sad,141ms,20.0,16.0,0.0,141ms_sad,study1,0.1306255999137562
,3.0,0.7372800000011921,1.0,happy,happy,25ms,21.0,17.0,0.0,25ms_happy,study1,0.0222465000464637
,3.0,1.051478200010024,1.0,happy,happy,25ms,22.0,18.0,0.0,25ms_happy,study1,0.0256087000365425
,3.0,0.6841721000382677,1.0,happy,happy,141ms,23.0,19.0,0.0,141ms_happy,study1,0.130330900114501
,3.0,0.6446785000152886,1.0,happy,happy,141ms,24.0,20.0,0.0,141ms_happy,study1,0.1652760999626537
,3.0,0.9336231000488624,1.0,sad,sad,141ms,26.0,22.0,0.0,141ms_sad,study1,0.133587900002027
,3.0,0.9385678999824448,1.0,happy,happy,25ms,27.0,23.0,0.0,25ms_happy,study1,0.0222801999538262
,3.0,0.6087102999445051,1.0,happy,happy,141ms,28.0,24.0,0.0,141ms_happy,study1,0.1351772999973093
,3.0,0.5479251999640837,1.0,neutral,neutral,141ms,29.0,25.0,0.0,141ms_neutral,study1,0.1627303000190352
,3.0,0.6376081000780687,1.0,happy,happy,141ms,30.0,26.0,0.0,141ms_happy,study1,0.1343988000066076
,3.0,0.5837383000180125,1.0,happy,happy,25ms,31.0,27.0,0.0,25ms_happy,study1,0.0231628999230508
,3.0,0.8754065000684932,0.0,neutral,sad,25ms,32.0,28.0,0.0,25ms_sad,study1,0.025911800016189
,3.0,0.7463620000053197,1.0,neutral,neutral,141ms,33.0,29.0,0.0,141ms_neutral,study1,0.1643725999514629
,3.0,0.6003930999431759,1.0,neutral,neutral,141ms,34.0,30.0,0.0,141ms_neutral,study1,0.156215300003538
,3.0,0.7109116999199614,1.0,happy,happy,141ms,39.0,35.0,0.0,141ms_happy,study1,0.1595250999438917
,3.0,0.81887839990668,1.0,sad,sad,141ms,40.0,36.0,0.0,141ms_sad,study1,0.1681749999173405
,3.0,0.6122248000465333,1.0,neutral,neutral,141ms,41.0,37.0,0.0,141ms_neutral,study1,0.1664235999691072
,3.0,1.3244346999563277,0.0,happy,sad,25ms,42.0,38.0,0.0,25ms_sad,study1,0.0226388000068311
,3.0,0.9559991999994965,1.0,happy,happy,25ms,45.0,41.0,0.0,25ms_happy,study1,0.0265487999771778
,3.0,1.199209500104189,1.0,happy,happy,25ms,46.0,42.0,0.0,25ms_happy,study1,0.0232002999750022
,3.0,1.0100472000194711,1.0,happy,happy,141ms,48.0,44.0,0.0,141ms_happy,study1,0.1303779000067209
,3.0,1.4047082000179216,0.0,sad,neutral,141ms,52.0,48.0,0.0,141ms_neutral,study1,0.1537792999646683
,3.0,0.6415679999627173,1.0,happy,happy,141ms,54.0,50.0,0.0,141ms_happy,study1,0.1348311000387241
,3.0,0.7559977000346407,1.0,happy,happy,25ms,57.0,53.0,0.0,25ms_happy,study1,0.0261521999840397
,3.0,0.7439574999734759,1.0,neutral,neutral,141ms,59.0,55.0,0.0,141ms_neutral,study1,0.1653638000483681
,3.0,0.8255964999552816,1.0,happy,happy,141ms,60.0,56.0,0.0,141ms_happy,study1,0.1331749000004549
,3.0,1.0076835999498144,1.0,neutral,neutral,141ms,61.0,57.0,0.0,141ms_neutral,study1,0.1672213999903533
,3.0,0.6746092999819666,1.0,neutral,neutral,141ms,62.0,58.0,0.0,141ms_neutral,study1,0.1607867000042233
,3.0,1.0700503999833018,1.0,neutral,neutral,141ms,63.0,59.0,0.0,141ms_neutral,study1,0.1541454000747535
,3.0,0.7038352000527084,1.0,happy,happy,141ms,66.0,62.0,0.0,141ms_happy,study1,0.136239899939369
,3.0,0.6436371000017971,1.0,happy,happy,25ms,67.0,63.0,0.0,25ms_happy,study1,0.0223905999795306
,3.0,0.6427630999824032,1.0,happy,happy,25ms,68.0,64.0,0.0,25ms_happy,study1,0.0218150999047566
,3.0,0.9617087999358772,1.0,happy,happy,25ms,70.0,66.0,0.0,25ms_happy,study1,0.0215319999609846
,3.0,0.5575817000353709,1.0,happy,happy,25ms,71.0,67.0,0.0,25ms_happy,study1,0.0269394000409874
,3.0,0.4793753999983892,1.0,happy,happy,141ms,72.0,68.0,0.0,141ms_happy,study1,0.1358290000702027
,3.0,0.878341400064528,0.0,happy,sad,25ms,73.0,69.0,0.0,25ms_sad,study1,0.0232972000143263
,3.0,0.6139536999398842,1.0,happy,happy,25ms,74.0,70.0,0.0,25ms_happy,study1,0.0226602999376837
,3.0,1.0221766999457031,1.0,happy,happy,25ms,75.0,71.0,0.0,25ms_happy,study1,0.025969599990617
,3.0,0.2984500000020489,1.0,happy,happy,141ms,76.0,72.0,0.0,141ms_happy,study1,0.1587124999263096
,3.0,0.8713982000481337,0.0,happy,sad,25ms,77.0,73.0,0.0,25ms_sad,study1,0.0260894000879261
,3.0,0.8020585000049323,1.0,happy,happy,25ms,78.0,74.0,0.0,25ms_happy,study1,0.0257320000440586
,3.0,0.93279240000993,1.0,sad,sad,25ms,79.0,75.0,0.0,25ms_sad,study1,0.0261338999611098
,3.0,0.91630299994722,1.0,neutral,neutral,141ms,80.0,76.0,0.0,141ms_neutral,study1,0.1621901999808983
,3.0,1.2567603000206873,1.0,happy,happy,141ms,82.0,78.0,0.0,141ms_happy,study1,0.1566622000304391
,3.0,0.7517031999304891,1.0,sad,sad,141ms,83.0,79.0,0.0,141ms_sad,study1,0.1367029999731812
,3.0,1.3073909999802709,0.0,neutral,sad,25ms,85.0,81.0,0.0,25ms_sad,study1,0.0216759000089155
,3.0,0.7584322999464348,1.0,happy,happy,141ms,86.0,82.0,0.0,141ms_happy,study1,0.1309551999787572
,3.0,1.3529592999257147,1.0,sad,sad,25ms,88.0,84.0,0.0,25ms_sad,study1,0.0225306999985832
,3.0,0.8341973000206053,1.0,happy,happy,141ms,91.0,87.0,0.0,141ms_happy,study1,0.1563705000211257
,3.0,0.7428663000464439,1.0,sad,sad,141ms,92.0,88.0,0.0,141ms_sad,study1,0.13381429997969
,3.0,1.3791733999969438,1.0,sad,sad,25ms,93.0,89.0,0.0,25ms_sad,study1,0.0226910000550333
,3.0,1.0885056999977678,0.0,neutral,sad,25ms,94.0,90.0,0.0,25ms_sad,study1,0.0229036000440601
,3.0,0.9803660999750718,0.0,neutral,sad,25ms,96.0,92.0,0.0,25ms_sad,study1,0.0214326000190112
,3.0,1.2893533000024036,0.0,neutral,sad,141ms,97.0,93.0,0.0,141ms_sad,study1,0.1312911999760899
,3.0,0.9432974000228568,1.0,sad,sad,25ms,98.0,94.0,0.0,25ms_sad,study1,0.027468300110172
,3.0,0.518871600041166,1.0,sad,sad,141ms,99.0,95.0,0.0,141ms_sad,study1,0.1606871999450163
,3.0,0.70085410005413,1.0,happy,happy,141ms,101.0,97.0,0.0,141ms_happy,study1,0.1588593999970839
,3.0,1.037962899892591,1.0,neutral,neutral,25ms,102.0,98.0,0.0,25ms_neutral,study1,0.0252348999841842
,3.0,0.7568726999452338,1.0,sad,sad,141ms,103.0,99.0,0.0,141ms_sad,study1,0.1374748000292811
,3.0,0.694067700067535,1.0,neutral,neutral,141ms,104.0,100.0,0.0,141ms_neutral,study1,0.1665647999965926
,3.0,0.5934489000355825,1.0,sad,sad,141ms,105.0,101.0,0.0,141ms_sad,study1,0.1635078000020939
,3.0,0.7272136000683531,1.0,happy,happy,141ms,106.0,102.0,0.0,141ms_happy,study1,0.1590636000385643
,3.0,1.0112018999643624,1.0,sad,sad,25ms,107.0,103.0,0.0,25ms_sad,study1,0.0255173000390414
,3.0,1.0973211999516934,1.0,sad,sad,25ms,108.0,104.0,0.0,25ms_sad,study1,0.0271285999682504
,3.0,1.1995498000178486,1.0,happy,happy,25ms,109.0,105.0,0.0,25ms_happy,study1,0.0223253000644376
,3.0,0.7900983999716118,1.0,happy,happy,141ms,111.0,107.0,0.0,141ms_happy,study1,0.1578812999999854
,3.0,0.5069038999499753,1.0,sad,sad,141ms,112.0,108.0,0.0,141ms_sad,study1,0.1370178999262066
,3.0,1.4433694999897853,1.0,neutral,neutral,25ms,113.0,109.0,0.0,25ms_neutral,study1,0.0255893000052651
,3.0,0.5985306999646127,1.0,sad,sad,141ms,114.0,110.0,0.0,141ms_sad,study1,0.131736399990018
,3.0,0.435413800063543,1.0,happy,happy,141ms,115.0,111.0,0.0,141ms_happy,study1,0.1699883999885401
,3.0,0.6887286999262869,1.0,neutral,neutral,141ms,116.0,112.0,0.0,141ms_neutral,study1,0.1639073000172857
,3.0,0.8152136000571772,1.0,sad,sad,25ms,117.0,113.0,0.0,25ms_sad,study1,0.0264050000463953
,3.0,0.7421816000714898,1.0,happy,happy,25ms,118.0,114.0,0.0,25ms_happy,study1,0.0260289999771998
,3.0,0.7623354999814183,1.0,happy,happy,141ms,119.0,115.0,0.0,141ms_happy,study1,0.1601693999603526
,3.0,0.7016344000585377,1.0,sad,sad,141ms,120.0,116.0,0.0,141ms_sad,study1,0.1577066999510634
,3.0,0.819251999957487,1.0,neutral,neutral,141ms,121.0,117.0,0.0,141ms_neutral,study1,0.1613973999977815
,3.0,0.6220747999614105,1.0,neutral,neutral,141ms,122.0,118.0,0.0,141ms_neutral,study1,0.167139999952667
,3.0,0.6774568000109866,1.0,neutral,neutral,141ms,123.0,119.0,0.0,141ms_neutral,study1,0.1686289999983046
,3.0,1.3629466999555009,0.0,neutral,sad,16ms,124.0,0.0,1.0,16ms_sad,study1,0.014865900075506
,3.0,0.8019749000668526,1.0,neutral,neutral,16ms,125.0,1.0,1.0,16ms_neutral,study1,0.0170900000142637
,3.0,0.6388279000530019,1.0,sad,sad,141ms,126.0,2.0,1.0,141ms_sad,study1,0.1587853000149834
,3.0,0.7684739000396803,1.0,sad,sad,141ms,127.0,3.0,1.0,141ms_sad,study1,0.1309314999147091
,3.0,0.7765679000876844,0.0,sad,neutral,141ms,128.0,4.0,1.0,141ms_neutral,study1,0.1610446999897021
,3.0,0.8511471999809146,1.0,neutral,neutral,16ms,131.0,7.0,1.0,16ms_neutral,study1,0.0170335000497061
,3.0,1.2822332999203354,0.0,neutral,sad,16ms,133.0,9.0,1.0,16ms_sad,study1,0.0152463000617331
,3.0,0.7621062999824062,1.0,neutral,neutral,141ms,134.0,10.0,1.0,141ms_neutral,study1,0.1638954999274346
,3.0,0.6479916999815032,1.0,neutral,neutral,141ms,135.0,11.0,1.0,141ms_neutral,study1,0.1588276999886488
,3.0,1.0929655999643728,0.0,neutral,sad,16ms,136.0,12.0,1.0,16ms_sad,study1,0.0151430000900063
,3.0,0.6415159000316635,1.0,happy,happy,141ms,137.0,13.0,1.0,141ms_happy,study1,0.1316058000433599
,3.0,0.5247762000653893,1.0,happy,happy,141ms,138.0,14.0,1.0,141ms_happy,study1,0.1551613000104339
,3.0,0.7179861000040546,1.0,neutral,neutral,141ms,139.0,15.0,1.0,141ms_neutral,study1,0.1602655999944318
,3.0,0.7210764000192285,1.0,neutral,neutral,16ms,140.0,16.0,1.0,16ms_neutral,study1,0.0161641999496851
,3.0,0.7360464000375941,1.0,happy,happy,16ms,141.0,17.0,1.0,16ms_happy,study1,0.0176639999612575
,3.0,1.362657899968326,0.0,neutral,sad,141ms,142.0,18.0,1.0,141ms_sad,study1,0.1399072999250279
,3.0,0.6629511999199167,1.0,happy,happy,141ms,143.0,19.0,1.0,141ms_happy,study1,0.1363794000702682
,3.0,0.9720729000400752,1.0,happy,happy,16ms,144.0,20.0,1.0,16ms_happy,study1,0.0153671999345306
,3.0,0.5974573000567034,1.0,happy,happy,141ms,145.0,21.0,1.0,141ms_happy,study1,0.1375052000279311
,3.0,0.9637956999940798,1.0,neutral,neutral,141ms,148.0,24.0,1.0,141ms_neutral,study1,0.1596014999435056
,3.0,0.6499664000002667,1.0,happy,happy,16ms,149.0,25.0,1.0,16ms_happy,study1,0.0163034000783
,3.0,1.2342993998900056,1.0,neutral,neutral,16ms,150.0,26.0,1.0,16ms_neutral,study1,0.0170447000185731
,3.0,1.39202699996531,1.0,happy,happy,16ms,151.0,27.0,1.0,16ms_happy,study1,0.0171060000196803
,3.0,0.7189330999972299,1.0,sad,sad,141ms,152.0,28.0,1.0,141ms_sad,study1,0.1351690000504959
,3.0,0.5783873999025673,1.0,happy,happy,141ms,153.0,29.0,1.0,141ms_happy,study1,0.1613151000696007
,3.0,0.9036256999243052,1.0,happy,happy,16ms,154.0,30.0,1.0,16ms_happy,study1,0.0153038000338483
,3.0,1.296374100027606,1.0,happy,happy,16ms,155.0,31.0,1.0,16ms_happy,study1,0.0165615000645402
,3.0,0.6753483999054879,1.0,neutral,neutral,141ms,156.0,32.0,1.0,141ms_neutral,study1,0.1599504000390652
,3.0,1.0583322000456974,0.0,neutral,sad,16ms,157.0,33.0,1.0,16ms_sad,study1,0.0152103000203851
,3.0,0.8149733999744058,1.0,happy,happy,16ms,159.0,35.0,1.0,16ms_happy,study1,0.0151005999999824
,3.0,0.665490600047633,1.0,neutral,neutral,141ms,160.0,36.0,1.0,141ms_neutral,study1,0.1651451000128645
,3.0,0.7014316000277176,1.0,neutral,neutral,141ms,161.0,37.0,1.0,141ms_neutral,study1,0.16101760001618
,3.0,0.4973368999781087,1.0,happy,happy,141ms,162.0,38.0,1.0,141ms_happy,study1,0.1570106000057194
,3.0,0.5810494000324979,1.0,happy,happy,141ms,163.0,39.0,1.0,141ms_happy,study1,0.1372796999406773
,3.0,0.5749638999113813,1.0,happy,happy,16ms,164.0,40.0,1.0,16ms_happy,study1,0.0152341999695408
,3.0,1.280675599933602,1.0,neutral,neutral,141ms,165.0,41.0,1.0,141ms_neutral,study1,0.1590376999578211
,3.0,0.6708770000841469,1.0,happy,happy,141ms,166.0,42.0,1.0,141ms_happy,study1,0.1365069999941397
,3.0,0.555631999974139,1.0,happy,happy,141ms,167.0,43.0,1.0,141ms_happy,study1,0.1595863000605959
,3.0,1.2694189000176266,0.0,neutral,sad,141ms,168.0,44.0,1.0,141ms_sad,study1,0.1352778999483916
,3.0,0.9900247999466956,1.0,neutral,neutral,16ms,169.0,45.0,1.0,16ms_neutral,study1,0.0177791999070677
,3.0,1.0437289000255987,1.0,neutral,neutral,16ms,170.0,46.0,1.0,16ms_neutral,study1,0.0171413000556412
,3.0,0.7069604999851435,1.0,happy,happy,16ms,171.0,47.0,1.0,16ms_happy,study1,0.0172958000679273
,3.0,1.0161503999261186,1.0,neutral,neutral,141ms,172.0,48.0,1.0,141ms_neutral,study1,0.1557730000116635
,3.0,0.5908060999354348,1.0,happy,happy,16ms,173.0,49.0,1.0,16ms_happy,study1,0.0153372000553417
,3.0,0.6326850999612361,1.0,happy,happy,16ms,174.0,50.0,1.0,16ms_happy,study1,0.0172065000864449
,3.0,1.177231700043194,1.0,neutral,neutral,141ms,175.0,51.0,1.0,141ms_neutral,study1,0.1602359000011119
,3.0,0.6051234999904409,1.0,happy,happy,141ms,176.0,52.0,1.0,141ms_happy,study1,0.1372166000422794
,3.0,0.514240000047721,1.0,happy,happy,141ms,177.0,53.0,1.0,141ms_happy,study1,0.1377628000103641
,3.0,0.4975820999825373,1.0,happy,happy,16ms,178.0,54.0,1.0,16ms_happy,study1,0.0150363000924471
,3.0,0.4466750000137836,1.0,happy,happy,141ms,179.0,55.0,1.0,141ms_happy,study1,0.1346278000040683
,3.0,0.7846206999383867,1.0,neutral,neutral,141ms,180.0,56.0,1.0,141ms_neutral,study1,0.1537047999794367
,3.0,0.6752869000192732,1.0,sad,sad,141ms,181.0,57.0,1.0,141ms_sad,study1,0.1352279000333283
,3.0,0.9853919999441132,1.0,neutral,neutral,141ms,182.0,58.0,1.0,141ms_neutral,study1,0.1619024000013951
,3.0,0.6841011999640614,1.0,sad,sad,141ms,183.0,59.0,1.0,141ms_sad,study1,0.1330487999715615
,3.0,0.6574320000363514,1.0,sad,sad,141ms,185.0,61.0,1.0,141ms_sad,study1,0.1368740999954525
,3.0,0.6740895999828354,1.0,neutral,neutral,141ms,186.0,62.0,1.0,141ms_neutral,study1,0.1658064999268163
,3.0,0.654674299992621,1.0,sad,sad,141ms,187.0,63.0,1.0,141ms_sad,study1,0.1370506999431882
,3.0,0.657009300077334,1.0,happy,happy,141ms,188.0,64.0,1.0,141ms_happy,study1,0.1369577999342937
,3.0,0.7013435999397188,1.0,neutral,neutral,141ms,189.0,65.0,1.0,141ms_neutral,study1,0.1623790000215876
,3.0,0.723575200070627,1.0,happy,happy,16ms,191.0,67.0,1.0,16ms_happy,study1,0.0148219999740604
,3.0,0.5624299000483006,1.0,sad,sad,141ms,192.0,68.0,1.0,141ms_sad,study1,0.168561599950749
,3.0,1.2772067999467254,0.0,sad,neutral,141ms,193.0,69.0,1.0,141ms_neutral,study1,0.1672228000010136
,3.0,0.5986326999263838,1.0,neutral,neutral,141ms,195.0,71.0,1.0,141ms_neutral,study1,0.1600673999986384
,3.0,0.5095117000164464,1.0,sad,sad,141ms,197.0,73.0,1.0,141ms_sad,study1,0.1556131999590206
,3.0,0.5885644999798387,1.0,neutral,neutral,141ms,198.0,74.0,1.0,141ms_neutral,study1,0.1684331000200245
,3.0,1.0296810999279842,1.0,neutral,neutral,16ms,202.0,78.0,1.0,16ms_neutral,study1,0.0167655999888438
,3.0,0.5655109999934211,1.0,happy,happy,141ms,203.0,79.0,1.0,141ms_happy,study1,0.1314052000292349
,3.0,1.314013000112027,1.0,neutral,neutral,16ms,204.0,80.0,1.0,16ms_neutral,study1,0.0163193999673012
,3.0,0.6755045000463724,1.0,happy,happy,16ms,205.0,81.0,1.0,16ms_happy,study1,0.0154824999975744
,3.0,0.6233442999655381,1.0,happy,happy,16ms,206.0,82.0,1.0,16ms_happy,study1,0.0167413000366423
,3.0,0.3642897000536322,1.0,happy,happy,141ms,207.0,83.0,1.0,141ms_happy,study1,0.1317762000602442
,3.0,1.1927418999839574,0.0,sad,neutral,16ms,208.0,84.0,1.0,16ms_neutral,study1,0.0164825000450719
,3.0,1.1137351000215858,1.0,neutral,neutral,16ms,209.0,85.0,1.0,16ms_neutral,study1,0.0168139000073779
,3.0,0.6143181999213994,1.0,happy,happy,16ms,210.0,86.0,1.0,16ms_happy,study1,0.0149189000134128
,3.0,0.6564956000074744,1.0,sad,sad,141ms,211.0,87.0,1.0,141ms_sad,study1,0.1377774000051204
,3.0,0.5558696000371128,1.0,sad,sad,141ms,212.0,88.0,1.0,141ms_sad,study1,0.1328744000405777
,3.0,1.044041299959645,0.0,neutral,happy,16ms,213.0,89.0,1.0,16ms_happy,study1,0.015299500001106
,3.0,0.4991888999938965,1.0,happy,happy,141ms,214.0,90.0,1.0,141ms_happy,study1,0.1316257999627623
,3.0,0.4430291999597102,1.0,sad,sad,141ms,215.0,91.0,1.0,141ms_sad,study1,0.1313408000045228
,3.0,1.0409629000350833,0.0,neutral,sad,16ms,216.0,92.0,1.0,16ms_sad,study1,0.0148402999969903
,3.0,0.9833443999523296,1.0,neutral,neutral,141ms,217.0,93.0,1.0,141ms_neutral,study1,0.1646545000024843
,3.0,0.5079124999465421,1.0,sad,sad,141ms,218.0,94.0,1.0,141ms_sad,study1,0.1578023999812785
,3.0,0.9891390999546276,1.0,neutral,neutral,141ms,219.0,95.0,1.0,141ms_neutral,study1,0.1606410000589448
,3.0,0.6820808000629768,1.0,happy,happy,141ms,220.0,96.0,1.0,141ms_happy,study1,0.1344725999864522
,3.0,0.9167787000769748,0.0,neutral,sad,141ms,221.0,97.0,1.0,141ms_sad,study1,0.1308997000218141
,3.0,0.9682343000313268,1.0,sad,sad,141ms,222.0,98.0,1.0,141ms_sad,study1,0.1356720999232266
,3.0,1.2435437000822276,1.0,sad,sad,141ms,223.0,99.0,1.0,141ms_sad,study1,0.1696254000183898
,3.0,0.6212166999466717,1.0,happy,happy,141ms,225.0,101.0,1.0,141ms_happy,study1,0.1371922999736625
,3.0,1.1074855999322608,1.0,neutral,neutral,16ms,227.0,103.0,1.0,16ms_neutral,study1,0.0162659000255871
,3.0,0.5425455999793485,1.0,happy,happy,141ms,228.0,104.0,1.0,141ms_happy,study1,0.1337175999418605
,3.0,0.8047713999403641,1.0,neutral,neutral,16ms,229.0,105.0,1.0,16ms_neutral,study1,0.0161025000619474
,3.0,0.6078337000217289,1.0,sad,sad,141ms,230.0,106.0,1.0,141ms_sad,study1,0.1375375000410486
,3.0,0.6674743999028578,1.0,happy,happy,16ms,231.0,107.0,1.0,16ms_happy,study1,0.015270499896701
,3.0,1.252797900000587,0.0,happy,sad,16ms,232.0,108.0,1.0,16ms_sad,study1,0.0171049000113043
,3.0,1.2650692999595776,0.0,happy,sad,16ms,233.0,109.0,1.0,16ms_sad,study1,0.0150285999174002
,3.0,0.5373379000229761,1.0,happy,happy,16ms,234.0,110.0,1.0,16ms_happy,study1,0.0166332000284228
,3.0,0.8407989999977872,1.0,neutral,neutral,16ms,235.0,111.0,1.0,16ms_neutral,study1,0.0171208999003056
,3.0,0.8393025000113994,1.0,happy,happy,16ms,237.0,113.0,1.0,16ms_happy,study1,0.0153364000492501
,3.0,1.3825222000014037,1.0,happy,happy,16ms,239.0,115.0,1.0,16ms_happy,study1,0.0168103999807271
,3.0,0.8980624000541866,1.0,neutral,neutral,16ms,240.0,116.0,1.0,16ms_neutral,study1,0.0170572999981004
,3.0,0.7934835000196472,1.0,neutral,neutral,16ms,241.0,117.0,1.0,16ms_neutral,study1,0.0172471999306935
,3.0,0.7557224000338465,1.0,neutral,neutral,16ms,242.0,118.0,1.0,16ms_neutral,study1,0.0172887000138644
,3.0,0.8059547999873757,0.0,neutral,sad,16ms,243.0,119.0,1.0,16ms_sad,study1,0.0155947999213594
,3.0,0.4761816000100225,1.0,happy,happy,141ms,244.0,0.0,2.0,141ms_happy,study1,0.1577271999907452
,3.0,0.3777776000788435,1.0,happy,happy,141ms,245.0,1.0,2.0,141ms_happy,study1,0.1677808999432954
,3.0,0.7928907000459731,1.0,sad,sad,141ms,246.0,2.0,2.0,141ms_sad,study1,0.1344673000625107
,3.0,0.9959653000114486,1.0,sad,sad,141ms,248.0,4.0,2.0,141ms_sad,study1,0.1352490999619249
,3.0,0.8776372999418527,1.0,neutral,neutral,141ms,249.0,5.0,2.0,141ms_neutral,study1,0.1678352000075165
,3.0,1.025624500005506,1.0,neutral,neutral,8ms,250.0,6.0,2.0,8ms_neutral,study1,0.0083276999997679
,3.0,1.020611000014469,1.0,neutral,neutral,141ms,251.0,7.0,2.0,141ms_neutral,study1,0.16650289999086
,3.0,0.5208332999609411,1.0,happy,happy,141ms,252.0,8.0,2.0,141ms_happy,study1,0.1596250000060308
,3.0,1.1374562000855803,1.0,neutral,neutral,141ms,254.0,10.0,2.0,141ms_neutral,study1,0.1688006000243831
,3.0,0.978481600061059,1.0,neutral,neutral,8ms,255.0,11.0,2.0,8ms_neutral,study1,0.0083276999997679
,3.0,0.9893987000687048,1.0,neutral,neutral,8ms,256.0,12.0,2.0,8ms_neutral,study1,0.0083276999997679
,3.0,0.8472039999905974,0.0,neutral,sad,8ms,258.0,14.0,2.0,8ms_sad,study1,0.0083276999997679
,3.0,0.631408300017938,0.0,neutral,happy,8ms,259.0,15.0,2.0,8ms_happy,study1,0.0083276999997679
,3.0,0.6861216999823228,0.0,neutral,sad,8ms,260.0,16.0,2.0,8ms_sad,study1,0.0083276999997679
,3.0,1.1898027000715956,1.0,neutral,neutral,8ms,261.0,17.0,2.0,8ms_neutral,study1,0.0083276999997679
,3.0,1.249748899950646,0.0,neutral,sad,8ms,262.0,18.0,2.0,8ms_sad,study1,0.0083276999997679
,3.0,0.8817608999088407,1.0,neutral,neutral,141ms,263.0,19.0,2.0,141ms_neutral,study1,0.16843210001241
,3.0,0.6710464999778196,1.0,neutral,neutral,8ms,264.0,20.0,2.0,8ms_neutral,study1,0.0083276999997679
,3.0,1.138188699958846,0.0,neutral,sad,8ms,265.0,21.0,2.0,8ms_sad,study1,0.0083276999997679
,3.0,0.5749221000587568,1.0,happy,happy,141ms,266.0,22.0,2.0,141ms_happy,study1,0.161819899955276
,3.0,0.6417431000154465,1.0,happy,happy,141ms,267.0,23.0,2.0,141ms_happy,study1,0.1323953000013489
,3.0,0.6566533000441268,1.0,neutral,neutral,141ms,268.0,24.0,2.0,141ms_neutral,study1,0.1670173999503958
,3.0,0.7422601999714971,0.0,neutral,happy,8ms,269.0,25.0,2.0,8ms_happy,study1,0.0083276999997679
,3.0,0.6962220000568777,0.0,neutral,sad,8ms,270.0,26.0,2.0,8ms_sad,study1,0.0083276999997679
,3.0,0.9258142999606208,0.0,sad,neutral,141ms,271.0,27.0,2.0,141ms_neutral,study1,0.1709597999346215
,3.0,0.5472495999420062,1.0,happy,happy,141ms,272.0,28.0,2.0,141ms_happy,study1,0.1366834000567678
,3.0,1.4238396000582725,1.0,neutral,neutral,8ms,274.0,30.0,2.0,8ms_neutral,study1,0.0083276999997679
,3.0,1.2914482000051066,1.0,sad,sad,141ms,275.0,31.0,2.0,141ms_sad,study1,0.1678696000366244
,3.0,0.4737183999968692,1.0,sad,sad,141ms,276.0,32.0,2.0,141ms_sad,study1,0.134821000078432
,3.0,0.4646068000001833,1.0,sad,sad,141ms,277.0,33.0,2.0,141ms_sad,study1,0.1316855000679879
,3.0,1.3174563000211492,1.0,neutral,neutral,8ms,278.0,34.0,2.0,8ms_neutral,study1,0.0083276999998815
,3.0,0.5016565000405535,1.0,happy,happy,141ms,279.0,35.0,2.0,141ms_happy,study1,0.1711633999715331
,3.0,0.9566651999484748,0.0,neutral,happy,8ms,281.0,37.0,2.0,8ms_happy,study1,0.0083276999995405
,3.0,0.5855570000130683,1.0,neutral,neutral,8ms,282.0,38.0,2.0,8ms_neutral,study1,0.0083276999997679
,3.0,0.7990636000176892,1.0,neutral,neutral,8ms,284.0,40.0,2.0,8ms_neutral,study1,0.0083276999998815
,3.0,0.4835556000471115,0.0,neutral,happy,8ms,285.0,41.0,2.0,8ms_happy,study1,0.0083276999999952
,3.0,0.7129902000306174,1.0,sad,sad,141ms,286.0,42.0,2.0,141ms_sad,study1,0.133856200065793
,3.0,0.7751580000622198,1.0,happy,happy,141ms,288.0,44.0,2.0,141ms_happy,study1,0.1344174000317934
,3.0,0.6024584000697359,1.0,sad,sad,141ms,289.0,45.0,2.0,141ms_sad,study1,0.1306544000167377
,3.0,0.7628497000550851,0.0,sad,neutral,141ms,290.0,46.0,2.0,141ms_neutral,study1,0.1658890999735831
,3.0,0.5539887000340968,1.0,sad,sad,141ms,291.0,47.0,2.0,141ms_sad,study1,0.1303773000022374
,3.0,1.1038519999710843,0.0,neutral,sad,8ms,292.0,48.0,2.0,8ms_sad,study1,0.0083276999995405
,3.0,0.662791799986735,0.0,neutral,happy,8ms,293.0,49.0,2.0,8ms_happy,study1,0.0083276999997679
,3.0,0.7423883000155911,1.0,neutral,neutral,8ms,294.0,50.0,2.0,8ms_neutral,study1,0.0083276999997679
,3.0,0.8591126000974327,1.0,happy,happy,141ms,295.0,51.0,2.0,141ms_happy,study1,0.1347112999413866
,3.0,0.8824418999720365,0.0,neutral,sad,8ms,296.0,52.0,2.0,8ms_sad,study1,0.0083276999995405
,3.0,1.3666677000001073,1.0,neutral,neutral,141ms,297.0,53.0,2.0,141ms_neutral,study1,0.1545254000577642
,3.0,0.63748520007357,0.0,neutral,sad,8ms,298.0,54.0,2.0,8ms_sad,study1,0.0083276999997679
,3.0,0.5455481000244617,1.0,happy,happy,141ms,299.0,55.0,2.0,141ms_happy,study1,0.1356748999445471
,3.0,0.779858099995181,0.0,neutral,sad,8ms,300.0,56.0,2.0,8ms_sad,study1,0.0083276999997679
,3.0,0.5945306000066921,1.0,neutral,neutral,8ms,301.0,57.0,2.0,8ms_neutral,study1,0.0083276999995405
,3.0,0.628268500091508,0.0,neutral,happy,8ms,302.0,58.0,2.0,8ms_happy,study1,0.0083276999995405
,3.0,0.5168973999097943,1.0,happy,happy,141ms,303.0,59.0,2.0,141ms_happy,study1,0.1349125999607849
,3.0,0.8523375999648124,0.0,neutral,sad,8ms,304.0,60.0,2.0,8ms_sad,study1,0.0083276999999952
,3.0,0.6571885000448674,1.0,happy,happy,141ms,305.0,61.0,2.0,141ms_happy,study1,0.168883500073548
,3.0,0.7512418000260368,0.0,neutral,happy,8ms,306.0,62.0,2.0,8ms_happy,study1,0.0083276999997679
,3.0,0.7977791000157595,1.0,neutral,neutral,8ms,307.0,63.0,2.0,8ms_neutral,study1,0.0083276999998815
,3.0,0.5967173000099137,1.0,sad,sad,141ms,311.0,67.0,2.0,141ms_sad,study1,0.16293470006201
,3.0,1.0150304000126198,1.0,neutral,neutral,8ms,312.0,68.0,2.0,8ms_neutral,study1,0.0083276999998815
,3.0,1.1526274000061676,1.0,neutral,neutral,8ms,313.0,69.0,2.0,8ms_neutral,study1,0.0083276999998815
,3.0,0.4547258999664336,1.0,happy,happy,141ms,314.0,70.0,2.0,141ms_happy,study1,0.1690717999940716
,3.0,0.7771066999994218,1.0,neutral,neutral,8ms,315.0,71.0,2.0,8ms_neutral,study1,0.0083276999998815
,3.0,0.6795236000325531,1.0,sad,sad,141ms,316.0,72.0,2.0,141ms_sad,study1,0.1342068999424555
,3.0,1.429195799981244,1.0,neutral,neutral,141ms,317.0,73.0,2.0,141ms_neutral,study1,0.1576402000268899
,3.0,0.530720999930054,1.0,happy,happy,141ms,318.0,74.0,2.0,141ms_happy,study1,0.1344799999264978
,3.0,1.27687300008256,1.0,neutral,neutral,8ms,319.0,75.0,2.0,8ms_neutral,study1,0.0083276999998815
,3.0,0.983712900080718,1.0,happy,happy,8ms,320.0,76.0,2.0,8ms_happy,study1,0.0083276999998815
,3.0,0.5181896999711171,1.0,happy,happy,141ms,321.0,77.0,2.0,141ms_happy,study1,0.1525153000022783
,3.0,0.6504228999838233,0.0,neutral,sad,8ms,322.0,78.0,2.0,8ms_sad,study1,0.0083276999998815
,3.0,0.42797319998499,1.0,happy,happy,141ms,323.0,79.0,2.0,141ms_happy,study1,0.135846199968455
,3.0,0.8171715000644326,0.0,neutral,sad,8ms,324.0,80.0,2.0,8ms_sad,study1,0.0083276999998815
,3.0,0.4728954000165686,1.0,happy,happy,141ms,325.0,81.0,2.0,141ms_happy,study1,0.131373100017754
,3.0,0.697452099993825,1.0,neutral,neutral,8ms,326.0,82.0,2.0,8ms_neutral,study1,0.0083276999998815
,3.0,0.4092398000648245,1.0,happy,happy,141ms,327.0,83.0,2.0,141ms_happy,study1,0.1353374999366678
,3.0,0.741643299930729,1.0,happy,happy,141ms,328.0,84.0,2.0,141ms_happy,study1,0.1700375000132226
,3.0,0.496152599924244,1.0,happy,happy,141ms,329.0,85.0,2.0,141ms_happy,study1,0.1349810999004148
,3.0,0.5353305999888107,1.0,sad,sad,141ms,330.0,86.0,2.0,141ms_sad,study1,0.1384497000021838
,3.0,0.6678823999827728,0.0,neutral,sad,8ms,331.0,87.0,2.0,8ms_sad,study1,0.0083276999996542
,3.0,0.5864061000756919,0.0,neutral,sad,8ms,332.0,88.0,2.0,8ms_sad,study1,0.0083276999998815
,3.0,1.0097614999394864,1.0,sad,sad,141ms,333.0,89.0,2.0,141ms_sad,study1,0.134475300007125
,3.0,0.5628688000142574,0.0,neutral,sad,8ms,334.0,90.0,2.0,8ms_sad,study1,0.0083276999998815
,3.0,0.519858599989675,0.0,neutral,sad,8ms,335.0,91.0,2.0,8ms_sad,study1,0.0083277000001089
,3.0,1.462489999947138,0.0,sad,neutral,8ms,337.0,93.0,2.0,8ms_neutral,study1,0.0083276999998815
,3.0,0.74586659995839,1.0,neutral,neutral,141ms,338.0,94.0,2.0,141ms_neutral,study1,0.1686856999644987
,3.0,0.9228292000479996,0.0,neutral,sad,8ms,339.0,95.0,2.0,8ms_sad,study1,0.0083277000001089
,3.0,0.4653545999899506,0.0,neutral,sad,8ms,340.0,96.0,2.0,8ms_sad,study1,0.0083276999994268
,3.0,0.5124607000034302,1.0,neutral,neutral,8ms,341.0,97.0,2.0,8ms_neutral,study1,0.0083276999998815
,3.0,0.5496495000552386,1.0,happy,happy,141ms,342.0,98.0,2.0,141ms_happy,study1,0.1335110999991684
,3.0,1.1039096000604331,0.0,neutral,sad,8ms,344.0,100.0,2.0,8ms_sad,study1,0.0083276999998815
,3.0,1.1166889000451192,0.0,sad,neutral,141ms,345.0,101.0,2.0,141ms_neutral,study1,0.1576307999550863
,3.0,0.6234700999921188,0.0,neutral,sad,8ms,346.0,102.0,2.0,8ms_sad,study1,0.0083276999998815
,3.0,0.921658599982038,0.0,neutral,happy,8ms,347.0,103.0,2.0,8ms_happy,study1,0.0083276999998815
,3.0,0.6829067000653595,1.0,neutral,neutral,8ms,348.0,104.0,2.0,8ms_neutral,study1,0.0083276999998815
,3.0,0.4824826999101788,1.0,happy,happy,141ms,349.0,105.0,2.0,141ms_happy,study1,0.1302547998843692
,3.0,0.9341810001060368,1.0,neutral,neutral,8ms,350.0,106.0,2.0,8ms_neutral,study1,0.0083276999998815
,3.0,1.181269499938935,1.0,sad,sad,8ms,351.0,107.0,2.0,8ms_sad,study1,0.0083276999998815
,3.0,0.9072171000298112,1.0,neutral,neutral,141ms,352.0,108.0,2.0,141ms_neutral,study1,0.1598380999989785
,3.0,0.5929269000189379,1.0,sad,sad,141ms,353.0,109.0,2.0,141ms_sad,study1,0.1372942999355473
,3.0,0.7033985999878496,1.0,neutral,neutral,141ms,354.0,110.0,2.0,141ms_neutral,study1,0.1570014000519677
,3.0,0.5456758999498561,1.0,happy,happy,141ms,355.0,111.0,2.0,141ms_happy,study1,0.1602286999464013
,3.0,0.4635448000626638,1.0,happy,happy,141ms,356.0,112.0,2.0,141ms_happy,study1,0.1354476000765316
,3.0,0.5881913000484928,1.0,sad,sad,141ms,357.0,113.0,2.0,141ms_sad,study1,0.1308291999507673
,3.0,0.6206153000239283,1.0,neutral,neutral,141ms,358.0,114.0,2.0,141ms_neutral,study1,0.1624961999827974
,3.0,0.6951764000114053,1.0,sad,sad,141ms,359.0,115.0,2.0,141ms_sad,study1,0.1391529000015907
,3.0,0.6014834999805316,1.0,sad,sad,141ms,360.0,116.0,2.0,141ms_sad,study1,0.1321346999961861
,3.0,1.4134801999898627,0.0,sad,neutral,141ms,362.0,118.0,2.0,141ms_neutral,study1,0.1568144000252687
,3.0,0.560245200060308,1.0,happy,happy,141ms,363.0,119.0,2.0,141ms_happy,study1,0.1362501999014966
,27.0,0.6528366999999662,1.0,9,happy,141ms,1.0,0.0,0.0,141ms_happy,study2,0.1497249000000522
,27.0,1.1823082000000795,1.0,9,happy,16ms,3.0,2.0,0.0,16ms_happy,study2,0.0163352000000713
,27.0,1.033382999999958,0.0,9,neutral,16ms,4.0,3.0,0.0,16ms_neutral,study2,0.0162295000000369
,27.0,1.2906116000000338,1.0,7,sad,25ms,5.0,4.0,0.0,25ms_sad,study2,0.0250225999999145
,27.0,1.1519902999999658,1.0,9,happy,16ms,6.0,5.0,0.0,16ms_happy,study2,0.0162618000000804
,27.0,1.1541486999999506,0.0,7,neutral,141ms,8.0,7.0,0.0,141ms_neutral,study2,0.1496078999999781
,27.0,0.981957599999987,1.0,9,happy,25ms,10.0,9.0,0.0,25ms_happy,study2,0.0244467999999358
,27.0,0.7881677999999965,1.0,9,happy,141ms,11.0,10.0,0.0,141ms_happy,study2,0.1493254000000661
,27.0,1.2267550000000256,1.0,7,sad,141ms,13.0,12.0,0.0,141ms_sad,study2,0.1499247000000423
,27.0,1.4269550999999865,1.0,8,neutral,25ms,14.0,13.0,0.0,25ms_neutral,study2,0.0242398000000321
,27.0,0.737101100000018,1.0,9,happy,25ms,15.0,14.0,0.0,25ms_happy,study2,0.0247680000001082
,27.0,0.8885885999999346,1.0,8,neutral,25ms,17.0,16.0,0.0,25ms_neutral,study2,0.0242664999999533
,27.0,0.863131400000043,0.0,7,neutral,141ms,18.0,17.0,0.0,141ms_neutral,study2,0.1492375999999922
,27.0,0.617639699999927,1.0,9,happy,25ms,19.0,18.0,0.0,25ms_happy,study2,0.0249227000000473
,27.0,0.7325171999999611,1.0,9,happy,141ms,20.0,19.0,0.0,141ms_happy,study2,0.1501879000001054
,27.0,0.6108388000000105,1.0,9,happy,16ms,23.0,22.0,0.0,16ms_happy,study2,0.0161157000000002
,27.0,0.9297457000000122,1.0,7,sad,25ms,26.0,25.0,0.0,25ms_sad,study2,0.0244773000000577
,27.0,0.8771963000000369,1.0,7,sad,25ms,28.0,27.0,0.0,25ms_sad,study2,0.0245460000001003
,27.0,0.5808841000000484,1.0,7,sad,141ms,29.0,28.0,0.0,141ms_sad,study2,0.1500406000000111
,27.0,1.477737099999899,0.0,9,sad,25ms,32.0,31.0,0.0,25ms_sad,study2,0.0249309000000721
,27.0,0.8534141000000091,1.0,8,neutral,25ms,34.0,33.0,0.0,25ms_neutral,study2,0.0242581999999629
,27.0,0.761179200000015,1.0,9,happy,25ms,36.0,35.0,0.0,25ms_happy,study2,0.0243153999999776
,27.0,1.0264442000000145,1.0,8,neutral,16ms,37.0,36.0,0.0,16ms_neutral,study2,0.0163718999999673
,27.0,1.187841800000001,0.0,9,sad,16ms,38.0,37.0,0.0,16ms_sad,study2,0.0164926999999011
,27.0,0.9233768000000282,1.0,7,sad,25ms,39.0,38.0,0.0,25ms_sad,study2,0.0248172999999951
,27.0,0.6959402999999611,1.0,7,sad,25ms,40.0,39.0,0.0,25ms_sad,study2,0.0246245999999814
,27.0,0.6982686000000058,1.0,9,happy,25ms,43.0,42.0,0.0,25ms_happy,study2,0.0249814000000014
,27.0,1.4049074000001838,0.0,8,sad,16ms,44.0,43.0,0.0,16ms_sad,study2,0.0168088000000352
,27.0,0.8214755999999852,1.0,7,sad,141ms,45.0,44.0,0.0,141ms_sad,study2,0.1498893000000407
,27.0,0.5592996999998832,1.0,9,happy,25ms,46.0,45.0,0.0,25ms_happy,study2,0.0247684000000845
,27.0,1.2436024000000998,1.0,8,neutral,16ms,49.0,48.0,0.0,16ms_neutral,study2,0.0158313000000589
,27.0,0.7404790999999022,1.0,8,neutral,141ms,50.0,49.0,0.0,141ms_neutral,study2,0.1494884000000524
,27.0,0.74388399999998,1.0,9,happy,16ms,51.0,50.0,0.0,16ms_happy,study2,0.016540300000031
,27.0,1.2964825999999905,1.0,7,sad,16ms,52.0,51.0,0.0,16ms_sad,study2,0.0161978000000431
,27.0,0.8865419999999631,1.0,8,neutral,16ms,53.0,52.0,0.0,16ms_neutral,study2,0.0159513999999489
,27.0,0.5717967000000499,1.0,9,happy,25ms,54.0,53.0,0.0,25ms_happy,study2,0.0243937000000187
,27.0,0.7767288000000008,1.0,7,sad,141ms,55.0,54.0,0.0,141ms_sad,study2,0.1494586999999683
,27.0,0.6808545999999751,0.0,7,neutral,141ms,56.0,55.0,0.0,141ms_neutral,study2,0.1492584000000079
,27.0,0.9343250999997964,1.0,7,sad,25ms,59.0,58.0,0.0,25ms_sad,study2,0.0247360000000753
,27.0,0.9502837,0.0,7,neutral,25ms,61.0,60.0,0.0,25ms_neutral,study2,0.0244520999999622
,27.0,1.3125724000001355,0.0,7,neutral,25ms,62.0,61.0,0.0,25ms_neutral,study2,0.0245926000000054
,27.0,0.9095965999999862,1.0,9,happy,16ms,63.0,62.0,0.0,16ms_happy,study2,0.0158611000001656
,27.0,0.9101537999999892,1.0,8,neutral,141ms,64.0,63.0,0.0,141ms_neutral,study2,0.1493910000001506
,27.0,1.1555739000000358,1.0,7,sad,141ms,66.0,65.0,0.0,141ms_sad,study2,0.1497348999998848
,27.0,0.3325015000000348,1.0,7,sad,141ms,67.0,66.0,0.0,141ms_sad,study2,0.1500196000001779
,27.0,0.7295974999999544,1.0,9,happy,25ms,68.0,67.0,0.0,25ms_happy,study2,0.0242217999998501
,27.0,0.5275936000000456,1.0,9,happy,16ms,69.0,68.0,0.0,16ms_happy,study2,0.0161917999998877
,27.0,1.1847649999999703,0.0,9,sad,16ms,71.0,70.0,0.0,16ms_sad,study2,0.016483700000208
,27.0,0.8004455000000235,1.0,9,happy,16ms,72.0,71.0,0.0,16ms_happy,study2,0.01615159999983
,27.0,1.3253138000000035,1.0,8,neutral,25ms,74.0,73.0,0.0,25ms_neutral,study2,0.0244860999998763
,27.0,0.6047889999999825,1.0,9,happy,25ms,75.0,74.0,0.0,25ms_happy,study2,0.024713199999951
,27.0,1.227844100000084,1.0,8,neutral,16ms,76.0,75.0,0.0,16ms_neutral,study2,0.0163324000000102
,27.0,0.7286624999999276,1.0,8,neutral,25ms,78.0,77.0,0.0,25ms_neutral,study2,0.0243465999999443
,27.0,1.1592183000000205,1.0,8,neutral,25ms,80.0,79.0,0.0,25ms_neutral,study2,0.0242604999998548
,27.0,0.7705863999999565,1.0,9,happy,16ms,84.0,83.0,0.0,16ms_happy,study2,0.0164935000000241
,27.0,1.388622499999883,1.0,8,neutral,25ms,85.0,84.0,0.0,25ms_neutral,study2,0.0242335000000366
,27.0,1.1198916000000736,0.0,9,neutral,16ms,87.0,86.0,0.0,16ms_neutral,study2,0.0159476999999697
,27.0,0.6759424999997918,1.0,9,happy,16ms,89.0,88.0,0.0,16ms_happy,study2,0.0164052999998602
,27.0,0.8905000999998265,1.0,9,happy,25ms,90.0,89.0,0.0,25ms_happy,study2,0.0244708000000173
,27.0,0.9408134000000246,1.0,7,sad,25ms,91.0,90.0,0.0,25ms_sad,study2,0.0247996999999031
,27.0,0.9001619000000574,0.0,7,neutral,141ms,93.0,92.0,0.0,141ms_neutral,study2,0.14917719999994
,27.0,0.9838250000000244,1.0,8,neutral,141ms,94.0,93.0,0.0,141ms_neutral,study2,0.1493837999998959
,27.0,1.4412431999999171,1.0,7,sad,25ms,95.0,94.0,0.0,25ms_sad,study2,0.0241237999998702
,27.0,0.9300253000001248,0.0,7,neutral,141ms,96.0,95.0,0.0,141ms_neutral,study2,0.1495261000000027
,27.0,0.5769450999998753,1.0,9,happy,141ms,98.0,97.0,0.0,141ms_happy,study2,0.1495261999998547
,27.0,1.1492212000000563,1.0,7,sad,16ms,101.0,100.0,0.0,16ms_sad,study2,0.016023000000132
,27.0,1.0564125000000786,0.0,7,neutral,25ms,102.0,101.0,0.0,25ms_neutral,study2,0.0244000000000141
,27.0,0.5164170999998987,1.0,9,happy,25ms,103.0,102.0,0.0,25ms_happy,study2,0.0243877999998858
,27.0,0.5107279999999719,1.0,9,happy,141ms,104.0,103.0,0.0,141ms_happy,study2,0.1498333000001821
,27.0,0.8963624999998956,1.0,7,sad,16ms,105.0,104.0,0.0,16ms_sad,study2,0.0161296999999649
,27.0,0.3845717000001514,1.0,7,sad,141ms,106.0,105.0,0.0,141ms_sad,study2,0.1498081999998248
,27.0,1.093689300000051,0.0,7,neutral,25ms,107.0,106.0,0.0,25ms_neutral,study2,0.0243504000000029
,27.0,0.7465265999999247,1.0,9,happy,25ms,108.0,107.0,0.0,25ms_happy,study2,0.0245254999999815
,27.0,1.1097622000002048,1.0,9,happy,16ms,111.0,110.0,0.0,16ms_happy,study2,0.0160372999998799
,27.0,0.571794299999965,1.0,9,happy,25ms,114.0,113.0,0.0,25ms_happy,study2,0.0242620999999871
,27.0,1.1216905000001134,0.0,8,sad,8ms,115.0,114.0,0.0,8ms_sad,study2,0.0076019999997924
,27.0,0.9705366999999114,0.0,7,neutral,141ms,116.0,115.0,0.0,141ms_neutral,study2,0.1496392999999898
,27.0,0.5601853999999094,1.0,7,sad,141ms,119.0,118.0,0.0,141ms_sad,study2,0.1497965999999451
,27.0,1.2388424000000668,0.0,9,sad,25ms,120.0,119.0,0.0,25ms_sad,study2,0.0250297000000045
,27.0,0.9526483000001916,0.0,7,neutral,16ms,122.0,1.0,1.0,16ms_neutral,study2,0.0161562000000685
,27.0,0.4861002000000098,1.0,9,happy,16ms,123.0,2.0,1.0,16ms_happy,study2,0.0165406999998367
,27.0,0.4696718999998666,1.0,9,happy,141ms,124.0,3.0,1.0,141ms_happy,study2,0.1495855000000574
,27.0,0.8905495000001338,0.0,7,neutral,141ms,125.0,4.0,1.0,141ms_neutral,study2,0.1493022000000792
,27.0,0.3677243000001908,1.0,7,sad,141ms,126.0,5.0,1.0,141ms_sad,study2,0.14963130000001
,27.0,0.4166715999999724,1.0,7,sad,141ms,127.0,6.0,1.0,141ms_sad,study2,0.1497128000002021
,27.0,0.952734400000054,0.0,7,neutral,16ms,129.0,8.0,1.0,16ms_neutral,study2,0.015991299999996
,27.0,0.7653821999999764,1.0,9,happy,25ms,132.0,11.0,1.0,25ms_happy,study2,0.0246056999999382
,27.0,0.8394977000000381,1.0,9,happy,25ms,133.0,12.0,1.0,25ms_happy,study2,0.024800199999845
,27.0,1.2040938000000097,0.0,8,sad,25ms,136.0,15.0,1.0,25ms_sad,study2,0.0245428000000629
,27.0,1.038275499999827,1.0,7,sad,25ms,137.0,16.0,1.0,25ms_sad,study2,0.0243261000000529
,27.0,0.8031326000000263,1.0,9,happy,16ms,138.0,17.0,1.0,16ms_happy,study2,0.0159814999999525
,27.0,0.8605590999998185,1.0,8,neutral,141ms,139.0,18.0,1.0,141ms_neutral,study2,0.1494445000000723
,27.0,0.9290223999998944,1.0,8,neutral,16ms,140.0,19.0,1.0,16ms_neutral,study2,0.0159438000000591
,27.0,0.6346556000000874,1.0,9,happy,16ms,141.0,20.0,1.0,16ms_happy,study2,0.016467700000021
,27.0,1.2287768000001051,1.0,8,neutral,141ms,143.0,22.0,1.0,141ms_neutral,study2,0.1493737000000692
,27.0,0.6561377999998967,1.0,7,sad,16ms,144.0,23.0,1.0,16ms_sad,study2,0.0165345000000343
,27.0,0.7409528999999111,0.0,7,neutral,141ms,146.0,25.0,1.0,141ms_neutral,study2,0.1496509999999489
,27.0,0.8848173999999744,0.0,7,neutral,25ms,147.0,26.0,1.0,25ms_neutral,study2,0.0243467000000237
,27.0,0.8012762999999268,1.0,9,happy,16ms,148.0,27.0,1.0,16ms_happy,study2,0.0158001000002059
,27.0,1.2124638000000232,1.0,7,sad,25ms,150.0,29.0,1.0,25ms_sad,study2,0.0245792000000619
,27.0,0.5990091999999549,1.0,8,neutral,141ms,151.0,30.0,1.0,141ms_neutral,study2,0.1496128999999655
,27.0,0.7190599000000475,1.0,7,sad,16ms,152.0,31.0,1.0,16ms_sad,study2,0.0159843000001274
,27.0,0.9317917000000762,1.0,8,neutral,16ms,153.0,32.0,1.0,16ms_neutral,study2,0.016165600000022
,27.0,0.641597099999899,1.0,8,neutral,25ms,154.0,33.0,1.0,25ms_neutral,study2,0.0243833999998059
,27.0,0.7893758000000162,1.0,9,happy,25ms,156.0,35.0,1.0,25ms_happy,study2,0.0244242999999642
,27.0,0.7626589999999851,1.0,7,sad,25ms,158.0,37.0,1.0,25ms_sad,study2,0.0244820999998864
,27.0,1.363403999999946,1.0,8,neutral,25ms,159.0,38.0,1.0,25ms_neutral,study2,0.0244612999999844
,27.0,0.9359953999999108,1.0,7,sad,141ms,162.0,41.0,1.0,141ms_sad,study2,0.14960659999997
,27.0,0.6109079000000293,1.0,9,happy,25ms,163.0,42.0,1.0,25ms_happy,study2,0.0247638999999253
,27.0,1.110267199999953,1.0,8,neutral,25ms,165.0,44.0,1.0,25ms_neutral,study2,0.0242345999999997
,27.0,0.59451799999988,1.0,9,happy,25ms,169.0,48.0,1.0,25ms_happy,study2,0.0247133000000303
,27.0,0.4803522000001976,1.0,9,happy,25ms,170.0,49.0,1.0,25ms_happy,study2,0.0249445000001742
,27.0,0.6106191999999737,1.0,7,sad,16ms,171.0,50.0,1.0,16ms_sad,study2,0.0165069999998195
,27.0,0.4493837999998504,1.0,9,happy,141ms,173.0,52.0,1.0,141ms_happy,study2,0.149999500000149
,27.0,1.0358214999998836,0.0,9,sad,16ms,175.0,54.0,1.0,16ms_sad,study2,0.0165508000000045
,27.0,1.0965939000000162,1.0,7,sad,25ms,176.0,55.0,1.0,25ms_sad,study2,0.0242757999999412
,27.0,1.0639263000000485,0.0,7,neutral,25ms,178.0,57.0,1.0,25ms_neutral,study2,0.0241472999998677
,27.0,0.87008139999989,1.0,9,happy,16ms,181.0,60.0,1.0,16ms_happy,study2,0.0164793000001282
,27.0,0.7329037999998036,1.0,8,neutral,141ms,182.0,61.0,1.0,141ms_neutral,study2,0.1494542000000365
,27.0,1.2015117000000828,1.0,8,neutral,141ms,184.0,63.0,1.0,141ms_neutral,study2,0.1494544999998197
,27.0,0.9661424000000808,1.0,9,happy,141ms,187.0,66.0,1.0,141ms_happy,study2,0.1496859000001222
,27.0,1.0941103999998631,1.0,7,sad,25ms,190.0,69.0,1.0,25ms_sad,study2,0.0251124999999774
,27.0,0.7378989999999703,1.0,7,sad,25ms,191.0,70.0,1.0,25ms_sad,study2,0.0250301999999464
,27.0,1.1075702999999066,1.0,7,sad,141ms,196.0,75.0,1.0,141ms_sad,study2,0.1498322999998436
,27.0,0.8218690999997307,1.0,9,happy,16ms,198.0,77.0,1.0,16ms_happy,study2,0.0164784000000963
,27.0,1.077045200000157,1.0,9,happy,141ms,199.0,78.0,1.0,141ms_happy,study2,0.1490787000000182
,27.0,0.9259508000000096,0.0,7,neutral,25ms,200.0,79.0,1.0,25ms_neutral,study2,0.0245533999998315
,27.0,1.0717937000003983,0.0,7,neutral,141ms,203.0,82.0,1.0,141ms_neutral,study2,0.1495063999996091
,27.0,0.8839262999999846,0.0,7,neutral,25ms,207.0,86.0,1.0,25ms_neutral,study2,0.0245479000000159
,27.0,0.5835293999998612,1.0,9,happy,25ms,208.0,87.0,1.0,25ms_happy,study2,0.0247258999997939
,27.0,1.1044942000003175,1.0,8,neutral,25ms,209.0,88.0,1.0,25ms_neutral,study2,0.0242585000000872
,27.0,0.8373280000000705,1.0,8,neutral,25ms,213.0,92.0,1.0,25ms_neutral,study2,0.0243848000002344
,27.0,1.0692189000001235,0.0,7,neutral,25ms,215.0,94.0,1.0,25ms_neutral,study2,0.0244574999999258
,27.0,0.8730737000000772,0.0,7,neutral,16ms,216.0,95.0,1.0,16ms_neutral,study2,0.0158277000000452
,27.0,1.0138248999996904,0.0,7,neutral,25ms,221.0,100.0,1.0,25ms_neutral,study2,0.0245320000005904
,27.0,0.6261862000001202,1.0,7,sad,141ms,222.0,101.0,1.0,141ms_sad,study2,0.1494970000001103
,27.0,0.6425744000002851,1.0,8,neutral,141ms,223.0,102.0,1.0,141ms_neutral,study2,0.1493571000000884
,27.0,0.5900314999998955,1.0,7,sad,141ms,226.0,105.0,1.0,141ms_sad,study2,0.1496445000002495
,27.0,0.7007742999999209,1.0,8,neutral,141ms,227.0,106.0,1.0,141ms_neutral,study2,0.1493942999998125
,27.0,0.607067399999778,1.0,9,happy,25ms,228.0,107.0,1.0,25ms_happy,study2,0.0248033000002578
,27.0,0.6164377000000059,1.0,7,sad,141ms,229.0,108.0,1.0,141ms_sad,study2,0.1498590999999578
,27.0,0.887383900000259,0.0,7,neutral,16ms,230.0,109.0,1.0,16ms_neutral,study2,0.016017800000327
,27.0,0.5762313000000177,1.0,9,happy,141ms,233.0,112.0,1.0,141ms_happy,study2,0.1496452999997473
,27.0,0.4076822000001812,1.0,9,happy,141ms,234.0,113.0,1.0,141ms_happy,study2,0.1494485999999142
,27.0,0.6997062999998889,1.0,7,sad,16ms,235.0,114.0,1.0,16ms_sad,study2,0.0166333000001941
,27.0,1.4333778000000166,1.0,8,neutral,16ms,237.0,116.0,1.0,16ms_neutral,study2,0.0159625000001142
,27.0,0.908346199999869,1.0,9,happy,25ms,242.0,1.0,2.0,25ms_happy,study2,0.0242040000000542
,27.0,0.6856516999996529,1.0,9,happy,141ms,243.0,2.0,2.0,141ms_happy,study2,0.1493579999998928
,27.0,0.4943806000001132,1.0,9,happy,16ms,245.0,4.0,2.0,16ms_happy,study2,0.0167063000001235
,27.0,0.4872246999998424,1.0,9,happy,16ms,247.0,6.0,2.0,16ms_happy,study2,0.0162508000000798
,27.0,0.4708383000001959,1.0,7,sad,141ms,248.0,7.0,2.0,141ms_sad,study2,0.1493849000000864
,27.0,0.7695888000002924,1.0,7,sad,16ms,249.0,8.0,2.0,16ms_sad,study2,0.0164830999999594
,27.0,0.5846427999999833,1.0,8,neutral,141ms,250.0,9.0,2.0,141ms_neutral,study2,0.1491989000001012
,27.0,1.3899049999999988,1.0,7,sad,16ms,252.0,11.0,2.0,16ms_sad,study2,0.0165345000000343
,27.0,0.750128599999698,1.0,7,sad,141ms,253.0,12.0,2.0,141ms_sad,study2,0.1497542999998131
,27.0,0.6194482000000789,1.0,9,happy,141ms,255.0,14.0,2.0,141ms_happy,study2,0.1493399999999383
,27.0,0.566327800000181,1.0,9,happy,141ms,256.0,15.0,2.0,141ms_happy,study2,0.1497165999999197
,27.0,0.9396121999998286,1.0,7,sad,25ms,257.0,16.0,2.0,25ms_sad,study2,0.0244312000002082
,27.0,0.8472979000002852,0.0,7,neutral,16ms,258.0,17.0,2.0,16ms_neutral,study2,0.0159545999999863
,27.0,0.6621053000003485,1.0,7,sad,16ms,259.0,18.0,2.0,16ms_sad,study2,0.0164099999999507
,27.0,0.7767561999999089,0.0,7,neutral,25ms,260.0,19.0,2.0,25ms_neutral,study2,0.024634399999968
,27.0,0.7127348999997594,1.0,8,neutral,141ms,261.0,20.0,2.0,141ms_neutral,study2,0.1492491999999856
,27.0,1.091560599999866,1.0,7,sad,25ms,262.0,21.0,2.0,25ms_sad,study2,0.0248094999999466
,27.0,0.9850894999999582,1.0,8,neutral,16ms,263.0,22.0,2.0,16ms_neutral,study2,0.0161834000000453
,27.0,1.3857702000000245,1.0,9,happy,141ms,264.0,23.0,2.0,141ms_happy,study2,0.1496411000000534
,27.0,0.8414186999998492,1.0,7,sad,141ms,267.0,26.0,2.0,141ms_sad,study2,0.1500186999999186
,27.0,0.6714321999997992,1.0,9,happy,16ms,268.0,27.0,2.0,16ms_happy,study2,0.0161092999999254
,27.0,0.7438956000000871,1.0,9,happy,16ms,269.0,28.0,2.0,16ms_happy,study2,0.0160117999998874
,27.0,0.789003099999718,1.0,7,sad,141ms,271.0,30.0,2.0,141ms_sad,study2,0.1499642000001131
,27.0,1.04894830000012,0.0,7,neutral,16ms,272.0,31.0,2.0,16ms_neutral,study2,0.0158468999995875
,27.0,0.5807660000000396,1.0,9,happy,141ms,273.0,32.0,2.0,141ms_happy,study2,0.1492795000001479
,27.0,0.8690173999998478,1.0,7,sad,25ms,275.0,34.0,2.0,25ms_sad,study2,0.025184099999933
,27.0,0.6289231999999174,1.0,8,neutral,25ms,276.0,35.0,2.0,25ms_neutral,study2,0.0247862999999597
,27.0,1.0027219000003242,0.0,7,neutral,25ms,277.0,36.0,2.0,25ms_neutral,study2,0.024591500000497
,27.0,0.4726246000000174,1.0,7,sad,141ms,278.0,37.0,2.0,141ms_sad,study2,0.1494877999994059
,27.0,0.5511258999999882,1.0,8,neutral,141ms,280.0,39.0,2.0,141ms_neutral,study2,0.1494333999999071
,27.0,0.7641763000001447,1.0,8,neutral,141ms,281.0,40.0,2.0,141ms_neutral,study2,0.1494872000002942
,27.0,1.0028786999996555,0.0,7,neutral,16ms,282.0,41.0,2.0,16ms_neutral,study2,0.0160593999999036
,27.0,0.9291476000003058,1.0,9,happy,8ms,283.0,42.0,2.0,8ms_happy,study2,0.0082525999996505
,27.0,0.796451000000161,1.0,8,neutral,141ms,286.0,45.0,2.0,141ms_neutral,study2,0.1493143000002419
,27.0,0.6436969999999747,1.0,7,sad,141ms,288.0,47.0,2.0,141ms_sad,study2,0.1497466999999233
,27.0,0.7142377999998644,1.0,7,sad,25ms,289.0,48.0,2.0,25ms_sad,study2,0.0246317999999519
,27.0,0.779772000000321,0.0,7,neutral,141ms,291.0,50.0,2.0,141ms_neutral,study2,0.1493156999999882
,27.0,0.4900996999999734,1.0,9,happy,16ms,293.0,52.0,2.0,16ms_happy,study2,0.0166780000004109
,27.0,0.5602672999998504,1.0,9,happy,16ms,294.0,53.0,2.0,16ms_happy,study2,0.0163625999998657
,27.0,1.1849892000000182,1.0,9,happy,16ms,298.0,57.0,2.0,16ms_happy,study2,0.0166624999997111
,27.0,0.6571810000000369,1.0,9,happy,141ms,299.0,58.0,2.0,141ms_happy,study2,0.1495017000002008
,27.0,0.5251087999999982,1.0,9,happy,25ms,300.0,59.0,2.0,25ms_happy,study2,0.0244370000000344
,27.0,1.1838120000002164,1.0,7,sad,16ms,301.0,60.0,2.0,16ms_sad,study2,0.0157668000001649
,27.0,0.8081647000003613,0.0,7,neutral,25ms,302.0,61.0,2.0,25ms_neutral,study2,0.0242830000001958
,27.0,0.647248899999795,0.0,7,happy,16ms,303.0,62.0,2.0,16ms_happy,study2,0.0164339999996627
,27.0,0.911922499999946,1.0,7,sad,141ms,304.0,63.0,2.0,141ms_sad,study2,0.1498750000000654
,27.0,0.6211071000002448,1.0,9,happy,141ms,306.0,65.0,2.0,141ms_happy,study2,0.1493958999999449
,27.0,0.8601407000001018,1.0,7,sad,25ms,308.0,67.0,2.0,25ms_sad,study2,0.0248867000000245
,27.0,0.9207521000002998,1.0,9,happy,25ms,309.0,68.0,2.0,25ms_happy,study2,0.0249189000001024
,27.0,0.8391022999999223,0.0,7,neutral,16ms,310.0,69.0,2.0,16ms_neutral,study2,0.0159515000000283
,27.0,0.5143745000000308,0.0,8,sad,141ms,311.0,70.0,2.0,141ms_sad,study2,0.1498044999998455
,27.0,0.60569600000008,1.0,9,happy,16ms,312.0,71.0,2.0,16ms_happy,study2,0.0167630999999346
,27.0,0.5529253000004246,1.0,9,happy,141ms,313.0,72.0,2.0,141ms_happy,study2,0.149883999999929
,27.0,0.991979800000081,0.0,7,neutral,16ms,314.0,73.0,2.0,16ms_neutral,study2,0.0161440000001675
,27.0,0.824979600000006,1.0,7,sad,141ms,315.0,74.0,2.0,141ms_sad,study2,0.1496929999998428
,27.0,0.737623099999837,0.0,7,neutral,25ms,316.0,75.0,2.0,25ms_neutral,study2,0.024334600000202
,27.0,0.785816000000068,1.0,8,neutral,16ms,317.0,76.0,2.0,16ms_neutral,study2,0.0158134000002974
,27.0,0.7425447000000531,1.0,9,happy,16ms,318.0,77.0,2.0,16ms_happy,study2,0.0156487999997807
,27.0,1.4115059000000656,0.0,8,sad,141ms,319.0,78.0,2.0,141ms_sad,study2,0.1496878000002652
,27.0,0.8116421999998238,1.0,7,sad,141ms,321.0,80.0,2.0,141ms_sad,study2,0.1499827000002369
,27.0,0.911746299999777,1.0,9,happy,16ms,322.0,81.0,2.0,16ms_happy,study2,0.0164764999999533
,27.0,0.5002196999998887,1.0,7,sad,141ms,323.0,82.0,2.0,141ms_sad,study2,0.1492738000001736
,27.0,0.6589281999999912,1.0,8,neutral,141ms,328.0,87.0,2.0,141ms_neutral,study2,0.1493242999999893
,27.0,0.8537231000000247,1.0,8,neutral,25ms,331.0,90.0,2.0,25ms_neutral,study2,0.0244829999996909
,27.0,0.7262663000001339,1.0,7,sad,141ms,332.0,91.0,2.0,141ms_sad,study2,0.149407599999904
,27.0,0.7707242000001315,1.0,9,happy,16ms,334.0,93.0,2.0,16ms_happy,study2,0.0159397000002172
,27.0,0.3609802000000854,1.0,9,happy,141ms,335.0,94.0,2.0,141ms_happy,study2,0.1495914000001903
,27.0,0.6863110999997843,1.0,9,happy,25ms,337.0,96.0,2.0,25ms_happy,study2,0.0245832999999038
,27.0,0.7594186000001173,1.0,9,happy,25ms,338.0,97.0,2.0,25ms_happy,study2,0.024629300000015
,27.0,0.9901961999999004,1.0,9,happy,8ms,339.0,98.0,2.0,8ms_happy,study2,0.0081548999996812
,27.0,1.0029018999998698,1.0,9,happy,16ms,340.0,99.0,2.0,16ms_happy,study2,0.0161206999996466
,27.0,0.9308342999997876,1.0,7,sad,141ms,341.0,100.0,2.0,141ms_sad,study2,0.1494119000003593
,27.0,0.8506741000001057,1.0,9,happy,141ms,342.0,101.0,2.0,141ms_happy,study2,0.1493949000000611
,27.0,0.4531028000001242,1.0,9,happy,141ms,343.0,102.0,2.0,141ms_happy,study2,0.1493845999998484
,27.0,0.7278182999998535,0.0,9,sad,141ms,344.0,103.0,2.0,141ms_sad,study2,0.1498059999998986
,27.0,0.5118649999999434,1.0,8,neutral,141ms,345.0,104.0,2.0,141ms_neutral,study2,0.1494840000000294
,27.0,1.0078396999997494,0.0,8,sad,16ms,346.0,105.0,2.0,16ms_sad,study2,0.0165232999997897
,27.0,0.7362585999999283,1.0,8,neutral,25ms,347.0,106.0,2.0,25ms_neutral,study2,0.0244102999999995
,27.0,0.6695470000004207,1.0,7,sad,25ms,348.0,107.0,2.0,25ms_sad,study2,0.0247481000001243
,27.0,0.8798980999999912,1.0,9,happy,16ms,349.0,108.0,2.0,16ms_happy,study2,0.0162946999998894
,27.0,0.6321843999999146,1.0,9,happy,141ms,350.0,109.0,2.0,141ms_happy,study2,0.1493995999999242
,27.0,1.099314599999616,1.0,7,sad,25ms,352.0,111.0,2.0,25ms_sad,study2,0.0246201999998447
,27.0,0.7195101000002069,1.0,9,happy,16ms,353.0,112.0,2.0,16ms_happy,study2,0.0162648000004992
,27.0,1.134146299999884,1.0,7,sad,141ms,356.0,115.0,2.0,141ms_sad,study2,0.1494558999997934
,27.0,0.6493701000003966,1.0,9,happy,25ms,359.0,118.0,2.0,25ms_happy,study2,0.0249401999999463
,27.0,0.5528214000000844,1.0,8,neutral,141ms,360.0,119.0,2.0,141ms_neutral,study2,0.1494066000000202
,20.0,0.7947845999151468,1.0,sad,sad,141ms,4.0,0.0,0.0,141ms_sad,study1,0.1698383800219716
,20.0,1.1082562000956386,1.0,neutral,neutral,25ms,5.0,1.0,0.0,25ms_neutral,study1,0.026190279936415
,20.0,0.4834196998272091,1.0,happy,happy,141ms,7.0,3.0,0.0,141ms_happy,study1,0.1665862800553696
,20.0,0.8809452001005411,1.0,neutral,neutral,25ms,10.0,6.0,0.0,25ms_neutral,study1,0.0255043799523235
,20.0,1.4959484001155945,1.0,neutral,neutral,141ms,11.0,7.0,0.0,141ms_neutral,study1,0.1667526801582397
,20.0,0.4301996000576764,1.0,happy,happy,141ms,12.0,8.0,0.0,141ms_happy,study1,0.1707027800846816
,20.0,0.9355063000693916,1.0,neutral,neutral,25ms,13.0,9.0,0.0,25ms_neutral,study1,0.0264624799136043
,20.0,0.5696901998016983,1.0,happy,happy,25ms,14.0,10.0,0.0,25ms_happy,study1,0.0261995801236452
,20.0,1.3584038999397308,0.0,sad,neutral,141ms,16.0,12.0,0.0,141ms_neutral,study1,0.154044480016438
,20.0,0.6195251001045108,1.0,happy,happy,25ms,17.0,13.0,0.0,25ms_happy,study1,0.0226475800853194
,20.0,0.391800400102511,1.0,happy,happy,141ms,18.0,14.0,0.0,141ms_happy,study1,0.131800079904508
,20.0,0.7561184999067336,1.0,neutral,neutral,141ms,19.0,15.0,0.0,141ms_neutral,study1,0.1614347800612563
,20.0,0.7676778000313789,1.0,sad,sad,141ms,20.0,16.0,0.0,141ms_sad,study1,0.1375108798500264
,20.0,0.626723799854517,1.0,happy,happy,25ms,21.0,17.0,0.0,25ms_happy,study1,0.0227936799172425
,20.0,0.3741891998797655,1.0,happy,happy,141ms,22.0,18.0,0.0,141ms_happy,study1,0.1571675799321497
,20.0,0.5272871998604387,1.0,happy,happy,25ms,23.0,19.0,0.0,25ms_happy,study1,0.023034780006867
,20.0,0.4614124000072479,1.0,happy,happy,25ms,24.0,20.0,0.0,25ms_happy,study1,0.0253537799697483
,20.0,1.068752999883145,1.0,sad,sad,25ms,25.0,21.0,0.0,25ms_sad,study1,0.025390879903
,20.0,0.8574781999923289,1.0,sad,sad,25ms,26.0,22.0,0.0,25ms_sad,study1,0.0227930799126454
,20.0,0.3728432999923825,1.0,happy,happy,141ms,27.0,23.0,0.0,141ms_happy,study1,0.1317812799941862
,20.0,0.309172400040552,1.0,happy,happy,141ms,28.0,24.0,0.0,141ms_happy,study1,0.1353153800126278
,20.0,0.7274379001464695,1.0,neutral,neutral,141ms,29.0,25.0,0.0,141ms_neutral,study1,0.1559624799527341
,20.0,0.3435929999686777,1.0,happy,happy,141ms,30.0,26.0,0.0,141ms_happy,study1,0.1375526801683122
,20.0,0.6853751000016928,1.0,sad,sad,25ms,32.0,28.0,0.0,25ms_sad,study1,0.0275414799805844
,20.0,0.8315040001180023,1.0,neutral,neutral,25ms,33.0,29.0,0.0,25ms_neutral,study1,0.0258508799132073
,20.0,0.7230289001017809,1.0,neutral,neutral,25ms,34.0,30.0,0.0,25ms_neutral,study1,0.0254759799689168
,20.0,0.7089432999491692,1.0,neutral,neutral,25ms,35.0,31.0,0.0,25ms_neutral,study1,0.0259840799961352
,20.0,0.6986794997937977,1.0,neutral,neutral,25ms,36.0,32.0,0.0,25ms_neutral,study1,0.0256899802014345
,20.0,0.4917174000293016,1.0,neutral,neutral,141ms,37.0,33.0,0.0,141ms_neutral,study1,0.1561248800251746
,20.0,0.3365144999697804,1.0,happy,happy,141ms,39.0,35.0,0.0,141ms_happy,study1,0.1682209800462999
,20.0,0.4228197999764234,1.0,sad,sad,141ms,40.0,36.0,0.0,141ms_sad,study1,0.1616138801443867
,20.0,0.3502706999424845,0.0,sad,neutral,141ms,41.0,37.0,0.0,141ms_neutral,study1,0.1600485799834814
,20.0,0.4048534999601543,1.0,sad,sad,141ms,42.0,38.0,0.0,141ms_sad,study1,0.1318147799000542
,20.0,0.4903212999925017,1.0,neutral,neutral,141ms,43.0,39.0,0.0,141ms_neutral,study1,0.1657405800186779
,20.0,0.7575753999408334,1.0,sad,sad,141ms,44.0,40.0,0.0,141ms_sad,study1,0.1349185800179952
,20.0,0.4254302999470383,1.0,happy,happy,141ms,45.0,41.0,0.0,141ms_happy,study1,0.1691782800015175
,20.0,0.4977990000043064,1.0,happy,happy,25ms,46.0,42.0,0.0,25ms_happy,study1,0.0228842799086237
,20.0,0.5381203999277204,1.0,sad,sad,141ms,47.0,43.0,0.0,141ms_sad,study1,0.1335843801032865
,20.0,0.4061676999554038,1.0,happy,happy,141ms,48.0,44.0,0.0,141ms_happy,study1,0.1354733800515646
,20.0,0.7007853998802602,1.0,sad,sad,141ms,49.0,45.0,0.0,141ms_sad,study1,0.1302163800691005
,20.0,1.3300835001282394,1.0,neutral,neutral,25ms,50.0,46.0,0.0,25ms_neutral,study1,0.0267333799972959
,20.0,0.4356835000216961,1.0,happy,happy,141ms,51.0,47.0,0.0,141ms_happy,study1,0.1325828800443673
,20.0,0.6827281001023948,1.0,neutral,neutral,141ms,52.0,48.0,0.0,141ms_neutral,study1,0.1636609800160045
,20.0,0.5958913001231849,1.0,neutral,neutral,141ms,53.0,49.0,0.0,141ms_neutral,study1,0.1617423800751396
,20.0,0.3935004000086337,1.0,happy,happy,141ms,54.0,50.0,0.0,141ms_happy,study1,0.1323932799976432
,20.0,0.4560527000576257,1.0,neutral,neutral,141ms,55.0,51.0,0.0,141ms_neutral,study1,0.1543321799952366
,20.0,0.5685401998925954,1.0,neutral,neutral,141ms,56.0,52.0,0.0,141ms_neutral,study1,0.1579463800415794
,20.0,0.3793925000354647,1.0,happy,happy,141ms,57.0,53.0,0.0,141ms_happy,study1,0.1583209800999725
,20.0,0.4484525001607835,1.0,neutral,neutral,141ms,58.0,54.0,0.0,141ms_neutral,study1,0.15692187980747
,20.0,0.5672549000009894,1.0,neutral,neutral,25ms,59.0,55.0,0.0,25ms_neutral,study1,0.0255965799559305
,20.0,0.5536042999010533,1.0,happy,happy,25ms,60.0,56.0,0.0,25ms_happy,study1,0.0221226801630507
,20.0,0.3862810998689383,1.0,neutral,neutral,141ms,61.0,57.0,0.0,141ms_neutral,study1,0.1559851800091678
,20.0,0.2874555999878794,0.0,happy,neutral,141ms,62.0,58.0,0.0,141ms_neutral,study1,0.1613668801263088
,20.0,0.396627000067383,1.0,neutral,neutral,141ms,63.0,59.0,0.0,141ms_neutral,study1,0.1666951800697234
,20.0,0.4735330999828875,1.0,neutral,neutral,141ms,65.0,61.0,0.0,141ms_neutral,study1,0.1621118799783403
,20.0,0.612248299876228,1.0,happy,happy,25ms,66.0,62.0,0.0,25ms_happy,study1,0.0227394799701983
,20.0,0.3537139999680221,1.0,happy,happy,141ms,67.0,63.0,0.0,141ms_happy,study1,0.1357074800878877
,20.0,0.4802383999340236,1.0,happy,happy,25ms,68.0,64.0,0.0,25ms_happy,study1,0.0231964799575621
,20.0,0.4525685000699013,1.0,sad,sad,141ms,69.0,65.0,0.0,141ms_sad,study1,0.134137579891842
,20.0,0.6861205999739468,1.0,happy,happy,25ms,70.0,66.0,0.0,25ms_happy,study1,0.0228870799299443
,20.0,0.4737456000875681,1.0,happy,happy,25ms,71.0,67.0,0.0,25ms_happy,study1,0.0272766800597423
,20.0,0.5366622000001371,1.0,happy,happy,25ms,72.0,68.0,0.0,25ms_happy,study1,0.0227320801466817
,20.0,0.6269788001663983,1.0,sad,sad,25ms,73.0,69.0,0.0,25ms_sad,study1,0.0223155801184589
,20.0,0.4823399998713285,1.0,happy,happy,25ms,74.0,70.0,0.0,25ms_happy,study1,0.0228311800863707
,20.0,0.4489394000265747,1.0,happy,happy,25ms,75.0,71.0,0.0,25ms_happy,study1,0.025473280064773
,20.0,0.5046779999975115,1.0,happy,happy,25ms,76.0,72.0,0.0,25ms_happy,study1,0.0248523801099622
,20.0,0.693817000137642,1.0,sad,sad,25ms,77.0,73.0,0.0,25ms_sad,study1,0.0259103800170237
,20.0,0.45255700009875,1.0,happy,happy,141ms,78.0,74.0,0.0,141ms_happy,study1,0.1629695801064485
,20.0,0.653045600047335,1.0,sad,sad,25ms,79.0,75.0,0.0,25ms_sad,study1,0.0264519799500817
,20.0,0.6203262000344694,1.0,neutral,neutral,141ms,80.0,76.0,0.0,141ms_neutral,study1,0.1632782797794902
,20.0,0.3630053999368101,1.0,happy,happy,141ms,82.0,78.0,0.0,141ms_happy,study1,0.1630614799913132
,20.0,1.3061584001407027,0.0,neutral,sad,25ms,83.0,79.0,0.0,25ms_sad,study1,0.0232022800016693
,20.0,0.6923513999208808,1.0,sad,sad,141ms,84.0,80.0,0.0,141ms_sad,study1,0.132624479895469
,20.0,0.6967678000219166,1.0,sad,sad,141ms,85.0,81.0,0.0,141ms_sad,study1,0.1306827801279837
,20.0,0.5827421001158655,1.0,happy,happy,25ms,86.0,82.0,0.0,25ms_happy,study1,0.0216954799369091
,20.0,1.3127937000244856,0.0,neutral,sad,25ms,89.0,85.0,0.0,25ms_sad,study1,0.0233526799827927
,20.0,0.9462576999794692,1.0,neutral,neutral,141ms,90.0,86.0,0.0,141ms_neutral,study1,0.1604728800710404
,20.0,0.4356694999150932,1.0,happy,happy,141ms,91.0,87.0,0.0,141ms_happy,study1,0.1531676798593366
,20.0,1.1926049999892712,0.0,neutral,sad,25ms,92.0,88.0,0.0,25ms_sad,study1,0.0226459800731504
,20.0,0.576777100097388,1.0,sad,sad,141ms,93.0,89.0,0.0,141ms_sad,study1,0.1350847801193708
,20.0,0.5022211000323296,1.0,sad,sad,141ms,94.0,90.0,0.0,141ms_sad,study1,0.1334905798547083
,20.0,0.7910847999155521,1.0,neutral,neutral,25ms,95.0,91.0,0.0,25ms_neutral,study1,0.0264509799424672
,20.0,1.2332005999051034,1.0,sad,sad,25ms,96.0,92.0,0.0,25ms_sad,study1,0.0227390799671525
,20.0,1.4932913999073207,1.0,sad,sad,25ms,98.0,94.0,0.0,25ms_sad,study1,0.0252232800238516
,20.0,0.9644805998541416,1.0,sad,sad,25ms,99.0,95.0,0.0,25ms_sad,study1,0.0263913799543047
,20.0,0.4840434000361711,1.0,neutral,neutral,141ms,100.0,96.0,0.0,141ms_neutral,study1,0.1600576799363011
,20.0,0.4144536999519914,1.0,happy,happy,141ms,101.0,97.0,0.0,141ms_happy,study1,0.1580502797849021
,20.0,0.4007918999996036,1.0,neutral,neutral,141ms,102.0,98.0,0.0,141ms_neutral,study1,0.1522935800720688
,20.0,0.7464318999554962,1.0,sad,sad,25ms,103.0,99.0,0.0,25ms_sad,study1,0.022604280104872
,20.0,0.4983401000499725,1.0,neutral,neutral,25ms,104.0,100.0,0.0,25ms_neutral,study1,0.0273822801653977
,20.0,0.5249163000844419,1.0,happy,happy,141ms,106.0,102.0,0.0,141ms_happy,study1,0.1554560800549325
,20.0,1.1881287000142038,1.0,sad,sad,141ms,108.0,104.0,0.0,141ms_sad,study1,0.1604130800812981
,20.0,0.6318131999578327,1.0,happy,happy,141ms,109.0,105.0,0.0,141ms_happy,study1,0.1355098799802476
,20.0,1.0500296999234706,1.0,neutral,neutral,141ms,110.0,106.0,0.0,141ms_neutral,study1,0.1616214799694262
,20.0,0.7263738999608904,1.0,happy,happy,141ms,111.0,107.0,0.0,141ms_happy,study1,0.1584410799667353
,20.0,0.76948789996095,1.0,sad,sad,141ms,112.0,108.0,0.0,141ms_sad,study1,0.134858180023798
,20.0,0.7530289001297206,1.0,neutral,neutral,25ms,113.0,109.0,0.0,25ms_neutral,study1,0.0243377799168342
,20.0,0.4568493000697344,1.0,sad,sad,141ms,114.0,110.0,0.0,141ms_sad,study1,0.131330580171209
,20.0,0.6454282000195235,1.0,happy,happy,25ms,115.0,111.0,0.0,25ms_happy,study1,0.0260221799370015
,20.0,0.4673208999447524,1.0,neutral,neutral,141ms,116.0,112.0,0.0,141ms_neutral,study1,0.1723316800315046
,20.0,0.9643771999981254,1.0,sad,sad,25ms,117.0,113.0,0.0,25ms_sad,study1,0.0266554799861751
,20.0,0.4907162999734282,1.0,happy,happy,25ms,118.0,114.0,0.0,25ms_happy,study1,0.0259445798118349
,20.0,0.5329458999913186,1.0,happy,happy,25ms,119.0,115.0,0.0,25ms_happy,study1,0.0240916800219679
,20.0,0.9777540999930352,1.0,sad,sad,25ms,120.0,116.0,0.0,25ms_sad,study1,0.0257968799676859
,20.0,0.7177080998662859,1.0,neutral,neutral,25ms,121.0,117.0,0.0,25ms_neutral,study1,0.0257713798899317
,20.0,1.0174426001030952,1.0,neutral,neutral,25ms,122.0,118.0,0.0,25ms_neutral,study1,0.0257035798393303
,20.0,0.8060652001295239,1.0,neutral,neutral,25ms,123.0,119.0,0.0,25ms_neutral,study1,0.0258599798661407
,20.0,0.6923838998191059,1.0,sad,sad,16ms,124.0,0.0,1.0,16ms_sad,study1,0.016169880004611
,20.0,0.8245495001319796,1.0,neutral,neutral,16ms,125.0,1.0,1.0,16ms_neutral,study1,0.0171860800590479
,20.0,1.2787371999584138,1.0,sad,sad,141ms,126.0,2.0,1.0,141ms_sad,study1,0.1569253801833952
,20.0,1.0996565001551062,1.0,neutral,neutral,141ms,128.0,4.0,1.0,141ms_neutral,study1,0.1595692799426729
,20.0,1.272639499977231,1.0,neutral,neutral,16ms,129.0,5.0,1.0,16ms_neutral,study1,0.017143180081689
,20.0,0.8880316999275237,0.0,neutral,sad,16ms,130.0,6.0,1.0,16ms_sad,study1,0.015420280117496
,20.0,0.9056977001018822,1.0,neutral,neutral,141ms,131.0,7.0,1.0,141ms_neutral,study1,0.1586420801003214
,20.0,0.7666265000589192,1.0,sad,sad,141ms,132.0,8.0,1.0,141ms_sad,study1,0.1365859801415467
,20.0,0.8018048000521958,0.0,neutral,sad,16ms,133.0,9.0,1.0,16ms_sad,study1,0.0149214798119032
,20.0,0.5456167999655008,1.0,neutral,neutral,141ms,135.0,11.0,1.0,141ms_neutral,study1,0.1588250800966761
,20.0,0.7253494998440146,1.0,sad,sad,16ms,136.0,12.0,1.0,16ms_sad,study1,0.0155693802051359
,20.0,0.6069038000423461,1.0,happy,happy,141ms,137.0,13.0,1.0,141ms_happy,study1,0.1356674800161954
,20.0,0.3373805000446737,1.0,happy,happy,141ms,138.0,14.0,1.0,141ms_happy,study1,0.1547867799644109
,20.0,0.8473677998408675,1.0,neutral,neutral,16ms,140.0,16.0,1.0,16ms_neutral,study1,0.0170839800964586
,20.0,0.9760844002012165,1.0,happy,happy,16ms,141.0,17.0,1.0,16ms_happy,study1,0.0170415800064915
,20.0,0.8099062999244779,0.0,neutral,sad,16ms,142.0,18.0,1.0,16ms_sad,study1,0.0152720799204075
,20.0,0.9320340000558645,1.0,happy,happy,16ms,143.0,19.0,1.0,16ms_happy,study1,0.0150360799860322
,20.0,0.6526991000864655,1.0,happy,happy,16ms,144.0,20.0,1.0,16ms_happy,study1,0.015629580197924
,20.0,0.6885198000818491,1.0,happy,happy,16ms,145.0,21.0,1.0,16ms_happy,study1,0.0153906798921639
,20.0,0.9153324000071734,1.0,neutral,neutral,16ms,147.0,23.0,1.0,16ms_neutral,study1,0.0167972798925006
,20.0,0.6007010999601334,1.0,neutral,neutral,141ms,148.0,24.0,1.0,141ms_neutral,study1,0.1619068800471836
,20.0,0.6477753999643028,1.0,happy,happy,141ms,149.0,25.0,1.0,141ms_happy,study1,0.1344282801262579
,20.0,0.7154699999373406,1.0,neutral,neutral,141ms,150.0,26.0,1.0,141ms_neutral,study1,0.1564959799404732
,20.0,0.4293839999008924,1.0,happy,happy,141ms,151.0,27.0,1.0,141ms_happy,study1,0.1597224799450032
,20.0,0.8631619999650866,0.0,neutral,sad,16ms,152.0,28.0,1.0,16ms_sad,study1,0.0158401799387775
,20.0,0.7755473998840898,1.0,happy,happy,16ms,153.0,29.0,1.0,16ms_happy,study1,0.0170757800340197
,20.0,0.489698100136593,1.0,happy,happy,141ms,154.0,30.0,1.0,141ms_happy,study1,0.132701080013021
,20.0,0.6057889999356121,1.0,happy,happy,16ms,155.0,31.0,1.0,16ms_happy,study1,0.0170777798164181
,20.0,0.5426647001877427,1.0,neutral,neutral,141ms,156.0,32.0,1.0,141ms_neutral,study1,0.1671699799596808
,20.0,0.9421307002194226,1.0,sad,sad,141ms,157.0,33.0,1.0,141ms_sad,study1,0.1352524798828653
,20.0,1.1985156000591817,1.0,neutral,neutral,141ms,158.0,34.0,1.0,141ms_neutral,study1,0.1615758800878666
,20.0,0.6247312999330461,1.0,happy,happy,16ms,159.0,35.0,1.0,16ms_happy,study1,0.0153097800910018
,20.0,0.5043756000231951,1.0,neutral,neutral,141ms,160.0,36.0,1.0,141ms_neutral,study1,0.1690993802155844
,20.0,0.8336116001009941,1.0,neutral,neutral,16ms,161.0,37.0,1.0,16ms_neutral,study1,0.0173548799473337
,20.0,0.4168030999135226,1.0,happy,happy,141ms,162.0,38.0,1.0,141ms_happy,study1,0.1567207800223968
,20.0,0.6980628999881446,1.0,happy,happy,16ms,163.0,39.0,1.0,16ms_happy,study1,0.0160004798788122
,20.0,0.6278031000401825,1.0,happy,happy,16ms,164.0,40.0,1.0,16ms_happy,study1,0.0148906800429813
,20.0,0.9011379999574274,1.0,neutral,neutral,141ms,165.0,41.0,1.0,141ms_neutral,study1,0.1552731799426965
,20.0,0.5231977000366896,1.0,happy,happy,141ms,166.0,42.0,1.0,141ms_happy,study1,0.1347347797825477
,20.0,0.3889613000210374,1.0,happy,happy,141ms,167.0,43.0,1.0,141ms_happy,study1,0.1686649801674775
,20.0,0.6068274998106062,0.0,happy,sad,16ms,168.0,44.0,1.0,16ms_sad,study1,0.0151762798893742
,20.0,0.4768326000776142,1.0,neutral,neutral,141ms,169.0,45.0,1.0,141ms_neutral,study1,0.1648955801035754
,20.0,0.6786816001404077,1.0,neutral,neutral,141ms,170.0,46.0,1.0,141ms_neutral,study1,0.1606158799957029
,20.0,0.8161417001392692,1.0,happy,happy,16ms,171.0,47.0,1.0,16ms_happy,study1,0.0173838799353234
,20.0,0.8596547001507133,1.0,neutral,neutral,141ms,172.0,48.0,1.0,141ms_neutral,study1,0.1654430799651436
,20.0,0.5793806000147015,1.0,happy,happy,141ms,173.0,49.0,1.0,141ms_happy,study1,0.1390884799882314
,20.0,0.4753221001010388,1.0,happy,happy,141ms,174.0,50.0,1.0,141ms_happy,study1,0.1698058801237039
,20.0,0.57036880007945,1.0,neutral,neutral,16ms,175.0,51.0,1.0,16ms_neutral,study1,0.0169959801248751
,20.0,0.6455943000037223,1.0,happy,happy,141ms,176.0,52.0,1.0,141ms_happy,study1,0.1366627797949604
,20.0,0.3666608999483287,1.0,happy,happy,141ms,177.0,53.0,1.0,141ms_happy,study1,0.1362663800362042
,20.0,0.557318199891597,1.0,happy,happy,16ms,178.0,54.0,1.0,16ms_happy,study1,0.015115580009251
,20.0,0.6491397998761386,1.0,happy,happy,16ms,179.0,55.0,1.0,16ms_happy,study1,0.0149456799961171
,20.0,0.4057087001856416,1.0,neutral,neutral,141ms,180.0,56.0,1.0,141ms_neutral,study1,0.1553771800361119
,20.0,0.7785191000439227,1.0,neutral,neutral,16ms,182.0,58.0,1.0,16ms_neutral,study1,0.0166212799492768
,20.0,0.637476900126785,1.0,sad,sad,141ms,183.0,59.0,1.0,141ms_sad,study1,0.1381859799846552
,20.0,0.6607462998945266,1.0,neutral,neutral,16ms,184.0,60.0,1.0,16ms_neutral,study1,0.0173325801267765
,20.0,0.7485565000679344,1.0,sad,sad,141ms,185.0,61.0,1.0,141ms_sad,study1,0.136157880024939
,20.0,0.9692356002051384,1.0,neutral,neutral,16ms,186.0,62.0,1.0,16ms_neutral,study1,0.0173661801497928
,20.0,0.6058489000424743,1.0,sad,sad,141ms,187.0,63.0,1.0,141ms_sad,study1,0.1354719798080168
,20.0,0.7636011000722647,1.0,happy,happy,16ms,188.0,64.0,1.0,16ms_happy,study1,0.0152853801380388
,20.0,0.6005021999590099,1.0,neutral,neutral,16ms,189.0,65.0,1.0,16ms_neutral,study1,0.0174335801973484
,20.0,0.9833219998981804,1.0,sad,sad,16ms,190.0,66.0,1.0,16ms_sad,study1,0.0154304799623332
,20.0,0.5807223001029342,1.0,happy,happy,16ms,191.0,67.0,1.0,16ms_happy,study1,0.0159330798312566
,20.0,0.6662576999515295,1.0,sad,sad,141ms,192.0,68.0,1.0,141ms_sad,study1,0.1692551800049386
,20.0,1.3114829999394717,1.0,neutral,neutral,16ms,193.0,69.0,1.0,16ms_neutral,study1,0.0164398799649916
,20.0,1.4131351998075845,0.0,neutral,sad,16ms,194.0,70.0,1.0,16ms_sad,study1,0.0165589800569705
,20.0,0.8848581998609006,1.0,neutral,neutral,16ms,196.0,72.0,1.0,16ms_neutral,study1,0.017644880060061
,20.0,0.5499449998605996,1.0,sad,sad,141ms,197.0,73.0,1.0,141ms_sad,study1,0.1650855801533453
,20.0,1.1084016999229789,0.0,sad,neutral,16ms,198.0,74.0,1.0,16ms_neutral,study1,0.0175496798008225
,20.0,0.5211491000372916,1.0,sad,sad,141ms,199.0,75.0,1.0,141ms_sad,study1,0.1381529799662075
,20.0,0.4961010999977588,1.0,neutral,neutral,141ms,200.0,76.0,1.0,141ms_neutral,study1,0.15906617995347
,20.0,0.4293760000728071,1.0,sad,sad,141ms,201.0,77.0,1.0,141ms_sad,study1,0.1368189800530217
,20.0,0.6542112999595702,1.0,neutral,neutral,16ms,202.0,78.0,1.0,16ms_neutral,study1,0.0172802798449538
,20.0,0.4007640001364052,1.0,happy,happy,141ms,203.0,79.0,1.0,141ms_happy,study1,0.1301726800854794
,20.0,0.6023626001551747,1.0,neutral,neutral,16ms,204.0,80.0,1.0,16ms_neutral,study1,0.0171713798306427
,20.0,0.6284482998307794,1.0,happy,happy,16ms,205.0,81.0,1.0,16ms_happy,study1,0.0149778800084732
,20.0,0.3492651998531073,1.0,happy,happy,141ms,206.0,82.0,1.0,141ms_happy,study1,0.1677637800573848
,20.0,0.2683151999954134,1.0,happy,happy,141ms,207.0,83.0,1.0,141ms_happy,study1,0.1302073800004564
,20.0,0.4143407999072224,1.0,neutral,neutral,141ms,208.0,84.0,1.0,141ms_neutral,study1,0.1582375799305282
,20.0,0.3909932000096887,1.0,neutral,neutral,141ms,209.0,85.0,1.0,141ms_neutral,study1,0.1581941800657205
,20.0,0.4149044998921454,1.0,happy,happy,141ms,210.0,86.0,1.0,141ms_happy,study1,0.1356728800572
,20.0,0.7760056999977678,0.0,happy,sad,16ms,212.0,88.0,1.0,16ms_sad,study1,0.0149118799715779
,20.0,0.8017472000792623,1.0,happy,happy,16ms,213.0,89.0,1.0,16ms_happy,study1,0.0156926800962082
,20.0,0.4931656999979168,1.0,happy,happy,16ms,214.0,90.0,1.0,16ms_happy,study1,0.0154503799974463
,20.0,0.7100801998749375,0.0,neutral,sad,16ms,215.0,91.0,1.0,16ms_sad,study1,0.0148924798238567
,20.0,0.4580039998982101,1.0,sad,sad,141ms,216.0,92.0,1.0,141ms_sad,study1,0.1355127801186881
,20.0,0.4176899001467973,1.0,neutral,neutral,141ms,217.0,93.0,1.0,141ms_neutral,study1,0.1613073800224356
,20.0,0.45825309981592,1.0,sad,sad,141ms,218.0,94.0,1.0,141ms_sad,study1,0.1625466800294361
,20.0,0.7569893999025226,1.0,neutral,neutral,141ms,219.0,95.0,1.0,141ms_neutral,study1,0.1713949800002865
,20.0,0.3893887000158429,1.0,happy,happy,141ms,220.0,96.0,1.0,141ms_happy,study1,0.1350243798922292
,20.0,0.9930910998955368,0.0,neutral,sad,16ms,221.0,97.0,1.0,16ms_sad,study1,0.0151199800427548
,20.0,0.5087421999778599,1.0,sad,sad,141ms,222.0,98.0,1.0,141ms_sad,study1,0.1367553800344012
,20.0,0.5067543999757618,1.0,sad,sad,141ms,223.0,99.0,1.0,141ms_sad,study1,0.1583379799965314
,20.0,0.9045422999188304,1.0,neutral,neutral,16ms,224.0,100.0,1.0,16ms_neutral,study1,0.0174891801550529
,20.0,0.3036810997873544,1.0,happy,happy,141ms,225.0,101.0,1.0,141ms_happy,study1,0.1332824800163052
,20.0,0.5238681000191718,1.0,sad,sad,141ms,226.0,102.0,1.0,141ms_sad,study1,0.136097280029162
,20.0,0.6524509000591934,1.0,neutral,neutral,16ms,227.0,103.0,1.0,16ms_neutral,study1,0.0175746799911848
,20.0,0.8237407999113202,1.0,happy,happy,16ms,228.0,104.0,1.0,16ms_happy,study1,0.0151486801448754
,20.0,0.88169139996171,1.0,neutral,neutral,141ms,229.0,105.0,1.0,141ms_neutral,study1,0.1574370800051383
,20.0,0.5497997999191284,1.0,sad,sad,141ms,230.0,106.0,1.0,141ms_sad,study1,0.1333908801432244
,20.0,0.7273730000015348,1.0,happy,happy,16ms,231.0,107.0,1.0,16ms_happy,study1,0.0160108799580029
,20.0,0.5419161999598145,1.0,sad,sad,141ms,232.0,108.0,1.0,141ms_sad,study1,0.1533639800734363
,20.0,0.9304853999055922,0.0,happy,sad,16ms,233.0,109.0,1.0,16ms_sad,study1,0.0159313799347273
,20.0,0.8465313999913633,1.0,happy,happy,141ms,234.0,110.0,1.0,141ms_happy,study1,0.1538109799846552
,20.0,0.4959955001249909,1.0,neutral,neutral,141ms,235.0,111.0,1.0,141ms_neutral,study1,0.1520667799748025
,20.0,0.4394364999607205,1.0,sad,sad,141ms,236.0,112.0,1.0,141ms_sad,study1,0.1345897800754301
,20.0,0.5107206001412123,1.0,happy,happy,16ms,237.0,113.0,1.0,16ms_happy,study1,0.0150668799876712
,20.0,1.058535800082609,0.0,happy,sad,16ms,238.0,114.0,1.0,16ms_sad,study1,0.0172172800637326
,20.0,0.5124125999864191,1.0,happy,happy,16ms,239.0,115.0,1.0,16ms_happy,study1,0.0172916801645897
,20.0,0.9527398000936956,1.0,neutral,neutral,16ms,240.0,116.0,1.0,16ms_neutral,study1,0.0175392799544624
,20.0,1.2876232000999153,1.0,neutral,neutral,16ms,241.0,117.0,1.0,16ms_neutral,study1,0.0162428798619203
,20.0,0.803220700006932,1.0,neutral,neutral,16ms,242.0,118.0,1.0,16ms_neutral,study1,0.0169678800273231
,20.0,1.4419986999128014,1.0,happy,happy,8ms,244.0,0.0,2.0,8ms_happy,study1,0.0083561799954168
,20.0,1.0224309000186622,0.0,neutral,sad,8ms,246.0,2.0,2.0,8ms_sad,study1,0.0083561799954168
,20.0,0.5353228999301791,1.0,happy,happy,141ms,247.0,3.0,2.0,141ms_happy,study1,0.1595280800945602
,20.0,0.8931100000627339,0.0,happy,sad,8ms,248.0,4.0,2.0,8ms_sad,study1,0.0083561799954168
,20.0,1.0035419000778347,1.0,neutral,neutral,141ms,249.0,5.0,2.0,141ms_neutral,study1,0.1637681801337294
,20.0,1.172355600167066,0.0,happy,neutral,8ms,250.0,6.0,2.0,8ms_neutral,study1,0.0083561799954168
,20.0,0.8278226000256836,1.0,neutral,neutral,8ms,251.0,7.0,2.0,8ms_neutral,study1,0.0083561799954168
,20.0,0.5372874999884516,1.0,happy,happy,141ms,253.0,9.0,2.0,141ms_happy,study1,0.1523056800476752
,20.0,0.6221284999046475,1.0,neutral,neutral,141ms,254.0,10.0,2.0,141ms_neutral,study1,0.1612185800447605
,20.0,0.473620600067079,1.0,neutral,neutral,141ms,255.0,11.0,2.0,141ms_neutral,study1,0.1648797799832664
,20.0,1.488173799822107,1.0,neutral,neutral,8ms,256.0,12.0,2.0,8ms_neutral,study1,0.0083561799954168
,20.0,0.5377164001110941,0.0,happy,neutral,8ms,257.0,13.0,2.0,8ms_neutral,study1,0.0083561799954168
,20.0,0.5869605999905616,0.0,happy,sad,8ms,258.0,14.0,2.0,8ms_sad,study1,0.0083561799954168
,20.0,1.0919005000032485,1.0,happy,happy,8ms,259.0,15.0,2.0,8ms_happy,study1,0.0083561799954168
,20.0,0.583165799966082,1.0,sad,sad,141ms,260.0,16.0,2.0,141ms_sad,study1,0.1358570800628058
,20.0,1.007505200104788,1.0,neutral,neutral,8ms,261.0,17.0,2.0,8ms_neutral,study1,0.0083561799954168
,20.0,0.9605964999645948,0.0,happy,sad,8ms,262.0,18.0,2.0,8ms_sad,study1,0.0083561799954168
,20.0,0.5262629999779165,0.0,sad,neutral,141ms,263.0,19.0,2.0,141ms_neutral,study1,0.1594758799299143
,20.0,0.5647454001009464,1.0,neutral,neutral,141ms,264.0,20.0,2.0,141ms_neutral,study1,0.1545059799216233
,20.0,1.3111026999540627,0.0,happy,sad,8ms,265.0,21.0,2.0,8ms_sad,study1,0.0083561799954168
,20.0,0.8699511999730021,0.0,neutral,happy,8ms,266.0,22.0,2.0,8ms_happy,study1,0.0083561799954168
,20.0,0.6261571999639273,1.0,happy,happy,141ms,267.0,23.0,2.0,141ms_happy,study1,0.1382911798543773
,20.0,0.352693900000304,1.0,happy,happy,141ms,269.0,25.0,2.0,141ms_happy,study1,0.1558202800340495
,20.0,0.6723905000835657,0.0,happy,sad,8ms,270.0,26.0,2.0,8ms_sad,study1,0.0083561799954168
,20.0,0.755713599966839,0.0,happy,neutral,8ms,271.0,27.0,2.0,8ms_neutral,study1,0.0083561799954168
,20.0,0.8664029000792652,1.0,happy,happy,141ms,272.0,28.0,2.0,141ms_happy,study1,0.1377250798511795
,20.0,1.493282400071621,1.0,neutral,neutral,8ms,273.0,29.0,2.0,8ms_neutral,study1,0.0083561799954168
,20.0,0.4850496998988092,1.0,neutral,neutral,141ms,274.0,30.0,2.0,141ms_neutral,study1,0.1549146801232837
,20.0,0.5491029999684542,1.0,sad,sad,141ms,275.0,31.0,2.0,141ms_sad,study1,0.1619841800536505
,20.0,1.4915095998439938,0.0,happy,sad,8ms,276.0,32.0,2.0,8ms_sad,study1,0.0083561799951894
,20.0,0.5609659000765532,1.0,neutral,neutral,141ms,278.0,34.0,2.0,141ms_neutral,study1,0.1579638800583325
,20.0,0.5136982998810709,1.0,happy,happy,141ms,279.0,35.0,2.0,141ms_happy,study1,0.1634255798531967
,20.0,0.6328948999289423,0.0,happy,sad,8ms,280.0,36.0,2.0,8ms_sad,study1,0.0083561799951894
,20.0,0.8302672000136226,1.0,happy,happy,8ms,281.0,37.0,2.0,8ms_happy,study1,0.0083561799955305
,20.0,0.9373228999320418,0.0,happy,neutral,8ms,282.0,38.0,2.0,8ms_neutral,study1,0.0083561799954168
,20.0,0.6255731000564992,1.0,neutral,neutral,141ms,283.0,39.0,2.0,141ms_neutral,study1,0.1609515801072802
,20.0,0.5257076998241246,1.0,neutral,neutral,141ms,284.0,40.0,2.0,141ms_neutral,study1,0.158472080202614
,20.0,0.6613178998231888,1.0,happy,happy,141ms,285.0,41.0,2.0,141ms_happy,study1,0.1577672799584206
,20.0,1.4078069999814034,0.0,happy,sad,8ms,286.0,42.0,2.0,8ms_sad,study1,0.0083561799955305
,20.0,0.450805600034073,1.0,happy,happy,141ms,287.0,43.0,2.0,141ms_happy,study1,0.1365665799939961
,20.0,0.7106069000437856,0.0,neutral,happy,8ms,288.0,44.0,2.0,8ms_happy,study1,0.0083561799956441
,20.0,0.5049268000293523,1.0,sad,sad,141ms,289.0,45.0,2.0,141ms_sad,study1,0.1376312800683763
,20.0,0.483962400117889,1.0,sad,sad,141ms,291.0,47.0,2.0,141ms_sad,study1,0.1367485799826227
,20.0,0.5674399000126868,0.0,happy,sad,8ms,292.0,48.0,2.0,8ms_sad,study1,0.0083561799954168
,20.0,0.3342792999465018,1.0,happy,happy,141ms,293.0,49.0,2.0,141ms_happy,study1,0.1546105800196073
,20.0,0.9585506001021712,1.0,neutral,neutral,141ms,294.0,50.0,2.0,141ms_neutral,study1,0.1585545800160162
,20.0,0.6680876000318676,1.0,happy,happy,8ms,295.0,51.0,2.0,8ms_happy,study1,0.0083561799951894
,20.0,0.5144412000663579,1.0,sad,sad,141ms,296.0,52.0,2.0,141ms_sad,study1,0.1375492799094217
,20.0,1.0566378000658003,1.0,neutral,neutral,141ms,297.0,53.0,2.0,141ms_neutral,study1,0.1550723798105764
,20.0,1.4223482999950647,0.0,neutral,sad,8ms,298.0,54.0,2.0,8ms_sad,study1,0.0083561799951894
,20.0,0.8515355999115855,1.0,happy,happy,141ms,299.0,55.0,2.0,141ms_happy,study1,0.1338007801211915
,20.0,1.2555737998336554,0.0,happy,sad,8ms,300.0,56.0,2.0,8ms_sad,study1,0.0083561799955305
,20.0,1.206339200027287,1.0,neutral,neutral,8ms,301.0,57.0,2.0,8ms_neutral,study1,0.0083561799955305
,20.0,0.4704096999485045,1.0,happy,happy,141ms,302.0,58.0,2.0,141ms_happy,study1,0.1585178798529796
,20.0,0.635747899999842,1.0,happy,happy,8ms,303.0,59.0,2.0,8ms_happy,study1,0.0083561799954168
,20.0,0.460620200028643,1.0,happy,happy,141ms,305.0,61.0,2.0,141ms_happy,study1,0.1613974801265385
,20.0,0.9081530999392272,1.0,happy,happy,8ms,306.0,62.0,2.0,8ms_happy,study1,0.0083561799954168
,20.0,0.9527457999065518,1.0,neutral,neutral,8ms,307.0,63.0,2.0,8ms_neutral,study1,0.0083561799956441
,20.0,0.7038422001060098,1.0,happy,happy,141ms,308.0,64.0,2.0,141ms_happy,study1,0.1351270798594441
,20.0,0.700195100158453,0.0,happy,sad,8ms,309.0,65.0,2.0,8ms_sad,study1,0.0083561799954168
,20.0,0.6534969999920577,0.0,happy,sad,8ms,310.0,66.0,2.0,8ms_sad,study1,0.0083561799956441
,20.0,0.4441002001985907,1.0,sad,sad,141ms,311.0,67.0,2.0,141ms_sad,study1,0.1631426799108339
,20.0,0.5145912000443786,1.0,neutral,neutral,141ms,312.0,68.0,2.0,141ms_neutral,study1,0.1583754799327152
,20.0,0.4907303000800311,1.0,neutral,neutral,141ms,313.0,69.0,2.0,141ms_neutral,study1,0.1571952800263716
,20.0,0.4577309999149292,1.0,happy,happy,141ms,314.0,70.0,2.0,141ms_happy,study1,0.1621385800652888
,20.0,0.5179550000466406,1.0,neutral,neutral,141ms,315.0,71.0,2.0,141ms_neutral,study1,0.1565061800180274
,20.0,0.4582601001020521,1.0,sad,sad,141ms,316.0,72.0,2.0,141ms_sad,study1,0.1381905800195682
,20.0,0.7105028000660241,1.0,neutral,neutral,141ms,317.0,73.0,2.0,141ms_neutral,study1,0.1583220799918763
,20.0,0.5093404999934137,1.0,happy,happy,141ms,318.0,74.0,2.0,141ms_happy,study1,0.1381653800606272
,20.0,1.148381100036204,1.0,neutral,neutral,8ms,319.0,75.0,2.0,8ms_neutral,study1,0.0083561799954168
,20.0,1.122278800001368,0.0,neutral,happy,8ms,320.0,76.0,2.0,8ms_happy,study1,0.0083561799954168
,20.0,0.7248485998716205,1.0,happy,happy,8ms,321.0,77.0,2.0,8ms_happy,study1,0.0083561799956441
,20.0,1.2389702999498695,1.0,sad,sad,141ms,322.0,78.0,2.0,141ms_sad,study1,0.1613359800073794
,20.0,0.9939054998103528,1.0,happy,happy,141ms,323.0,79.0,2.0,141ms_happy,study1,0.1305085799656353
,20.0,1.013625199906528,0.0,happy,sad,8ms,324.0,80.0,2.0,8ms_sad,study1,0.0083561799954168
,20.0,0.7720707999542356,0.0,neutral,happy,8ms,325.0,81.0,2.0,8ms_happy,study1,0.0083561799954168
