subj_idx,rt,response,stim,level,real_trial_number,trial,block
EmoCon002,0.8826545000001715,neutral,neutral,8ms,246,5.0,3.0
EmoCon002,0.615014599999995,neutral,neutral,8ms,247,6.0,3.0
EmoCon002,0.546028600000227,neutral,neutral,8ms,248,7.0,3.0
EmoCon002,1.1777773000003435,happy,neutral,8ms,253,12.0,3.0
EmoCon002,1.2551963999999316,sad,happy,8ms,256,15.0,3.0
EmoCon002,0.8642994000001636,sad,sad,8ms,259,18.0,3.0
EmoCon002,0.8107829000000493,neutral,neutral,8ms,261,20.0,3.0
EmoCon002,0.8897148999999445,neutral,sad,8ms,262,21.0,3.0
EmoCon002,0.6826510000000781,happy,happy,8ms,264,23.0,3.0
EmoCon002,0.8132037999998829,happy,happy,8ms,266,25.0,3.0
EmoCon002,1.0264400000000933,neutral,neutral,8ms,268,27.0,3.0
EmoCon002,0.6176117999998496,neutral,happy,8ms,269,28.0,3.0
EmoCon002,0.7040600999998787,neutral,neutral,8ms,270,29.0,3.0
EmoCon002,0.8327222999996593,neutral,sad,8ms,272,31.0,3.0
EmoCon002,0.6284141999999521,neutral,sad,8ms,273,32.0,3.0
EmoCon002,0.9285878000000594,sad,sad,8ms,274,33.0,3.0
EmoCon002,0.6657230999999229,sad,neutral,8ms,275,34.0,3.0
EmoCon002,1.0260424999996758,sad,neutral,8ms,279,38.0,3.0
EmoCon002,1.11864659999992,happy,neutral,8ms,281,40.0,3.0
EmoCon002,0.6917511999999988,happy,happy,8ms,282,41.0,3.0
EmoCon002,0.7826614000000518,happy,happy,8ms,285,44.0,3.0
EmoCon002,0.7320859999999811,neutral,sad,8ms,288,47.0,3.0
EmoCon002,0.7864205999999285,sad,happy,8ms,290,49.0,3.0
EmoCon002,0.7164372000002004,neutral,happy,8ms,292,51.0,3.0
EmoCon002,0.6678735999998935,sad,neutral,8ms,294,53.0,3.0
EmoCon002,0.6146929000001364,sad,sad,8ms,295,54.0,3.0
EmoCon002,0.6431075000000419,neutral,happy,8ms,299,58.0,3.0
EmoCon002,0.7883995999995932,sad,happy,8ms,302,61.0,3.0
EmoCon002,0.8097387999996499,neutral,sad,8ms,306,65.0,3.0
EmoCon002,0.8566365000001497,sad,neutral,8ms,309,68.0,3.0
EmoCon002,1.1179508999998689,neutral,neutral,8ms,310,69.0,3.0
EmoCon002,0.5882947000000058,happy,neutral,8ms,312,71.0,3.0
EmoCon002,0.6003872000001138,happy,happy,8ms,315,74.0,3.0
EmoCon002,0.6489840999997796,neutral,neutral,8ms,316,75.0,3.0
EmoCon002,0.6435566999998628,happy,happy,8ms,317,76.0,3.0
EmoCon002,0.5777088999998341,happy,happy,8ms,318,77.0,3.0
EmoCon002,0.8039119999998547,sad,happy,8ms,320,79.0,3.0
EmoCon002,0.4771252000000459,neutral,sad,8ms,321,80.0,3.0
EmoCon002,0.6437501000000339,happy,happy,8ms,326,85.0,3.0
EmoCon002,0.5289366000001792,happy,sad,8ms,327,86.0,3.0
EmoCon002,0.5719555000000582,happy,sad,8ms,328,87.0,3.0
EmoCon002,0.8875441000000137,sad,sad,8ms,330,89.0,3.0
EmoCon002,0.5880445999996482,sad,happy,8ms,333,92.0,3.0
EmoCon002,0.7805204999999659,neutral,neutral,8ms,334,93.0,3.0
EmoCon002,0.6678883999998106,neutral,sad,8ms,336,95.0,3.0
EmoCon002,0.6429315000000315,neutral,sad,8ms,337,96.0,3.0
EmoCon002,0.8718905999999151,neutral,neutral,8ms,338,97.0,3.0
EmoCon002,0.9433671000001596,neutral,sad,8ms,343,102.0,3.0
EmoCon002,0.5141664999996465,happy,neutral,8ms,345,104.0,3.0
EmoCon002,0.6356513999999152,happy,neutral,8ms,347,106.0,3.0
EmoCon002,0.498980500000016,happy,sad,8ms,348,107.0,3.0
EmoCon002,0.5364104000000225,neutral,sad,8ms,350,109.0,3.0
EmoCon002,0.5076576000001296,neutral,neutral,8ms,351,110.0,3.0
EmoCon002,0.5423135000000912,neutral,happy,8ms,352,111.0,3.0
EmoCon002,1.0655569999998988,sad,neutral,8ms,355,114.0,3.0
EmoCon002,0.5850673000004463,sad,sad,8ms,356,115.0,3.0
EmoCon002,0.4669337000000269,sad,sad,8ms,357,116.0,3.0
EmoCon002,0.5200399999998808,sad,sad,8ms,358,117.0,3.0
EmoCon002,0.5752435999997942,neutral,happy,8ms,360,119.0,3.0
EmoCon002,0.6474788000000444,sad,sad,16ms,124,3.0,2.0
EmoCon002,0.6569954000001417,neutral,neutral,16ms,126,5.0,2.0
EmoCon002,0.9998219000001428,sad,sad,16ms,127,6.0,2.0
EmoCon002,0.7258332000001246,neutral,neutral,16ms,128,7.0,2.0
EmoCon002,1.2279661999998552,neutral,sad,16ms,130,9.0,2.0
EmoCon002,0.7703196000002208,neutral,neutral,16ms,132,11.0,2.0
EmoCon002,0.7671298999998726,happy,sad,16ms,133,12.0,2.0
EmoCon002,0.5122592000000168,happy,happy,16ms,135,14.0,2.0
EmoCon002,1.3863940999999609,happy,neutral,16ms,136,15.0,2.0
EmoCon002,0.8297291999999743,happy,happy,16ms,141,20.0,2.0
EmoCon002,0.5963216000000102,happy,happy,16ms,142,21.0,2.0
EmoCon002,0.5614201999997022,happy,happy,16ms,148,27.0,2.0
EmoCon002,0.9004304000000047,happy,sad,16ms,149,28.0,2.0
EmoCon002,0.8109713000003467,happy,sad,16ms,154,33.0,2.0
EmoCon002,0.6669394000000466,happy,neutral,16ms,158,37.0,2.0
EmoCon002,0.5341640999999981,happy,happy,16ms,161,40.0,2.0
EmoCon002,0.6376906999998937,neutral,neutral,16ms,162,41.0,2.0
EmoCon002,0.7981557999996767,happy,happy,16ms,168,47.0,2.0
EmoCon002,0.7626408000000993,neutral,neutral,16ms,169,48.0,2.0
EmoCon002,0.8174085999999079,happy,happy,16ms,170,49.0,2.0
EmoCon002,0.5876726999999846,happy,happy,16ms,171,50.0,2.0
EmoCon002,0.8357014999996863,happy,neutral,16ms,172,51.0,2.0
EmoCon002,1.2669986999999308,neutral,neutral,16ms,179,58.0,2.0
EmoCon002,0.8839497999997548,sad,sad,16ms,182,61.0,2.0
EmoCon002,0.731354100000317,neutral,happy,16ms,185,64.0,2.0
EmoCon002,1.1021236000001409,happy,happy,16ms,188,67.0,2.0
EmoCon002,1.0763354999999135,neutral,neutral,16ms,190,69.0,2.0
EmoCon002,0.6709362999999939,happy,neutral,16ms,193,72.0,2.0
EmoCon002,0.7343605000000935,sad,sad,16ms,194,73.0,2.0
EmoCon002,0.954095000000052,sad,sad,16ms,196,75.0,2.0
EmoCon002,1.3396586999997453,happy,sad,16ms,198,77.0,2.0
EmoCon002,0.6237237000000277,happy,happy,16ms,202,81.0,2.0
EmoCon002,1.0081612000003588,happy,happy,16ms,203,82.0,2.0
EmoCon002,0.5808524000003672,happy,happy,16ms,204,83.0,2.0
EmoCon002,0.8847654000001057,neutral,neutral,16ms,205,84.0,2.0
EmoCon002,0.6895872999998574,happy,happy,16ms,210,89.0,2.0
EmoCon002,0.5161788999998862,happy,happy,16ms,211,90.0,2.0
EmoCon002,0.9998441000002458,happy,sad,16ms,212,91.0,2.0
EmoCon002,0.8504421999996339,neutral,sad,16ms,215,94.0,2.0
EmoCon002,0.7309753999998065,happy,happy,16ms,222,101.0,2.0
EmoCon002,0.8678401000001941,happy,sad,16ms,223,102.0,2.0
EmoCon002,1.0251959000001991,neutral,neutral,16ms,224,103.0,2.0
EmoCon002,0.5171732000003431,happy,happy,16ms,225,104.0,2.0
EmoCon002,0.7653385000003254,neutral,neutral,16ms,226,105.0,2.0
EmoCon002,0.8912700999999288,sad,sad,16ms,227,106.0,2.0
EmoCon002,0.6030037000000448,happy,happy,16ms,228,107.0,2.0
EmoCon002,0.7392067000000679,happy,sad,16ms,229,108.0,2.0
EmoCon002,0.5975816000000123,happy,sad,16ms,230,109.0,2.0
EmoCon002,0.5630874000003132,happy,happy,16ms,231,110.0,2.0
EmoCon002,0.7322982999999113,happy,neutral,16ms,232,111.0,2.0
EmoCon002,1.077185399999962,neutral,sad,16ms,233,112.0,2.0
EmoCon002,1.004580100000112,neutral,sad,16ms,235,114.0,2.0
EmoCon002,0.6849966999998287,happy,happy,16ms,236,115.0,2.0
EmoCon002,1.0835971999999856,happy,neutral,16ms,237,116.0,2.0
EmoCon002,0.8698655000002873,neutral,neutral,16ms,238,117.0,2.0
EmoCon002,0.553945599999679,happy,sad,16ms,240,119.0,2.0
EmoCon002,1.3977548000000295,neutral,neutral,25ms,2,1.0,1.0
EmoCon002,1.2603423000000475,sad,sad,25ms,5,4.0,1.0
EmoCon002,0.6056467000000794,neutral,neutral,25ms,7,6.0,1.0
EmoCon002,1.1119727000000241,neutral,neutral,25ms,13,12.0,1.0
EmoCon002,0.704128800000035,happy,happy,25ms,19,18.0,1.0
EmoCon002,0.4863158999999087,happy,happy,25ms,21,20.0,1.0
EmoCon002,0.5776611999999659,sad,sad,25ms,22,21.0,1.0
EmoCon002,0.6925760000001446,neutral,neutral,25ms,31,30.0,1.0
EmoCon002,0.7430798000000323,neutral,neutral,25ms,35,34.0,1.0
EmoCon002,0.6338407000000643,happy,happy,25ms,36,35.0,1.0
EmoCon002,1.0812794999999369,sad,sad,25ms,37,36.0,1.0
EmoCon002,0.5319455999999718,neutral,neutral,25ms,40,39.0,1.0
EmoCon002,0.6626297000000251,sad,sad,25ms,46,45.0,1.0
EmoCon002,1.1087735000000976,neutral,neutral,25ms,47,46.0,1.0
EmoCon002,0.8286656000000221,neutral,neutral,25ms,49,48.0,1.0
EmoCon002,0.6559861000000637,neutral,neutral,25ms,50,49.0,1.0
EmoCon002,0.9213801999999304,neutral,neutral,25ms,52,51.0,1.0
EmoCon002,0.5756569999998646,neutral,neutral,25ms,53,52.0,1.0
EmoCon002,0.8662724000000708,happy,happy,25ms,54,53.0,1.0
EmoCon002,0.605699500000128,neutral,neutral,25ms,56,55.0,1.0
EmoCon002,0.7791408000000501,neutral,neutral,25ms,58,57.0,1.0
EmoCon002,0.6931870999999319,neutral,neutral,25ms,59,58.0,1.0
EmoCon002,0.8943484999999782,sad,sad,25ms,61,60.0,1.0
EmoCon002,0.5660456000000522,happy,happy,25ms,67,66.0,1.0
EmoCon002,0.6307636999999886,happy,happy,25ms,73,72.0,1.0
EmoCon002,0.5825485999998818,sad,sad,25ms,74,73.0,1.0
EmoCon002,0.6259333000000424,sad,sad,25ms,76,75.0,1.0
EmoCon002,0.7816012000000683,sad,neutral,25ms,77,76.0,1.0
EmoCon002,0.8062264000000141,neutral,neutral,25ms,87,86.0,1.0
EmoCon002,0.5219403999999486,happy,happy,25ms,88,87.0,1.0
EmoCon002,0.7099439000000984,neutral,sad,25ms,89,88.0,1.0
EmoCon002,1.1886715999999071,sad,neutral,25ms,92,91.0,1.0
EmoCon002,0.6387114999999994,sad,sad,25ms,95,94.0,1.0
EmoCon002,0.8033756999998332,neutral,neutral,25ms,97,96.0,1.0
EmoCon002,1.0274880999998004,sad,sad,141ms,17,16.0,1.0
EmoCon002,0.33342439999978524,happy,happy,141ms,25,24.0,1.0
EmoCon002,0.5087929999999687,happy,happy,141ms,27,26.0,1.0
EmoCon002,0.8495442999999341,sad,sad,141ms,39,38.0,1.0
EmoCon002,0.7668888000000607,sad,sad,141ms,41,40.0,1.0
EmoCon002,0.3972077999999328,happy,happy,141ms,43,42.0,1.0
EmoCon002,1.0086679000000909,sad,sad,141ms,44,43.0,1.0
EmoCon002,0.4113724999999704,happy,happy,141ms,45,44.0,1.0
EmoCon002,0.3891871000000721,happy,happy,141ms,51,50.0,1.0
EmoCon002,0.3786360999999943,happy,happy,141ms,57,56.0,1.0
EmoCon002,0.5508285000000797,happy,happy,141ms,63,62.0,1.0
EmoCon002,0.7090679999998883,sad,sad,141ms,70,69.0,1.0
EmoCon002,0.4874718000000939,happy,happy,141ms,71,70.0,1.0
EmoCon002,0.6349555000001601,sad,sad,141ms,80,79.0,1.0
EmoCon002,1.2230125999999473,sad,sad,141ms,81,80.0,1.0
EmoCon002,0.4741355999999541,neutral,sad,141ms,90,89.0,1.0
EmoCon002,0.6386185000001205,sad,sad,141ms,93,92.0,1.0
EmoCon002,1.0700480999998945,sad,sad,141ms,100,99.0,1.0
EmoCon002,0.3898477999998704,happy,happy,141ms,106,105.0,1.0
EmoCon002,0.8009041000000252,sad,sad,141ms,109,108.0,1.0
EmoCon002,0.7655272000001787,sad,sad,141ms,111,110.0,1.0
EmoCon002,0.7955575999999382,sad,sad,141ms,121,0.0,2.0
EmoCon002,0.9245106999999281,sad,sad,141ms,129,8.0,2.0
EmoCon002,0.3676138000000719,happy,happy,141ms,134,13.0,2.0
EmoCon002,1.2476246000001083,sad,sad,141ms,139,18.0,2.0
EmoCon002,0.616438799999969,happy,happy,141ms,140,19.0,2.0
EmoCon002,1.4162690999999086,sad,sad,141ms,143,22.0,2.0
EmoCon002,0.4125878999998349,happy,happy,141ms,146,25.0,2.0
EmoCon002,0.35660680000000866,happy,happy,141ms,151,30.0,2.0
EmoCon002,0.6993102999999792,happy,happy,141ms,156,35.0,2.0
EmoCon002,0.3753301000001557,happy,happy,141ms,160,39.0,2.0
EmoCon002,0.4471350999997412,happy,happy,141ms,163,42.0,2.0
EmoCon002,0.3826903999997739,neutral,sad,141ms,165,44.0,2.0
EmoCon002,0.3571955999996135,happy,happy,141ms,173,52.0,2.0
EmoCon002,0.296604600000137,happy,happy,141ms,174,53.0,2.0
EmoCon002,0.2973253000000113,happy,happy,141ms,175,54.0,2.0
EmoCon002,0.2930634999997892,happy,happy,141ms,176,55.0,2.0
EmoCon002,0.4966887999999017,sad,sad,141ms,178,57.0,2.0
EmoCon002,1.0725862999997844,sad,sad,141ms,184,63.0,2.0
EmoCon002,0.6487067999996725,sad,sad,141ms,187,66.0,2.0
EmoCon002,0.6873507000000245,happy,happy,141ms,200,79.0,2.0
EmoCon002,0.3203696000000491,happy,happy,141ms,207,86.0,2.0
EmoCon002,0.5461999999997715,sad,sad,141ms,208,87.0,2.0
EmoCon002,0.4735569999998006,sad,sad,141ms,209,88.0,2.0
EmoCon002,0.5227963000002092,sad,sad,141ms,213,92.0,2.0
EmoCon002,0.4854307000000517,happy,happy,141ms,217,96.0,2.0
EmoCon002,0.6786179000000631,sad,sad,141ms,218,97.0,2.0
EmoCon002,0.6082370999997693,sad,sad,141ms,219,98.0,2.0
EmoCon002,0.5162279000001035,sad,sad,141ms,243,2.0,3.0
EmoCon002,0.7148784000000887,sad,sad,141ms,245,4.0,3.0
EmoCon002,0.8831967999999506,sad,sad,141ms,255,14.0,3.0
EmoCon002,0.4966408999998748,sad,sad,141ms,257,16.0,3.0
EmoCon002,0.6376152000002548,sad,sad,141ms,267,26.0,3.0
EmoCon002,0.8787870000001021,sad,sad,141ms,277,36.0,3.0
EmoCon002,0.6586610999997902,happy,happy,141ms,278,37.0,3.0
EmoCon002,0.8449639999998908,sad,sad,141ms,283,42.0,3.0
EmoCon002,0.4151941000000079,happy,happy,141ms,284,43.0,3.0
EmoCon002,0.6595145999999659,sad,sad,141ms,286,45.0,3.0
EmoCon002,0.7636300999997729,sad,sad,141ms,289,48.0,3.0
EmoCon002,0.5013617999998132,sad,sad,141ms,293,52.0,3.0
EmoCon002,0.4178445000002285,happy,happy,141ms,296,55.0,3.0
EmoCon002,0.4376417999997102,sad,sad,141ms,297,56.0,3.0
EmoCon002,0.4070934999999736,happy,happy,141ms,300,59.0,3.0
EmoCon002,1.188658099999884,sad,sad,141ms,301,60.0,3.0
EmoCon002,0.4498598999998649,happy,happy,141ms,305,64.0,3.0
EmoCon002,0.5892134999999143,sad,sad,141ms,307,66.0,3.0
EmoCon002,0.8478099999997539,sad,sad,141ms,313,72.0,3.0
EmoCon002,0.44436899999982415,happy,happy,141ms,322,81.0,3.0
EmoCon002,0.5796000000000276,happy,happy,141ms,324,83.0,3.0
EmoCon002,0.5304080999999314,sad,sad,141ms,329,88.0,3.0
EmoCon002,0.41977339999994,sad,sad,141ms,332,91.0,3.0
EmoCon002,0.383744299999762,happy,happy,141ms,339,98.0,3.0
EmoCon002,0.5175209999997605,sad,sad,141ms,340,99.0,3.0
EmoCon002,0.6045641000000614,sad,sad,141ms,341,100.0,3.0
EmoCon002,0.4506270000001678,happy,happy,141ms,344,103.0,3.0
EmoCon002,0.3606332999997903,happy,happy,141ms,346,105.0,3.0
EmoCon002,0.4573494999999639,happy,happy,141ms,353,112.0,3.0
EmoCon002,0.6330831000000217,sad,sad,141ms,354,113.0,3.0
EmoCon002,0.8826545000001715,neutral,neutral,8ms,246,5.0,3.0
EmoCon002,0.615014599999995,neutral,neutral,8ms,247,6.0,3.0
EmoCon002,0.546028600000227,neutral,neutral,8ms,248,7.0,3.0
EmoCon002,1.1777773000003435,happy,neutral,8ms,253,12.0,3.0
EmoCon002,1.2551963999999316,sad,happy,8ms,256,15.0,3.0
EmoCon002,0.8642994000001636,sad,sad,8ms,259,18.0,3.0
EmoCon002,0.8107829000000493,neutral,neutral,8ms,261,20.0,3.0
EmoCon002,0.8897148999999445,neutral,sad,8ms,262,21.0,3.0
EmoCon002,0.6826510000000781,happy,happy,8ms,264,23.0,3.0
EmoCon002,0.8132037999998829,happy,happy,8ms,266,25.0,3.0
EmoCon002,1.0264400000000933,neutral,neutral,8ms,268,27.0,3.0
EmoCon002,0.6176117999998496,neutral,happy,8ms,269,28.0,3.0
EmoCon002,0.7040600999998787,neutral,neutral,8ms,270,29.0,3.0
EmoCon002,0.8327222999996593,neutral,sad,8ms,272,31.0,3.0
EmoCon002,0.6284141999999521,neutral,sad,8ms,273,32.0,3.0
EmoCon002,0.9285878000000594,sad,sad,8ms,274,33.0,3.0
EmoCon002,0.6657230999999229,sad,neutral,8ms,275,34.0,3.0
EmoCon002,1.0260424999996758,sad,neutral,8ms,279,38.0,3.0
EmoCon002,1.11864659999992,happy,neutral,8ms,281,40.0,3.0
EmoCon002,0.6917511999999988,happy,happy,8ms,282,41.0,3.0
EmoCon002,0.7826614000000518,happy,happy,8ms,285,44.0,3.0
EmoCon002,0.7320859999999811,neutral,sad,8ms,288,47.0,3.0
EmoCon002,0.7864205999999285,sad,happy,8ms,290,49.0,3.0
EmoCon002,0.7164372000002004,neutral,happy,8ms,292,51.0,3.0
EmoCon002,0.6678735999998935,sad,neutral,8ms,294,53.0,3.0
EmoCon002,0.6146929000001364,sad,sad,8ms,295,54.0,3.0
EmoCon002,0.6431075000000419,neutral,happy,8ms,299,58.0,3.0
EmoCon002,0.7883995999995932,sad,happy,8ms,302,61.0,3.0
EmoCon002,0.8097387999996499,neutral,sad,8ms,306,65.0,3.0
EmoCon002,0.8566365000001497,sad,neutral,8ms,309,68.0,3.0
EmoCon002,1.1179508999998689,neutral,neutral,8ms,310,69.0,3.0
EmoCon002,0.5882947000000058,happy,neutral,8ms,312,71.0,3.0
EmoCon002,0.6003872000001138,happy,happy,8ms,315,74.0,3.0
EmoCon002,0.6489840999997796,neutral,neutral,8ms,316,75.0,3.0
EmoCon002,0.6435566999998628,happy,happy,8ms,317,76.0,3.0
EmoCon002,0.5777088999998341,happy,happy,8ms,318,77.0,3.0
EmoCon002,0.8039119999998547,sad,happy,8ms,320,79.0,3.0
EmoCon002,0.4771252000000459,neutral,sad,8ms,321,80.0,3.0
EmoCon002,0.6437501000000339,happy,happy,8ms,326,85.0,3.0
EmoCon002,0.5289366000001792,happy,sad,8ms,327,86.0,3.0
EmoCon002,0.5719555000000582,happy,sad,8ms,328,87.0,3.0
EmoCon002,0.8875441000000137,sad,sad,8ms,330,89.0,3.0
EmoCon002,0.5880445999996482,sad,happy,8ms,333,92.0,3.0
EmoCon002,0.7805204999999659,neutral,neutral,8ms,334,93.0,3.0
EmoCon002,0.6678883999998106,neutral,sad,8ms,336,95.0,3.0
EmoCon002,0.6429315000000315,neutral,sad,8ms,337,96.0,3.0
EmoCon002,0.8718905999999151,neutral,neutral,8ms,338,97.0,3.0
EmoCon002,0.9433671000001596,neutral,sad,8ms,343,102.0,3.0
EmoCon002,0.5141664999996465,happy,neutral,8ms,345,104.0,3.0
EmoCon002,0.6356513999999152,happy,neutral,8ms,347,106.0,3.0
EmoCon002,0.498980500000016,happy,sad,8ms,348,107.0,3.0
EmoCon002,0.5364104000000225,neutral,sad,8ms,350,109.0,3.0
EmoCon002,0.5076576000001296,neutral,neutral,8ms,351,110.0,3.0
EmoCon002,0.5423135000000912,neutral,happy,8ms,352,111.0,3.0
EmoCon002,1.0655569999998988,sad,neutral,8ms,355,114.0,3.0
EmoCon002,0.5850673000004463,sad,sad,8ms,356,115.0,3.0
EmoCon002,0.4669337000000269,sad,sad,8ms,357,116.0,3.0
EmoCon002,0.5200399999998808,sad,sad,8ms,358,117.0,3.0
EmoCon002,0.5752435999997942,neutral,happy,8ms,360,119.0,3.0
EmoCon002,0.6474788000000444,sad,sad,16ms,124,3.0,2.0
EmoCon002,0.6569954000001417,neutral,neutral,16ms,126,5.0,2.0
EmoCon002,0.9998219000001428,sad,sad,16ms,127,6.0,2.0
EmoCon002,0.7258332000001246,neutral,neutral,16ms,128,7.0,2.0
EmoCon002,1.2279661999998552,neutral,sad,16ms,130,9.0,2.0
EmoCon002,0.7703196000002208,neutral,neutral,16ms,132,11.0,2.0
EmoCon002,0.7671298999998726,happy,sad,16ms,133,12.0,2.0
EmoCon002,0.5122592000000168,happy,happy,16ms,135,14.0,2.0
EmoCon002,1.3863940999999609,happy,neutral,16ms,136,15.0,2.0
EmoCon002,0.8297291999999743,happy,happy,16ms,141,20.0,2.0
EmoCon002,0.5963216000000102,happy,happy,16ms,142,21.0,2.0
EmoCon002,0.5614201999997022,happy,happy,16ms,148,27.0,2.0
EmoCon002,0.9004304000000047,happy,sad,16ms,149,28.0,2.0
EmoCon002,0.8109713000003467,happy,sad,16ms,154,33.0,2.0
EmoCon002,0.6669394000000466,happy,neutral,16ms,158,37.0,2.0
EmoCon002,0.5341640999999981,happy,happy,16ms,161,40.0,2.0
EmoCon002,0.6376906999998937,neutral,neutral,16ms,162,41.0,2.0
EmoCon002,0.7981557999996767,happy,happy,16ms,168,47.0,2.0
EmoCon002,0.7626408000000993,neutral,neutral,16ms,169,48.0,2.0
EmoCon002,0.8174085999999079,happy,happy,16ms,170,49.0,2.0
EmoCon002,0.5876726999999846,happy,happy,16ms,171,50.0,2.0
EmoCon002,0.8357014999996863,happy,neutral,16ms,172,51.0,2.0
EmoCon002,1.2669986999999308,neutral,neutral,16ms,179,58.0,2.0
EmoCon002,0.8839497999997548,sad,sad,16ms,182,61.0,2.0
EmoCon002,0.731354100000317,neutral,happy,16ms,185,64.0,2.0
EmoCon002,1.1021236000001409,happy,happy,16ms,188,67.0,2.0
EmoCon002,1.0763354999999135,neutral,neutral,16ms,190,69.0,2.0
EmoCon002,0.6709362999999939,happy,neutral,16ms,193,72.0,2.0
EmoCon002,0.7343605000000935,sad,sad,16ms,194,73.0,2.0
EmoCon002,0.954095000000052,sad,sad,16ms,196,75.0,2.0
EmoCon002,1.3396586999997453,happy,sad,16ms,198,77.0,2.0
EmoCon002,0.6237237000000277,happy,happy,16ms,202,81.0,2.0
EmoCon002,1.0081612000003588,happy,happy,16ms,203,82.0,2.0
EmoCon002,0.5808524000003672,happy,happy,16ms,204,83.0,2.0
EmoCon002,0.8847654000001057,neutral,neutral,16ms,205,84.0,2.0
EmoCon002,0.6895872999998574,happy,happy,16ms,210,89.0,2.0
EmoCon002,0.5161788999998862,happy,happy,16ms,211,90.0,2.0
EmoCon002,0.9998441000002458,happy,sad,16ms,212,91.0,2.0
EmoCon002,0.8504421999996339,neutral,sad,16ms,215,94.0,2.0
EmoCon002,0.7309753999998065,happy,happy,16ms,222,101.0,2.0
EmoCon002,0.8678401000001941,happy,sad,16ms,223,102.0,2.0
EmoCon002,1.0251959000001991,neutral,neutral,16ms,224,103.0,2.0
EmoCon002,0.5171732000003431,happy,happy,16ms,225,104.0,2.0
EmoCon002,0.7653385000003254,neutral,neutral,16ms,226,105.0,2.0
EmoCon002,0.8912700999999288,sad,sad,16ms,227,106.0,2.0
EmoCon002,0.6030037000000448,happy,happy,16ms,228,107.0,2.0
EmoCon002,0.7392067000000679,happy,sad,16ms,229,108.0,2.0
EmoCon002,0.5975816000000123,happy,sad,16ms,230,109.0,2.0
EmoCon002,0.5630874000003132,happy,happy,16ms,231,110.0,2.0
EmoCon002,0.7322982999999113,happy,neutral,16ms,232,111.0,2.0
EmoCon002,1.077185399999962,neutral,sad,16ms,233,112.0,2.0
EmoCon002,1.004580100000112,neutral,sad,16ms,235,114.0,2.0
EmoCon002,0.6849966999998287,happy,happy,16ms,236,115.0,2.0
EmoCon002,1.0835971999999856,happy,neutral,16ms,237,116.0,2.0
EmoCon002,0.8698655000002873,neutral,neutral,16ms,238,117.0,2.0
EmoCon002,0.553945599999679,happy,sad,16ms,240,119.0,2.0
EmoCon002,1.3977548000000295,neutral,neutral,25ms,2,1.0,1.0
EmoCon002,1.2603423000000475,sad,sad,25ms,5,4.0,1.0
EmoCon002,0.6056467000000794,neutral,neutral,25ms,7,6.0,1.0
EmoCon002,1.1119727000000241,neutral,neutral,25ms,13,12.0,1.0
EmoCon002,0.704128800000035,happy,happy,25ms,19,18.0,1.0
EmoCon002,0.4863158999999087,happy,happy,25ms,21,20.0,1.0
EmoCon002,0.5776611999999659,sad,sad,25ms,22,21.0,1.0
EmoCon002,0.6925760000001446,neutral,neutral,25ms,31,30.0,1.0
EmoCon002,0.7430798000000323,neutral,neutral,25ms,35,34.0,1.0
EmoCon002,0.6338407000000643,happy,happy,25ms,36,35.0,1.0
EmoCon002,1.0812794999999369,sad,sad,25ms,37,36.0,1.0
EmoCon002,0.5319455999999718,neutral,neutral,25ms,40,39.0,1.0
EmoCon002,0.6626297000000251,sad,sad,25ms,46,45.0,1.0
EmoCon002,1.1087735000000976,neutral,neutral,25ms,47,46.0,1.0
EmoCon002,0.8286656000000221,neutral,neutral,25ms,49,48.0,1.0
EmoCon002,0.6559861000000637,neutral,neutral,25ms,50,49.0,1.0
EmoCon002,0.9213801999999304,neutral,neutral,25ms,52,51.0,1.0
EmoCon002,0.5756569999998646,neutral,neutral,25ms,53,52.0,1.0
EmoCon002,0.8662724000000708,happy,happy,25ms,54,53.0,1.0
EmoCon002,0.605699500000128,neutral,neutral,25ms,56,55.0,1.0
EmoCon002,0.7791408000000501,neutral,neutral,25ms,58,57.0,1.0
EmoCon002,0.6931870999999319,neutral,neutral,25ms,59,58.0,1.0
EmoCon002,0.8943484999999782,sad,sad,25ms,61,60.0,1.0
EmoCon002,0.5660456000000522,happy,happy,25ms,67,66.0,1.0
EmoCon002,0.6307636999999886,happy,happy,25ms,73,72.0,1.0
EmoCon002,0.5825485999998818,sad,sad,25ms,74,73.0,1.0
EmoCon002,0.6259333000000424,sad,sad,25ms,76,75.0,1.0
EmoCon002,0.7816012000000683,sad,neutral,25ms,77,76.0,1.0
EmoCon002,0.8062264000000141,neutral,neutral,25ms,87,86.0,1.0
EmoCon002,0.5219403999999486,happy,happy,25ms,88,87.0,1.0
EmoCon002,0.7099439000000984,neutral,sad,25ms,89,88.0,1.0
EmoCon002,1.1886715999999071,sad,neutral,25ms,92,91.0,1.0
EmoCon002,0.6387114999999994,sad,sad,25ms,95,94.0,1.0
EmoCon002,0.8033756999998332,neutral,neutral,25ms,97,96.0,1.0
EmoCon002,1.0274880999998004,sad,sad,141ms,17,16.0,1.0
EmoCon002,0.33342439999978524,happy,happy,141ms,25,24.0,1.0
EmoCon002,0.5087929999999687,happy,happy,141ms,27,26.0,1.0
EmoCon002,0.8495442999999341,sad,sad,141ms,39,38.0,1.0
EmoCon002,0.7668888000000607,sad,sad,141ms,41,40.0,1.0
EmoCon002,0.3972077999999328,happy,happy,141ms,43,42.0,1.0
EmoCon002,1.0086679000000909,sad,sad,141ms,44,43.0,1.0
EmoCon002,0.4113724999999704,happy,happy,141ms,45,44.0,1.0
EmoCon002,0.3891871000000721,happy,happy,141ms,51,50.0,1.0
EmoCon002,0.3786360999999943,happy,happy,141ms,57,56.0,1.0
EmoCon002,0.5508285000000797,happy,happy,141ms,63,62.0,1.0
EmoCon002,0.7090679999998883,sad,sad,141ms,70,69.0,1.0
EmoCon002,0.4874718000000939,happy,happy,141ms,71,70.0,1.0
EmoCon002,0.6349555000001601,sad,sad,141ms,80,79.0,1.0
EmoCon002,1.2230125999999473,sad,sad,141ms,81,80.0,1.0
EmoCon002,0.4741355999999541,neutral,sad,141ms,90,89.0,1.0
EmoCon002,0.6386185000001205,sad,sad,141ms,93,92.0,1.0
EmoCon002,1.0700480999998945,sad,sad,141ms,100,99.0,1.0
EmoCon002,0.3898477999998704,happy,happy,141ms,106,105.0,1.0
EmoCon002,0.8009041000000252,sad,sad,141ms,109,108.0,1.0
EmoCon002,0.7655272000001787,sad,sad,141ms,111,110.0,1.0
EmoCon002,0.7955575999999382,sad,sad,141ms,121,0.0,2.0
EmoCon002,0.9245106999999281,sad,sad,141ms,129,8.0,2.0
EmoCon002,0.3676138000000719,happy,happy,141ms,134,13.0,2.0
EmoCon002,1.2476246000001083,sad,sad,141ms,139,18.0,2.0
EmoCon002,0.616438799999969,happy,happy,141ms,140,19.0,2.0
EmoCon002,1.4162690999999086,sad,sad,141ms,143,22.0,2.0
EmoCon002,0.4125878999998349,happy,happy,141ms,146,25.0,2.0
EmoCon002,0.35660680000000866,happy,happy,141ms,151,30.0,2.0
EmoCon002,0.6993102999999792,happy,happy,141ms,156,35.0,2.0
EmoCon002,0.3753301000001557,happy,happy,141ms,160,39.0,2.0
EmoCon002,0.4471350999997412,happy,happy,141ms,163,42.0,2.0
EmoCon002,0.3826903999997739,neutral,sad,141ms,165,44.0,2.0
EmoCon002,0.3571955999996135,happy,happy,141ms,173,52.0,2.0
EmoCon002,0.296604600000137,happy,happy,141ms,174,53.0,2.0
EmoCon002,0.2973253000000113,happy,happy,141ms,175,54.0,2.0
EmoCon002,0.2930634999997892,happy,happy,141ms,176,55.0,2.0
EmoCon002,0.4966887999999017,sad,sad,141ms,178,57.0,2.0
EmoCon002,1.0725862999997844,sad,sad,141ms,184,63.0,2.0
EmoCon002,0.6487067999996725,sad,sad,141ms,187,66.0,2.0
EmoCon002,0.6873507000000245,happy,happy,141ms,200,79.0,2.0
EmoCon002,0.3203696000000491,happy,happy,141ms,207,86.0,2.0
EmoCon002,0.5461999999997715,sad,sad,141ms,208,87.0,2.0
EmoCon002,0.4735569999998006,sad,sad,141ms,209,88.0,2.0
EmoCon002,0.5227963000002092,sad,sad,141ms,213,92.0,2.0
EmoCon002,0.4854307000000517,happy,happy,141ms,217,96.0,2.0
EmoCon002,0.6786179000000631,sad,sad,141ms,218,97.0,2.0
EmoCon002,0.6082370999997693,sad,sad,141ms,219,98.0,2.0
EmoCon002,0.5162279000001035,sad,sad,141ms,243,2.0,3.0
EmoCon002,0.7148784000000887,sad,sad,141ms,245,4.0,3.0
EmoCon002,0.8831967999999506,sad,sad,141ms,255,14.0,3.0
EmoCon002,0.4966408999998748,sad,sad,141ms,257,16.0,3.0
EmoCon002,0.6376152000002548,sad,sad,141ms,267,26.0,3.0
EmoCon002,0.8787870000001021,sad,sad,141ms,277,36.0,3.0
EmoCon002,0.6586610999997902,happy,happy,141ms,278,37.0,3.0
EmoCon002,0.8449639999998908,sad,sad,141ms,283,42.0,3.0
EmoCon002,0.4151941000000079,happy,happy,141ms,284,43.0,3.0
EmoCon002,0.6595145999999659,sad,sad,141ms,286,45.0,3.0
EmoCon002,0.7636300999997729,sad,sad,141ms,289,48.0,3.0
EmoCon002,0.5013617999998132,sad,sad,141ms,293,52.0,3.0
EmoCon002,0.4178445000002285,happy,happy,141ms,296,55.0,3.0
EmoCon002,0.4376417999997102,sad,sad,141ms,297,56.0,3.0
EmoCon002,0.4070934999999736,happy,happy,141ms,300,59.0,3.0
EmoCon002,1.188658099999884,sad,sad,141ms,301,60.0,3.0
EmoCon002,0.4498598999998649,happy,happy,141ms,305,64.0,3.0
EmoCon002,0.5892134999999143,sad,sad,141ms,307,66.0,3.0
EmoCon002,0.8478099999997539,sad,sad,141ms,313,72.0,3.0
EmoCon002,0.44436899999982415,happy,happy,141ms,322,81.0,3.0
EmoCon002,0.5796000000000276,happy,happy,141ms,324,83.0,3.0
EmoCon002,0.5304080999999314,sad,sad,141ms,329,88.0,3.0
EmoCon002,0.41977339999994,sad,sad,141ms,332,91.0,3.0
EmoCon002,0.383744299999762,happy,happy,141ms,339,98.0,3.0
EmoCon002,0.5175209999997605,sad,sad,141ms,340,99.0,3.0
EmoCon002,0.6045641000000614,sad,sad,141ms,341,100.0,3.0
EmoCon002,0.4506270000001678,happy,happy,141ms,344,103.0,3.0
EmoCon002,0.3606332999997903,happy,happy,141ms,346,105.0,3.0
EmoCon002,0.4573494999999639,happy,happy,141ms,353,112.0,3.0
EmoCon002,0.6330831000000217,sad,sad,141ms,354,113.0,3.0
EMOCONPILOT001,1.134738799999468,neutral,happy,8ms,242,1.0,3.0
EMOCONPILOT001,1.0835426999992706,neutral,happy,8ms,244,3.0,3.0
EMOCONPILOT001,0.5870462999992014,neutral,happy,8ms,250,9.0,3.0
EMOCONPILOT001,0.6307665000003908,neutral,neutral,8ms,251,10.0,3.0
EMOCONPILOT001,0.6896104999996169,neutral,neutral,8ms,252,11.0,3.0
EMOCONPILOT001,0.5373116999999183,neutral,neutral,8ms,253,12.0,3.0
EMOCONPILOT001,0.871362500000032,neutral,sad,8ms,257,16.0,3.0
EMOCONPILOT001,0.6187184999998863,neutral,neutral,8ms,258,17.0,3.0
EMOCONPILOT001,0.7079127000006338,neutral,neutral,8ms,260,19.0,3.0
EMOCONPILOT001,1.0044133999999758,happy,happy,8ms,263,22.0,3.0
EMOCONPILOT001,0.5317613999995956,neutral,neutral,8ms,265,24.0,3.0
EMOCONPILOT001,0.5643801000005624,neutral,sad,8ms,267,26.0,3.0
EMOCONPILOT001,0.5869757000000391,neutral,neutral,8ms,271,30.0,3.0
EMOCONPILOT001,0.4604927000000316,neutral,sad,8ms,272,31.0,3.0
EMOCONPILOT001,0.6163252000005741,neutral,sad,8ms,273,32.0,3.0
EMOCONPILOT001,0.4605056999998851,neutral,sad,8ms,274,33.0,3.0
EMOCONPILOT001,0.5787503000001379,neutral,happy,8ms,278,37.0,3.0
EMOCONPILOT001,0.4896832000003997,neutral,neutral,8ms,280,39.0,3.0
EMOCONPILOT001,0.5046286999995573,neutral,neutral,8ms,281,40.0,3.0
EMOCONPILOT001,0.4976135000006252,neutral,happy,8ms,282,41.0,3.0
EMOCONPILOT001,0.3934013999996751,neutral,sad,8ms,283,42.0,3.0
EMOCONPILOT001,0.31264790000022913,neutral,happy,8ms,284,43.0,3.0
EMOCONPILOT001,0.4442724000000453,neutral,happy,8ms,285,44.0,3.0
EMOCONPILOT001,0.5655175000001691,neutral,neutral,8ms,291,50.0,3.0
EMOCONPILOT001,0.5010603999999148,neutral,sad,8ms,293,52.0,3.0
EMOCONPILOT001,0.5106335999998919,neutral,sad,8ms,295,54.0,3.0
EMOCONPILOT001,0.4321880999996209,neutral,sad,8ms,297,56.0,3.0
EMOCONPILOT001,0.9517120999998951,happy,happy,8ms,300,59.0,3.0
EMOCONPILOT001,0.5211985999994795,neutral,neutral,8ms,304,63.0,3.0
EMOCONPILOT001,0.4405246000005718,neutral,happy,8ms,305,64.0,3.0
EMOCONPILOT001,0.5106163000000379,neutral,sad,8ms,306,65.0,3.0
EMOCONPILOT001,0.4703970000000482,neutral,sad,8ms,307,66.0,3.0
EMOCONPILOT001,0.4376720999998725,neutral,sad,8ms,308,67.0,3.0
EMOCONPILOT001,0.4796525000001566,neutral,happy,8ms,311,70.0,3.0
EMOCONPILOT001,0.5073115000004691,neutral,sad,8ms,313,72.0,3.0
EMOCONPILOT001,0.5078478000004907,neutral,neutral,8ms,314,73.0,3.0
EMOCONPILOT001,0.8385932999999568,neutral,happy,8ms,315,74.0,3.0
EMOCONPILOT001,0.5630426000006992,neutral,neutral,8ms,316,75.0,3.0
EMOCONPILOT001,0.5867437999995673,neutral,happy,8ms,317,76.0,3.0
EMOCONPILOT001,0.5577946999992491,neutral,happy,8ms,318,77.0,3.0
EMOCONPILOT001,0.6683524999998554,neutral,happy,8ms,324,83.0,3.0
EMOCONPILOT001,0.5172026000000187,neutral,happy,8ms,325,84.0,3.0
EMOCONPILOT001,0.6151020999996035,neutral,happy,8ms,326,85.0,3.0
EMOCONPILOT001,0.5730320000002393,neutral,sad,8ms,330,89.0,3.0
EMOCONPILOT001,0.5121945000000778,neutral,neutral,8ms,338,97.0,3.0
EMOCONPILOT001,1.0438668000006146,neutral,happy,8ms,339,98.0,3.0
EMOCONPILOT001,0.3737673999994513,neutral,sad,8ms,340,99.0,3.0
EMOCONPILOT001,0.29967450000003737,neutral,sad,8ms,341,100.0,3.0
EMOCONPILOT001,0.9580472999996346,neutral,neutral,8ms,342,101.0,3.0
EMOCONPILOT001,0.6490276000004087,neutral,happy,8ms,344,103.0,3.0
EMOCONPILOT001,0.5889777000002141,neutral,sad,8ms,348,107.0,3.0
EMOCONPILOT001,0.6471085000002859,neutral,neutral,8ms,349,108.0,3.0
EMOCONPILOT001,1.2301221999996417,neutral,sad,8ms,350,109.0,3.0
EMOCONPILOT001,0.5851948999998058,neutral,neutral,8ms,351,110.0,3.0
EMOCONPILOT001,0.7259723000006488,neutral,happy,8ms,352,111.0,3.0
EMOCONPILOT001,0.5296955999992861,neutral,neutral,8ms,355,114.0,3.0
EMOCONPILOT001,0.4633412000002864,neutral,sad,8ms,358,117.0,3.0
EMOCONPILOT001,0.7462411999995311,neutral,sad,16ms,121,0.0,2.0
EMOCONPILOT001,0.6338841000006141,neutral,sad,16ms,123,2.0,2.0
EMOCONPILOT001,0.7444500000001426,neutral,neutral,16ms,125,4.0,2.0
EMOCONPILOT001,0.6119503999998415,happy,sad,16ms,127,6.0,2.0
EMOCONPILOT001,0.5813605000003008,happy,sad,16ms,129,8.0,2.0
EMOCONPILOT001,0.7925863999998909,neutral,sad,16ms,130,9.0,2.0
EMOCONPILOT001,0.7522322000004351,happy,happy,16ms,134,13.0,2.0
EMOCONPILOT001,0.5303518999999142,neutral,neutral,16ms,137,16.0,2.0
EMOCONPILOT001,0.7031016000000818,happy,happy,16ms,138,17.0,2.0
EMOCONPILOT001,1.2923461000000316,neutral,sad,16ms,139,18.0,2.0
EMOCONPILOT001,0.6477113000000827,happy,happy,16ms,141,20.0,2.0
EMOCONPILOT001,0.5446550000006027,neutral,neutral,16ms,145,24.0,2.0
EMOCONPILOT001,0.5154738000001089,happy,happy,16ms,146,25.0,2.0
EMOCONPILOT001,0.5330220999994708,neutral,neutral,16ms,147,26.0,2.0
EMOCONPILOT001,0.7286146000005829,happy,sad,16ms,149,28.0,2.0
EMOCONPILOT001,0.6302329999998619,happy,happy,16ms,151,30.0,2.0
EMOCONPILOT001,0.4864721000003556,happy,happy,16ms,152,31.0,2.0
EMOCONPILOT001,0.95358589999978,happy,neutral,16ms,153,32.0,2.0
EMOCONPILOT001,0.5977707000001828,neutral,sad,16ms,154,33.0,2.0
EMOCONPILOT001,0.5020002999999633,neutral,neutral,16ms,155,34.0,2.0
EMOCONPILOT001,0.7311281000002054,neutral,neutral,16ms,157,36.0,2.0
EMOCONPILOT001,1.1226925999999366,neutral,neutral,16ms,158,37.0,2.0
EMOCONPILOT001,0.6064880000003541,happy,happy,16ms,160,39.0,2.0
EMOCONPILOT001,0.5572462000000087,happy,happy,16ms,161,40.0,2.0
EMOCONPILOT001,0.6445757999999842,neutral,neutral,16ms,166,45.0,2.0
EMOCONPILOT001,0.461127999999917,neutral,neutral,16ms,167,46.0,2.0
EMOCONPILOT001,0.9300782999998772,neutral,neutral,16ms,169,48.0,2.0
EMOCONPILOT001,0.4466740999996546,happy,happy,16ms,170,49.0,2.0
EMOCONPILOT001,0.5991702999999688,happy,happy,16ms,171,50.0,2.0
EMOCONPILOT001,0.6377069999998639,happy,happy,16ms,173,52.0,2.0
EMOCONPILOT001,0.7079100000000835,happy,happy,16ms,176,55.0,2.0
EMOCONPILOT001,0.4852508000003581,neutral,neutral,16ms,177,56.0,2.0
EMOCONPILOT001,0.6263161000006221,neutral,neutral,16ms,179,58.0,2.0
EMOCONPILOT001,0.739599100000305,sad,sad,16ms,182,61.0,2.0
EMOCONPILOT001,0.5787345999997342,neutral,neutral,16ms,183,62.0,2.0
EMOCONPILOT001,0.8302939000004699,happy,happy,16ms,185,64.0,2.0
EMOCONPILOT001,0.6302546999995684,neutral,neutral,16ms,186,65.0,2.0
EMOCONPILOT001,0.6560474000007162,happy,happy,16ms,188,67.0,2.0
EMOCONPILOT001,0.6495441000006394,neutral,sad,16ms,189,68.0,2.0
EMOCONPILOT001,0.7189699000000473,neutral,sad,16ms,191,70.0,2.0
EMOCONPILOT001,0.7817813999999998,neutral,neutral,16ms,195,74.0,2.0
EMOCONPILOT001,0.5126555000006192,neutral,neutral,16ms,197,76.0,2.0
EMOCONPILOT001,0.5243388999997478,neutral,neutral,16ms,201,80.0,2.0
EMOCONPILOT001,0.5963570000003529,happy,happy,16ms,202,81.0,2.0
EMOCONPILOT001,0.8691903999997521,happy,happy,16ms,204,83.0,2.0
EMOCONPILOT001,0.6266777999999249,neutral,neutral,16ms,206,85.0,2.0
EMOCONPILOT001,0.6429378000002544,happy,sad,16ms,209,88.0,2.0
EMOCONPILOT001,0.6232420999995156,happy,happy,16ms,211,90.0,2.0
EMOCONPILOT001,0.5665971000007629,neutral,sad,16ms,213,92.0,2.0
EMOCONPILOT001,0.7091639999998733,neutral,neutral,16ms,214,93.0,2.0
EMOCONPILOT001,0.546454299999823,sad,sad,16ms,215,94.0,2.0
EMOCONPILOT001,0.5764343999999255,neutral,neutral,16ms,216,95.0,2.0
EMOCONPILOT001,0.6556354000003921,neutral,sad,16ms,218,97.0,2.0
EMOCONPILOT001,0.5602103999999599,neutral,neutral,16ms,221,100.0,2.0
EMOCONPILOT001,0.5540318000003026,happy,happy,16ms,222,101.0,2.0
EMOCONPILOT001,0.6757195000000138,happy,sad,16ms,223,102.0,2.0
EMOCONPILOT001,0.6492717999999513,neutral,neutral,16ms,224,103.0,2.0
EMOCONPILOT001,0.6740611000004719,happy,happy,16ms,225,104.0,2.0
EMOCONPILOT001,0.5244459000005008,happy,happy,16ms,228,107.0,2.0
EMOCONPILOT001,0.9851385999991179,sad,sad,25ms,3,2.0,1.0
EMOCONPILOT001,1.2851282000001447,sad,neutral,25ms,8,7.0,1.0
EMOCONPILOT001,0.6338385999997627,neutral,neutral,25ms,16,15.0,1.0
EMOCONPILOT001,0.6431823999992048,happy,happy,25ms,19,18.0,1.0
EMOCONPILOT001,0.5143257999998241,happy,happy,25ms,21,20.0,1.0
EMOCONPILOT001,0.4634137000002738,happy,happy,25ms,25,24.0,1.0
EMOCONPILOT001,0.6179981000004773,neutral,neutral,25ms,26,25.0,1.0
EMOCONPILOT001,1.045064299999467,sad,sad,25ms,29,28.0,1.0
EMOCONPILOT001,0.5223551999997653,neutral,neutral,25ms,30,29.0,1.0
EMOCONPILOT001,0.5310596999997871,neutral,neutral,25ms,31,30.0,1.0
EMOCONPILOT001,0.5124041999997644,neutral,neutral,25ms,33,32.0,1.0
EMOCONPILOT001,0.6753759000002901,neutral,neutral,25ms,35,34.0,1.0
EMOCONPILOT001,0.5133918000001358,neutral,neutral,25ms,38,37.0,1.0
EMOCONPILOT001,0.5568954000000303,neutral,neutral,25ms,40,39.0,1.0
EMOCONPILOT001,0.6746448000003511,neutral,sad,25ms,41,40.0,1.0
EMOCONPILOT001,1.3274781999998595,sad,happy,25ms,48,47.0,1.0
EMOCONPILOT001,0.4748599000004106,neutral,neutral,25ms,49,48.0,1.0
EMOCONPILOT001,0.6382886000001236,neutral,neutral,25ms,50,49.0,1.0
EMOCONPILOT001,0.6227226999999402,neutral,neutral,25ms,55,54.0,1.0
EMOCONPILOT001,0.5110756000003676,neutral,neutral,25ms,56,55.0,1.0
EMOCONPILOT001,0.438812099999268,neutral,neutral,25ms,60,59.0,1.0
EMOCONPILOT001,0.5034444999992047,happy,happy,25ms,68,67.0,1.0
EMOCONPILOT001,0.7131990999996559,happy,happy,25ms,72,71.0,1.0
EMOCONPILOT001,1.1253772000000026,neutral,sad,25ms,74,73.0,1.0
EMOCONPILOT001,0.5130584999997154,happy,happy,25ms,79,78.0,1.0
EMOCONPILOT001,0.553795199999513,happy,happy,25ms,88,87.0,1.0
EMOCONPILOT001,0.754553499999929,neutral,neutral,25ms,92,91.0,1.0
EMOCONPILOT001,1.473289300000033,neutral,sad,25ms,95,94.0,1.0
EMOCONPILOT001,1.0500559000001886,neutral,sad,25ms,96,95.0,1.0
EMOCONPILOT001,0.5048866000006456,happy,happy,25ms,98,97.0,1.0
EMOCONPILOT001,0.5834710999997696,neutral,neutral,25ms,99,98.0,1.0
EMOCONPILOT001,0.6750141000002259,neutral,neutral,25ms,101,100.0,1.0
EMOCONPILOT001,0.5890583999998853,neutral,sad,25ms,102,101.0,1.0
EMOCONPILOT001,0.5243208000001687,happy,happy,25ms,103,102.0,1.0
EMOCONPILOT001,0.6367760000002818,sad,sad,25ms,104,103.0,1.0
EMOCONPILOT001,0.4424548999995751,sad,sad,141ms,12,11.0,1.0
EMOCONPILOT001,0.6224874999998065,happy,happy,141ms,15,14.0,1.0
EMOCONPILOT001,0.3794694999996864,happy,happy,141ms,18,17.0,1.0
EMOCONPILOT001,0.35309610000058456,happy,happy,141ms,20,19.0,1.0
EMOCONPILOT001,0.3863261999995302,happy,happy,141ms,28,27.0,1.0
EMOCONPILOT001,0.3624121999991985,happy,happy,141ms,43,42.0,1.0
EMOCONPILOT001,0.4005815000000439,sad,sad,141ms,44,43.0,1.0
EMOCONPILOT001,0.2977676000000429,sad,sad,141ms,46,45.0,1.0
EMOCONPILOT001,0.3612812000001213,happy,happy,141ms,57,56.0,1.0
EMOCONPILOT001,0.4269432999999481,happy,happy,141ms,64,63.0,1.0
EMOCONPILOT001,0.5155955999998696,happy,happy,141ms,65,64.0,1.0
EMOCONPILOT001,0.25255829999969137,happy,happy,141ms,69,68.0,1.0
EMOCONPILOT001,1.0889159999996991,sad,sad,141ms,70,69.0,1.0
EMOCONPILOT001,0.5174721000003046,happy,happy,141ms,71,70.0,1.0
EMOCONPILOT001,0.4030903000002581,neutral,sad,141ms,84,83.0,1.0
EMOCONPILOT001,0.982961200000318,sad,sad,141ms,86,85.0,1.0
EMOCONPILOT001,0.6515096000002814,sad,sad,141ms,89,88.0,1.0
EMOCONPILOT001,0.7766340999996828,happy,happy,141ms,106,105.0,1.0
EMOCONPILOT001,0.4172048999998879,sad,sad,141ms,109,108.0,1.0
EMOCONPILOT001,0.40376280000054976,sad,sad,141ms,111,110.0,1.0
EMOCONPILOT001,0.4451636000003418,sad,sad,141ms,124,3.0,2.0
EMOCONPILOT001,0.5728874000005817,sad,sad,141ms,133,12.0,2.0
EMOCONPILOT001,0.5975914000000557,happy,happy,141ms,140,19.0,2.0
EMOCONPILOT001,0.5879330999996455,happy,happy,141ms,142,21.0,2.0
EMOCONPILOT001,0.43130290000044624,sad,sad,141ms,143,22.0,2.0
EMOCONPILOT001,0.3223573999994187,happy,happy,141ms,156,35.0,2.0
EMOCONPILOT001,0.3733684999997422,happy,happy,141ms,163,42.0,2.0
EMOCONPILOT001,0.4549856000003274,sad,sad,141ms,165,44.0,2.0
EMOCONPILOT001,0.4587296999998216,happy,happy,141ms,174,53.0,2.0
EMOCONPILOT001,0.6175759999996444,happy,happy,141ms,175,54.0,2.0
EMOCONPILOT001,0.5620132999993075,sad,sad,141ms,178,57.0,2.0
EMOCONPILOT001,0.4555497999999716,sad,sad,141ms,180,59.0,2.0
EMOCONPILOT001,0.4026874000001044,sad,sad,141ms,184,63.0,2.0
EMOCONPILOT001,0.4298681999998735,sad,sad,141ms,187,66.0,2.0
EMOCONPILOT001,0.3533714999994117,sad,sad,141ms,196,75.0,2.0
EMOCONPILOT001,0.3274290000008477,sad,sad,141ms,198,77.0,2.0
EMOCONPILOT001,0.8029974000000948,happy,happy,141ms,200,79.0,2.0
EMOCONPILOT001,0.2573069000000032,happy,happy,141ms,207,86.0,2.0
EMOCONPILOT001,0.6423983999993652,sad,sad,141ms,208,87.0,2.0
EMOCONPILOT001,0.5269572000006519,happy,happy,141ms,210,89.0,2.0
EMOCONPILOT001,0.3644640000002255,sad,sad,141ms,212,91.0,2.0
EMOCONPILOT001,0.4360029000008581,happy,happy,141ms,217,96.0,2.0
EMOCONPILOT001,0.3536699999995108,sad,sad,141ms,219,98.0,2.0
EMOCONPILOT001,0.6172377000002598,sad,sad,141ms,230,109.0,2.0
EMOCONPILOT001,0.5482038999998622,sad,sad,141ms,233,112.0,2.0
EMOCONPILOT001,0.4038340999995853,happy,happy,141ms,234,113.0,2.0
EMOCONPILOT001,0.37732859999960056,sad,sad,141ms,240,119.0,2.0
EMOCONPILOT001,0.6297325000005003,sad,sad,141ms,243,2.0,3.0
EMOCONPILOT001,0.8621464999996533,sad,sad,141ms,245,4.0,3.0
EMOCONPILOT001,0.5569562000000587,sad,sad,141ms,255,14.0,3.0
EMOCONPILOT001,0.7318358000002263,sad,sad,141ms,259,18.0,3.0
EMOCONPILOT001,0.5774083999995128,sad,sad,141ms,262,21.0,3.0
EMOCONPILOT001,1.0235578000001624,happy,happy,141ms,264,23.0,3.0
EMOCONPILOT001,0.4387818999994124,happy,happy,141ms,269,28.0,3.0
EMOCONPILOT001,0.681522999999288,sad,sad,141ms,277,36.0,3.0
EMOCONPILOT001,0.9037832999993044,sad,sad,141ms,286,45.0,3.0
EMOCONPILOT001,0.4663150999995196,sad,sad,141ms,288,47.0,3.0
EMOCONPILOT001,0.4694527000001472,sad,sad,141ms,289,48.0,3.0
EMOCONPILOT001,0.513702000000194,happy,happy,141ms,292,51.0,3.0
EMOCONPILOT001,0.5201530999993338,happy,happy,141ms,296,55.0,3.0
EMOCONPILOT001,0.4444594999995388,sad,sad,141ms,301,60.0,3.0
EMOCONPILOT001,0.4138441000004605,sad,sad,141ms,321,80.0,3.0
EMOCONPILOT001,0.4717325999999957,happy,happy,141ms,322,81.0,3.0
EMOCONPILOT001,0.4742126999999528,sad,sad,141ms,327,86.0,3.0
EMOCONPILOT001,0.8594863999996959,sad,sad,141ms,328,87.0,3.0
EMOCONPILOT001,0.7462681999995766,sad,sad,141ms,329,88.0,3.0
EMOCONPILOT001,0.5499483000003238,sad,sad,141ms,332,91.0,3.0
EMOCONPILOT001,0.5015038999999888,happy,happy,141ms,333,92.0,3.0
EMOCONPILOT001,0.5925315000004048,sad,sad,141ms,336,95.0,3.0
EMOCONPILOT001,0.4055216999995537,sad,sad,141ms,337,96.0,3.0
EMOCONPILOT001,0.4085520999997243,happy,happy,141ms,346,105.0,3.0
EMOCONPILOT001,0.453617099999974,happy,happy,141ms,353,112.0,3.0
EMOCONPILOT001,0.452257500000087,sad,sad,141ms,354,113.0,3.0
EMOCONPILOT001,0.4590025999996215,sad,sad,141ms,356,115.0,3.0
EMOCONPILOT001,0.5253782999998293,sad,sad,141ms,357,116.0,3.0
EMOCONPILOT001,0.3720038999999815,happy,happy,141ms,360,119.0,3.0
EMOCONPILOT003,1.025624500005506,neutral,neutral,8ms,247,6.0,3.0
EMOCONPILOT003,0.9784816000610592,neutral,neutral,8ms,252,11.0,3.0
EMOCONPILOT003,0.9893987000687048,neutral,neutral,8ms,253,12.0,3.0
EMOCONPILOT003,0.8472039999905974,neutral,sad,8ms,255,14.0,3.0
EMOCONPILOT003,0.631408300017938,neutral,happy,8ms,256,15.0,3.0
EMOCONPILOT003,0.6861216999823228,neutral,sad,8ms,257,16.0,3.0
EMOCONPILOT003,1.1898027000715956,neutral,neutral,8ms,258,17.0,3.0
EMOCONPILOT003,1.249748899950646,neutral,sad,8ms,259,18.0,3.0
EMOCONPILOT003,0.6710464999778196,neutral,neutral,8ms,261,20.0,3.0
EMOCONPILOT003,1.138188699958846,neutral,sad,8ms,262,21.0,3.0
EMOCONPILOT003,0.7422601999714971,neutral,happy,8ms,266,25.0,3.0
EMOCONPILOT003,0.6962220000568777,neutral,sad,8ms,267,26.0,3.0
EMOCONPILOT003,1.4238396000582725,neutral,neutral,8ms,271,30.0,3.0
EMOCONPILOT003,1.3174563000211492,neutral,neutral,8ms,275,34.0,3.0
EMOCONPILOT003,0.9566651999484748,neutral,happy,8ms,278,37.0,3.0
EMOCONPILOT003,0.5855570000130683,neutral,neutral,8ms,279,38.0,3.0
EMOCONPILOT003,0.7990636000176892,neutral,neutral,8ms,281,40.0,3.0
EMOCONPILOT003,0.4835556000471115,neutral,happy,8ms,282,41.0,3.0
EMOCONPILOT003,1.1038519999710843,neutral,sad,8ms,289,48.0,3.0
EMOCONPILOT003,0.662791799986735,neutral,happy,8ms,290,49.0,3.0
EMOCONPILOT003,0.7423883000155911,neutral,neutral,8ms,291,50.0,3.0
EMOCONPILOT003,0.8824418999720365,neutral,sad,8ms,293,52.0,3.0
EMOCONPILOT003,0.6374852000735699,neutral,sad,8ms,295,54.0,3.0
EMOCONPILOT003,0.779858099995181,neutral,sad,8ms,297,56.0,3.0
EMOCONPILOT003,0.5945306000066921,neutral,neutral,8ms,298,57.0,3.0
EMOCONPILOT003,0.6282685000915079,neutral,happy,8ms,299,58.0,3.0
EMOCONPILOT003,0.8523375999648124,neutral,sad,8ms,301,60.0,3.0
EMOCONPILOT003,0.7512418000260368,neutral,happy,8ms,303,62.0,3.0
EMOCONPILOT003,0.7977791000157595,neutral,neutral,8ms,304,63.0,3.0
EMOCONPILOT003,1.0150304000126198,neutral,neutral,8ms,309,68.0,3.0
EMOCONPILOT003,1.1526274000061676,neutral,neutral,8ms,310,69.0,3.0
EMOCONPILOT003,0.7771066999994218,neutral,neutral,8ms,312,71.0,3.0
EMOCONPILOT003,1.27687300008256,neutral,neutral,8ms,316,75.0,3.0
EMOCONPILOT003,0.983712900080718,happy,happy,8ms,317,76.0,3.0
EMOCONPILOT003,0.6504228999838233,neutral,sad,8ms,319,78.0,3.0
EMOCONPILOT003,0.8171715000644326,neutral,sad,8ms,321,80.0,3.0
EMOCONPILOT003,0.697452099993825,neutral,neutral,8ms,323,82.0,3.0
EMOCONPILOT003,0.6678823999827728,neutral,sad,8ms,328,87.0,3.0
EMOCONPILOT003,0.5864061000756919,neutral,sad,8ms,329,88.0,3.0
EMOCONPILOT003,0.5628688000142574,neutral,sad,8ms,331,90.0,3.0
EMOCONPILOT003,0.519858599989675,neutral,sad,8ms,332,91.0,3.0
EMOCONPILOT003,1.462489999947138,sad,neutral,8ms,334,93.0,3.0
EMOCONPILOT003,0.9228292000479996,neutral,sad,8ms,336,95.0,3.0
EMOCONPILOT003,0.4653545999899506,neutral,sad,8ms,337,96.0,3.0
EMOCONPILOT003,0.5124607000034302,neutral,neutral,8ms,338,97.0,3.0
EMOCONPILOT003,1.1039096000604331,neutral,sad,8ms,341,100.0,3.0
EMOCONPILOT003,0.6234700999921188,neutral,sad,8ms,343,102.0,3.0
EMOCONPILOT003,0.921658599982038,neutral,happy,8ms,344,103.0,3.0
EMOCONPILOT003,0.6829067000653595,neutral,neutral,8ms,345,104.0,3.0
EMOCONPILOT003,0.9341810001060368,neutral,neutral,8ms,347,106.0,3.0
EMOCONPILOT003,1.181269499938935,sad,sad,8ms,348,107.0,3.0
EMOCONPILOT003,1.3629466999555009,neutral,sad,16ms,121,0.0,2.0
EMOCONPILOT003,0.8019749000668526,neutral,neutral,16ms,122,1.0,2.0
EMOCONPILOT003,0.8511471999809146,neutral,neutral,16ms,128,7.0,2.0
EMOCONPILOT003,1.2822332999203354,neutral,sad,16ms,130,9.0,2.0
EMOCONPILOT003,1.0929655999643728,neutral,sad,16ms,133,12.0,2.0
EMOCONPILOT003,0.7210764000192285,neutral,neutral,16ms,137,16.0,2.0
EMOCONPILOT003,0.7360464000375941,happy,happy,16ms,138,17.0,2.0
EMOCONPILOT003,0.9720729000400752,happy,happy,16ms,141,20.0,2.0
EMOCONPILOT003,0.6499664000002667,happy,happy,16ms,146,25.0,2.0
EMOCONPILOT003,1.2342993998900056,neutral,neutral,16ms,147,26.0,2.0
EMOCONPILOT003,1.39202699996531,happy,happy,16ms,148,27.0,2.0
EMOCONPILOT003,0.9036256999243052,happy,happy,16ms,151,30.0,2.0
EMOCONPILOT003,1.296374100027606,happy,happy,16ms,152,31.0,2.0
EMOCONPILOT003,1.0583322000456974,neutral,sad,16ms,154,33.0,2.0
EMOCONPILOT003,0.8149733999744058,happy,happy,16ms,156,35.0,2.0
EMOCONPILOT003,0.5749638999113813,happy,happy,16ms,161,40.0,2.0
EMOCONPILOT003,0.9900247999466956,neutral,neutral,16ms,166,45.0,2.0
EMOCONPILOT003,1.0437289000255987,neutral,neutral,16ms,167,46.0,2.0
EMOCONPILOT003,0.7069604999851435,happy,happy,16ms,168,47.0,2.0
EMOCONPILOT003,0.5908060999354348,happy,happy,16ms,170,49.0,2.0
EMOCONPILOT003,0.6326850999612361,happy,happy,16ms,171,50.0,2.0
EMOCONPILOT003,0.4975820999825373,happy,happy,16ms,175,54.0,2.0
EMOCONPILOT003,0.723575200070627,happy,happy,16ms,188,67.0,2.0
EMOCONPILOT003,1.0296810999279842,neutral,neutral,16ms,199,78.0,2.0
EMOCONPILOT003,1.3140130001120272,neutral,neutral,16ms,201,80.0,2.0
EMOCONPILOT003,0.6755045000463724,happy,happy,16ms,202,81.0,2.0
EMOCONPILOT003,0.6233442999655381,happy,happy,16ms,203,82.0,2.0
EMOCONPILOT003,1.1927418999839574,sad,neutral,16ms,205,84.0,2.0
EMOCONPILOT003,1.1137351000215858,neutral,neutral,16ms,206,85.0,2.0
EMOCONPILOT003,0.6143181999213994,happy,happy,16ms,207,86.0,2.0
EMOCONPILOT003,1.044041299959645,neutral,happy,16ms,210,89.0,2.0
EMOCONPILOT003,1.0409629000350833,neutral,sad,16ms,213,92.0,2.0
EMOCONPILOT003,1.1074855999322608,neutral,neutral,16ms,224,103.0,2.0
EMOCONPILOT003,0.8047713999403641,neutral,neutral,16ms,226,105.0,2.0
EMOCONPILOT003,0.6674743999028578,happy,happy,16ms,228,107.0,2.0
EMOCONPILOT003,1.2527979000005869,happy,sad,16ms,229,108.0,2.0
EMOCONPILOT003,1.2650692999595776,happy,sad,16ms,230,109.0,2.0
EMOCONPILOT003,0.5373379000229761,happy,happy,16ms,231,110.0,2.0
EMOCONPILOT003,0.8407989999977872,neutral,neutral,16ms,232,111.0,2.0
EMOCONPILOT003,0.8393025000113994,happy,happy,16ms,234,113.0,2.0
EMOCONPILOT003,1.3825222000014037,happy,happy,16ms,236,115.0,2.0
EMOCONPILOT003,0.8980624000541866,neutral,neutral,16ms,237,116.0,2.0
EMOCONPILOT003,0.7934835000196472,neutral,neutral,16ms,238,117.0,2.0
EMOCONPILOT003,0.7557224000338465,neutral,neutral,16ms,239,118.0,2.0
EMOCONPILOT003,0.8059547999873757,neutral,sad,16ms,240,119.0,2.0
EMOCONPILOT003,0.7847714000381529,neutral,sad,25ms,1,0.0,1.0
EMOCONPILOT003,0.4374761999351904,neutral,neutral,25ms,2,1.0,1.0
EMOCONPILOT003,1.2608012999407947,sad,sad,25ms,3,2.0,1.0
EMOCONPILOT003,1.3694255000445992,happy,happy,25ms,4,3.0,1.0
EMOCONPILOT003,1.3480356999207288,sad,sad,25ms,6,5.0,1.0
EMOCONPILOT003,1.0874801999889314,happy,happy,25ms,9,8.0,1.0
EMOCONPILOT003,1.3713657999178397,happy,happy,25ms,11,10.0,1.0
EMOCONPILOT003,0.7969153000740334,happy,happy,25ms,14,13.0,1.0
EMOCONPILOT003,1.051478200010024,happy,happy,25ms,19,18.0,1.0
EMOCONPILOT003,0.5837383000180125,happy,happy,25ms,28,27.0,1.0
EMOCONPILOT003,0.8754065000684932,neutral,sad,25ms,29,28.0,1.0
EMOCONPILOT003,0.9559991999994965,happy,happy,25ms,42,41.0,1.0
EMOCONPILOT003,1.199209500104189,happy,happy,25ms,43,42.0,1.0
EMOCONPILOT003,0.7559977000346407,happy,happy,25ms,54,53.0,1.0
EMOCONPILOT003,0.5575817000353709,happy,happy,25ms,68,67.0,1.0
EMOCONPILOT003,0.878341400064528,happy,sad,25ms,70,69.0,1.0
EMOCONPILOT003,1.0221766999457031,happy,happy,25ms,72,71.0,1.0
EMOCONPILOT003,0.8713982000481337,happy,sad,25ms,74,73.0,1.0
EMOCONPILOT003,0.8020585000049323,happy,happy,25ms,75,74.0,1.0
EMOCONPILOT003,0.93279240000993,sad,sad,25ms,76,75.0,1.0
EMOCONPILOT003,1.037962899892591,neutral,neutral,25ms,99,98.0,1.0
EMOCONPILOT003,1.0112018999643624,sad,sad,25ms,104,103.0,1.0
EMOCONPILOT003,1.4433694999897853,neutral,neutral,25ms,110,109.0,1.0
EMOCONPILOT003,0.8152136000571772,sad,sad,25ms,114,113.0,1.0
EMOCONPILOT003,0.7421816000714898,happy,happy,25ms,115,114.0,1.0
EMOCONPILOT003,1.3665516000473872,sad,sad,141ms,12,11.0,1.0
EMOCONPILOT003,1.0919647000264376,sad,sad,141ms,17,16.0,1.0
EMOCONPILOT003,0.6841721000382677,happy,happy,141ms,20,19.0,1.0
EMOCONPILOT003,0.9336231000488624,sad,sad,141ms,23,22.0,1.0
EMOCONPILOT003,0.6087102999445051,happy,happy,141ms,25,24.0,1.0
EMOCONPILOT003,0.6376081000780687,happy,happy,141ms,27,26.0,1.0
EMOCONPILOT003,1.0100472000194711,happy,happy,141ms,45,44.0,1.0
EMOCONPILOT003,0.6415679999627173,happy,happy,141ms,51,50.0,1.0
EMOCONPILOT003,0.8255964999552816,happy,happy,141ms,57,56.0,1.0
EMOCONPILOT003,0.7038352000527084,happy,happy,141ms,63,62.0,1.0
EMOCONPILOT003,0.4793753999983892,happy,happy,141ms,69,68.0,1.0
EMOCONPILOT003,0.7517031999304891,sad,sad,141ms,80,79.0,1.0
EMOCONPILOT003,0.7584322999464348,happy,happy,141ms,83,82.0,1.0
EMOCONPILOT003,0.7428663000464439,sad,sad,141ms,89,88.0,1.0
EMOCONPILOT003,1.2893533000024036,neutral,sad,141ms,94,93.0,1.0
EMOCONPILOT003,0.7568726999452338,sad,sad,141ms,100,99.0,1.0
EMOCONPILOT003,0.5069038999499753,sad,sad,141ms,109,108.0,1.0
EMOCONPILOT003,0.5985306999646127,sad,sad,141ms,111,110.0,1.0
EMOCONPILOT003,0.7684739000396803,sad,sad,141ms,124,3.0,2.0
EMOCONPILOT003,0.6415159000316635,happy,happy,141ms,134,13.0,2.0
EMOCONPILOT003,1.3626578999683259,neutral,sad,141ms,139,18.0,2.0
EMOCONPILOT003,0.6629511999199167,happy,happy,141ms,140,19.0,2.0
EMOCONPILOT003,0.5974573000567034,happy,happy,141ms,142,21.0,2.0
EMOCONPILOT003,0.7189330999972299,sad,sad,141ms,149,28.0,2.0
EMOCONPILOT003,0.5810494000324979,happy,happy,141ms,160,39.0,2.0
EMOCONPILOT003,0.6708770000841469,happy,happy,141ms,163,42.0,2.0
EMOCONPILOT003,1.2694189000176266,neutral,sad,141ms,165,44.0,2.0
EMOCONPILOT003,0.6051234999904409,happy,happy,141ms,173,52.0,2.0
EMOCONPILOT003,0.5142400000477211,happy,happy,141ms,174,53.0,2.0
EMOCONPILOT003,0.4466750000137836,happy,happy,141ms,176,55.0,2.0
EMOCONPILOT003,0.6752869000192732,sad,sad,141ms,178,57.0,2.0
EMOCONPILOT003,0.6841011999640614,sad,sad,141ms,180,59.0,2.0
EMOCONPILOT003,0.6574320000363514,sad,sad,141ms,182,61.0,2.0
EMOCONPILOT003,0.654674299992621,sad,sad,141ms,184,63.0,2.0
EMOCONPILOT003,0.6570093000773339,happy,happy,141ms,185,64.0,2.0
EMOCONPILOT003,0.5655109999934211,happy,happy,141ms,200,79.0,2.0
EMOCONPILOT003,0.36428970005363226,happy,happy,141ms,204,83.0,2.0
EMOCONPILOT003,0.6564956000074744,sad,sad,141ms,208,87.0,2.0
EMOCONPILOT003,0.5558696000371128,sad,sad,141ms,209,88.0,2.0
EMOCONPILOT003,0.4991888999938965,happy,happy,141ms,211,90.0,2.0
EMOCONPILOT003,0.44302919995971024,sad,sad,141ms,212,91.0,2.0
EMOCONPILOT003,0.6820808000629768,happy,happy,141ms,217,96.0,2.0
EMOCONPILOT003,0.9167787000769748,neutral,sad,141ms,218,97.0,2.0
EMOCONPILOT003,0.9682343000313268,sad,sad,141ms,219,98.0,2.0
EMOCONPILOT003,0.6212166999466717,happy,happy,141ms,222,101.0,2.0
EMOCONPILOT003,0.5425455999793485,happy,happy,141ms,225,104.0,2.0
EMOCONPILOT003,0.6078337000217289,sad,sad,141ms,227,106.0,2.0
EMOCONPILOT003,0.7928907000459731,sad,sad,141ms,243,2.0,3.0
EMOCONPILOT003,0.9959653000114486,sad,sad,141ms,245,4.0,3.0
EMOCONPILOT003,0.6417431000154465,happy,happy,141ms,264,23.0,3.0
EMOCONPILOT003,0.5472495999420062,happy,happy,141ms,269,28.0,3.0
EMOCONPILOT003,0.4737183999968693,sad,sad,141ms,273,32.0,3.0
EMOCONPILOT003,0.4646068000001833,sad,sad,141ms,274,33.0,3.0
EMOCONPILOT003,0.7129902000306174,sad,sad,141ms,283,42.0,3.0
EMOCONPILOT003,0.7751580000622198,happy,happy,141ms,285,44.0,3.0
EMOCONPILOT003,0.6024584000697359,sad,sad,141ms,286,45.0,3.0
EMOCONPILOT003,0.5539887000340968,sad,sad,141ms,288,47.0,3.0
EMOCONPILOT003,0.8591126000974327,happy,happy,141ms,292,51.0,3.0
EMOCONPILOT003,0.5455481000244617,happy,happy,141ms,296,55.0,3.0
EMOCONPILOT003,0.5168973999097943,happy,happy,141ms,300,59.0,3.0
EMOCONPILOT003,0.6795236000325531,sad,sad,141ms,313,72.0,3.0
EMOCONPILOT003,0.530720999930054,happy,happy,141ms,315,74.0,3.0
EMOCONPILOT003,0.4279731999849901,happy,happy,141ms,320,79.0,3.0
EMOCONPILOT003,0.4728954000165686,happy,happy,141ms,322,81.0,3.0
EMOCONPILOT003,0.4092398000648245,happy,happy,141ms,324,83.0,3.0
EMOCONPILOT003,0.496152599924244,happy,happy,141ms,326,85.0,3.0
EMOCONPILOT003,0.5353305999888107,sad,sad,141ms,327,86.0,3.0
EMOCONPILOT003,1.0097614999394864,sad,sad,141ms,330,89.0,3.0
EMOCONPILOT003,0.5496495000552386,happy,happy,141ms,339,98.0,3.0
EMOCONPILOT003,0.4824826999101788,happy,happy,141ms,346,105.0,3.0
EMOCONPILOT003,0.5929269000189379,sad,sad,141ms,350,109.0,3.0
EMOCONPILOT003,0.4635448000626639,happy,happy,141ms,353,112.0,3.0
EMOCONPILOT003,0.5881913000484928,sad,sad,141ms,354,113.0,3.0
EMOCONPILOT003,0.6951764000114053,sad,sad,141ms,356,115.0,3.0
EMOCONPILOT003,0.6014834999805316,sad,sad,141ms,357,116.0,3.0
EMOCONPILOT003,0.560245200060308,happy,happy,141ms,360,119.0,3.0
EMOCONPILOT004,1.3879016000428237,happy,happy,8ms,242,1.0,3.0
EMOCONPILOT004,0.8724921999964863,happy,happy,8ms,264,23.0,3.0
EMOCONPILOT004,0.6508377999998629,happy,happy,8ms,326,85.0,3.0
EMOCONPILOT004,1.055201900016982,sad,sad,8ms,354,113.0,3.0
EMOCONPILOT004,1.3957753999857232,sad,neutral,16ms,126,5.0,2.0
EMOCONPILOT004,1.227323700033594,neutral,sad,16ms,129,8.0,2.0
EMOCONPILOT004,0.7292710000183433,neutral,sad,16ms,130,9.0,2.0
EMOCONPILOT004,1.3009317999822088,neutral,neutral,16ms,131,10.0,2.0
EMOCONPILOT004,0.7957614000188187,sad,sad,16ms,133,12.0,2.0
EMOCONPILOT004,1.2000411999761127,neutral,happy,16ms,134,13.0,2.0
EMOCONPILOT004,1.1841696000192314,happy,neutral,16ms,136,15.0,2.0
EMOCONPILOT004,0.7347721999976784,neutral,neutral,16ms,137,16.0,2.0
EMOCONPILOT004,1.2852265000110492,neutral,happy,16ms,138,17.0,2.0
EMOCONPILOT004,1.3345478000119328,neutral,sad,16ms,139,18.0,2.0
EMOCONPILOT004,0.7248255999875255,happy,happy,16ms,141,20.0,2.0
EMOCONPILOT004,0.573244099970907,happy,happy,16ms,142,21.0,2.0
EMOCONPILOT004,1.096443799964618,sad,neutral,16ms,144,23.0,2.0
EMOCONPILOT004,0.7567620000336319,neutral,neutral,16ms,145,24.0,2.0
EMOCONPILOT004,1.474954199977219,neutral,neutral,16ms,147,26.0,2.0
EMOCONPILOT004,0.7868564000236802,neutral,sad,16ms,149,28.0,2.0
EMOCONPILOT004,0.8137734000338241,happy,happy,16ms,151,30.0,2.0
EMOCONPILOT004,1.0467605000012554,neutral,neutral,16ms,158,37.0,2.0
EMOCONPILOT004,1.289406299998518,happy,neutral,16ms,162,41.0,2.0
EMOCONPILOT004,0.8250390000175685,happy,happy,16ms,173,52.0,2.0
EMOCONPILOT004,1.0363582000136375,happy,happy,16ms,174,53.0,2.0
EMOCONPILOT004,1.2268729000352323,happy,happy,16ms,175,54.0,2.0
EMOCONPILOT004,1.4074548000353388,sad,neutral,16ms,183,62.0,2.0
EMOCONPILOT004,0.5881376999896021,happy,happy,16ms,185,64.0,2.0
EMOCONPILOT004,1.02115089999279,sad,neutral,16ms,186,65.0,2.0
EMOCONPILOT004,0.9103725000168196,sad,sad,16ms,189,68.0,2.0
EMOCONPILOT004,1.3562005000421775,neutral,neutral,16ms,193,72.0,2.0
EMOCONPILOT004,0.7736255000345409,sad,sad,16ms,194,73.0,2.0
EMOCONPILOT004,1.094543200044427,sad,sad,16ms,196,75.0,2.0
EMOCONPILOT004,1.2477356999879703,happy,sad,16ms,198,77.0,2.0
EMOCONPILOT004,0.7664050000021234,neutral,neutral,16ms,199,78.0,2.0
EMOCONPILOT004,0.6490491000004113,happy,happy,16ms,203,82.0,2.0
EMOCONPILOT004,0.5286640999838711,happy,happy,16ms,204,83.0,2.0
EMOCONPILOT004,0.9242327999672852,neutral,neutral,16ms,205,84.0,2.0
EMOCONPILOT004,0.6660441000130959,neutral,neutral,16ms,206,85.0,2.0
EMOCONPILOT004,0.5557276000035927,happy,happy,16ms,207,86.0,2.0
EMOCONPILOT004,0.8473897000076249,happy,happy,16ms,211,90.0,2.0
EMOCONPILOT004,1.3443423999706283,happy,sad,16ms,213,92.0,2.0
EMOCONPILOT004,1.0135926999500953,sad,sad,16ms,220,99.0,2.0
EMOCONPILOT004,0.6511426999932155,neutral,neutral,16ms,221,100.0,2.0
EMOCONPILOT004,0.8136836999910884,neutral,sad,16ms,223,102.0,2.0
EMOCONPILOT004,0.7590478000347503,neutral,neutral,16ms,224,103.0,2.0
EMOCONPILOT004,0.929982600035146,neutral,neutral,16ms,226,105.0,2.0
EMOCONPILOT004,1.3535590999526903,happy,happy,16ms,228,107.0,2.0
EMOCONPILOT004,0.6630769000039436,neutral,sad,16ms,229,108.0,2.0
EMOCONPILOT004,1.2357706999755464,sad,sad,16ms,230,109.0,2.0
EMOCONPILOT004,0.6105421999818645,happy,happy,16ms,231,110.0,2.0
EMOCONPILOT004,0.7888097999966703,neutral,neutral,16ms,232,111.0,2.0
EMOCONPILOT004,1.111726799979806,sad,sad,16ms,235,114.0,2.0
EMOCONPILOT004,1.3771387999877334,neutral,happy,16ms,236,115.0,2.0
EMOCONPILOT004,0.9820541999652048,sad,neutral,16ms,237,116.0,2.0
EMOCONPILOT004,0.9652015999890864,sad,neutral,16ms,238,117.0,2.0
EMOCONPILOT004,0.9324923999956808,neutral,sad,25ms,5,4.0,1.0
EMOCONPILOT004,1.229079799959436,neutral,neutral,25ms,8,7.0,1.0
EMOCONPILOT004,0.5706290999660268,neutral,happy,25ms,11,10.0,1.0
EMOCONPILOT004,0.8567617000080645,sad,sad,25ms,22,21.0,1.0
EMOCONPILOT004,0.6010353000019677,neutral,neutral,25ms,30,29.0,1.0
EMOCONPILOT004,0.7130561999510974,neutral,neutral,25ms,31,30.0,1.0
EMOCONPILOT004,1.2349550000508316,neutral,sad,25ms,37,36.0,1.0
EMOCONPILOT004,0.4588482000399381,neutral,neutral,25ms,38,37.0,1.0
EMOCONPILOT004,0.5215213000192307,neutral,neutral,25ms,49,48.0,1.0
EMOCONPILOT004,0.707133200019598,neutral,neutral,25ms,53,52.0,1.0
EMOCONPILOT004,1.2918535000062548,neutral,neutral,25ms,55,54.0,1.0
EMOCONPILOT004,0.934983299986925,happy,happy,25ms,72,71.0,1.0
EMOCONPILOT004,0.7325748999719508,sad,sad,25ms,74,73.0,1.0
EMOCONPILOT004,1.0204400000511669,neutral,sad,25ms,76,75.0,1.0
EMOCONPILOT004,0.5284999999566935,happy,happy,25ms,79,78.0,1.0
EMOCONPILOT004,1.13907219999237,neutral,neutral,25ms,97,96.0,1.0
EMOCONPILOT004,0.5947939000325277,happy,happy,25ms,98,97.0,1.0
EMOCONPILOT004,1.271052900003269,neutral,neutral,25ms,101,100.0,1.0
EMOCONPILOT004,1.0524789000046442,happy,sad,25ms,102,101.0,1.0
EMOCONPILOT004,0.4583048999775201,happy,happy,25ms,103,102.0,1.0
EMOCONPILOT004,0.6139366999850608,sad,sad,25ms,104,103.0,1.0
EMOCONPILOT004,0.7480122999986634,neutral,sad,25ms,105,104.0,1.0
EMOCONPILOT004,0.5317213999805972,happy,happy,25ms,108,107.0,1.0
EMOCONPILOT004,0.6121500000008382,neutral,neutral,25ms,110,109.0,1.0
EMOCONPILOT004,0.4773397000390105,happy,happy,25ms,112,111.0,1.0
EMOCONPILOT004,0.6770562999881804,neutral,sad,25ms,114,113.0,1.0
EMOCONPILOT004,0.5373839000239968,happy,happy,25ms,116,115.0,1.0
EMOCONPILOT004,0.6751523999846539,sad,sad,25ms,117,116.0,1.0
EMOCONPILOT004,0.5893425000249408,neutral,neutral,25ms,118,117.0,1.0
EMOCONPILOT004,0.3632255999837071,neutral,sad,141ms,17,16.0,1.0
EMOCONPILOT004,0.645959599991329,sad,sad,141ms,23,22.0,1.0
EMOCONPILOT004,0.8285025000222959,happy,happy,141ms,24,23.0,1.0
EMOCONPILOT004,0.4150555999949575,happy,happy,141ms,25,24.0,1.0
EMOCONPILOT004,0.4746550000272691,happy,happy,141ms,27,26.0,1.0
EMOCONPILOT004,0.3565480999532156,happy,happy,141ms,28,27.0,1.0
EMOCONPILOT004,1.1665763999917544,neutral,sad,141ms,39,38.0,1.0
EMOCONPILOT004,0.3104084000224248,happy,happy,141ms,43,42.0,1.0
EMOCONPILOT004,0.6315827000071295,sad,sad,141ms,44,43.0,1.0
EMOCONPILOT004,1.0490347999730147,happy,happy,141ms,45,44.0,1.0
EMOCONPILOT004,0.5801857999758795,sad,sad,141ms,46,45.0,1.0
EMOCONPILOT004,0.6402767999679781,happy,happy,141ms,51,50.0,1.0
EMOCONPILOT004,0.4241800000309013,happy,happy,141ms,57,56.0,1.0
EMOCONPILOT004,0.9239549000049008,neutral,sad,141ms,61,60.0,1.0
EMOCONPILOT004,0.4974463999969885,happy,happy,141ms,63,62.0,1.0
EMOCONPILOT004,0.5474816000205465,happy,happy,141ms,65,64.0,1.0
EMOCONPILOT004,1.0720631000003775,sad,sad,141ms,66,65.0,1.0
EMOCONPILOT004,0.3525994999799877,happy,happy,141ms,69,68.0,1.0
EMOCONPILOT004,0.9583330999594182,sad,sad,141ms,70,69.0,1.0
EMOCONPILOT004,0.4085000000195578,neutral,sad,141ms,78,77.0,1.0
EMOCONPILOT004,0.6484875999740325,neutral,sad,141ms,81,80.0,1.0
EMOCONPILOT004,0.9288813999737612,sad,sad,141ms,85,84.0,1.0
EMOCONPILOT004,0.4391162999672815,sad,sad,141ms,86,85.0,1.0
EMOCONPILOT004,0.5557659999467432,sad,sad,141ms,89,88.0,1.0
EMOCONPILOT004,0.5907273999764584,sad,sad,141ms,90,89.0,1.0
EMOCONPILOT004,1.4425673999940043,sad,sad,141ms,121,0.0,2.0
EMOCONPILOT004,1.172441300004721,sad,sad,141ms,124,3.0,2.0
EMOCONPILOT004,0.4990315000177361,neutral,sad,141ms,127,6.0,2.0
EMOCONPILOT004,0.3383928000112064,happy,happy,141ms,140,19.0,2.0
EMOCONPILOT004,0.4972733000176959,sad,sad,141ms,143,22.0,2.0
EMOCONPILOT004,0.4254941000253893,happy,happy,141ms,146,25.0,2.0
EMOCONPILOT004,0.5103030999889597,sad,sad,141ms,154,33.0,2.0
EMOCONPILOT004,0.7565399999730289,happy,happy,141ms,156,35.0,2.0
EMOCONPILOT004,0.3126710000215098,happy,happy,141ms,160,39.0,2.0
EMOCONPILOT004,0.3416931999963708,happy,happy,141ms,161,40.0,2.0
EMOCONPILOT004,0.34441929997410625,happy,happy,141ms,163,42.0,2.0
EMOCONPILOT004,0.7471369000268169,sad,sad,141ms,165,44.0,2.0
EMOCONPILOT004,0.5041101999813691,happy,happy,141ms,170,49.0,2.0
EMOCONPILOT004,0.7600671999971382,happy,happy,141ms,176,55.0,2.0
EMOCONPILOT004,0.805350599985104,sad,sad,141ms,178,57.0,2.0
EMOCONPILOT004,0.8200969999888912,neutral,sad,141ms,182,61.0,2.0
EMOCONPILOT004,0.9575389999663456,sad,sad,141ms,187,66.0,2.0
EMOCONPILOT004,0.5025912000564858,happy,happy,141ms,188,67.0,2.0
EMOCONPILOT004,0.4472092000069097,happy,happy,141ms,200,79.0,2.0
EMOCONPILOT004,0.4573786999681033,sad,sad,141ms,208,87.0,2.0
EMOCONPILOT004,0.31139669998083264,sad,sad,141ms,209,88.0,2.0
EMOCONPILOT004,0.5296846000128426,happy,happy,141ms,210,89.0,2.0
EMOCONPILOT004,0.4752735000220128,sad,sad,141ms,212,91.0,2.0
EMOCONPILOT004,0.43669810000574216,happy,happy,141ms,217,96.0,2.0
EMOCONPILOT004,0.6175200000288896,neutral,sad,141ms,219,98.0,2.0
EMOCONPILOT004,0.383901999972295,happy,happy,141ms,222,101.0,2.0
EMOCONPILOT004,0.6694396000239067,happy,happy,141ms,225,104.0,2.0
EMOCONPILOT004,0.8741984000080265,sad,sad,141ms,227,106.0,2.0
EMOCONPILOT004,0.6919247999903746,sad,sad,141ms,233,112.0,2.0
EMOCONPILOT004,0.3230535999755375,happy,happy,141ms,234,113.0,2.0
EMOCONPILOT004,0.4531833999790251,sad,sad,141ms,257,16.0,3.0
EMOCONPILOT004,0.6065064999856986,sad,sad,141ms,259,18.0,3.0
EMOCONPILOT004,0.5314482999965549,happy,happy,141ms,269,28.0,3.0
EMOCONPILOT004,0.5051351000438444,sad,sad,141ms,274,33.0,3.0
EMOCONPILOT004,0.8816404999815859,sad,sad,141ms,277,36.0,3.0
EMOCONPILOT004,0.7669802000164054,sad,sad,141ms,283,42.0,3.0
EMOCONPILOT004,0.3702989000012167,happy,happy,141ms,285,44.0,3.0
EMOCONPILOT004,0.8105713000404648,sad,sad,141ms,286,45.0,3.0
EMOCONPILOT004,0.6419461000477895,sad,sad,141ms,295,54.0,3.0
EMOCONPILOT004,0.4357203000108712,happy,happy,141ms,296,55.0,3.0
EMOCONPILOT004,1.0529574999818578,neutral,sad,141ms,301,60.0,3.0
EMOCONPILOT004,0.3985964999883436,happy,happy,141ms,305,64.0,3.0
EMOCONPILOT004,0.5434813000028953,neutral,sad,141ms,307,66.0,3.0
EMOCONPILOT004,0.9939188000280408,sad,sad,141ms,313,72.0,3.0
EMOCONPILOT004,0.4298189000110142,happy,happy,141ms,315,74.0,3.0
EMOCONPILOT004,0.8664414999657309,sad,sad,141ms,321,80.0,3.0
EMOCONPILOT004,0.3417786000063643,happy,happy,141ms,322,81.0,3.0
EMOCONPILOT004,0.5147692000027746,sad,sad,141ms,327,86.0,3.0
EMOCONPILOT004,0.7595061999745667,sad,sad,141ms,329,88.0,3.0
EMOCONPILOT004,0.3674630000023171,sad,sad,141ms,330,89.0,3.0
EMOCONPILOT004,0.9923511000233702,neutral,sad,141ms,336,95.0,3.0
EMOCONPILOT004,0.3516813999740407,happy,happy,141ms,339,98.0,3.0
EMOCONPILOT004,0.4421878000139259,sad,sad,141ms,340,99.0,3.0
EMOCONPILOT004,0.7852984999772161,happy,happy,141ms,344,103.0,3.0
EMOCONPILOT005_120HZ,1.3268898000242189,neutral,sad,8ms,243,2.0,3.0
EMOCONPILOT005_120HZ,0.8483653999865055,neutral,happy,8ms,249,8.0,3.0
EMOCONPILOT005_120HZ,0.9566524999681859,neutral,neutral,8ms,252,11.0,3.0
EMOCONPILOT005_120HZ,0.967775300028734,sad,neutral,8ms,254,13.0,3.0
EMOCONPILOT005_120HZ,0.8086823000339791,neutral,sad,8ms,255,14.0,3.0
EMOCONPILOT005_120HZ,0.8380775999976322,happy,happy,8ms,256,15.0,3.0
EMOCONPILOT005_120HZ,0.8167453000787646,neutral,neutral,8ms,260,19.0,3.0
EMOCONPILOT005_120HZ,0.5897111999802291,neutral,neutral,8ms,261,20.0,3.0
EMOCONPILOT005_120HZ,0.6292705000378191,neutral,sad,8ms,262,21.0,3.0
EMOCONPILOT005_120HZ,0.7406324000330642,neutral,happy,8ms,264,23.0,3.0
EMOCONPILOT005_120HZ,0.989865200011991,neutral,neutral,8ms,265,24.0,3.0
EMOCONPILOT005_120HZ,0.5228891000151634,neutral,happy,8ms,266,25.0,3.0
EMOCONPILOT005_120HZ,0.8223911001114175,neutral,neutral,8ms,268,27.0,3.0
EMOCONPILOT005_120HZ,0.6090425000293179,neutral,sad,8ms,272,31.0,3.0
EMOCONPILOT005_120HZ,0.5309880999848247,neutral,sad,8ms,273,32.0,3.0
EMOCONPILOT005_120HZ,0.5056356999557465,neutral,sad,8ms,274,33.0,3.0
EMOCONPILOT005_120HZ,0.4626705000409856,neutral,neutral,8ms,275,34.0,3.0
EMOCONPILOT005_120HZ,0.4107015000190586,neutral,happy,8ms,276,35.0,3.0
EMOCONPILOT005_120HZ,0.7000751999439672,neutral,happy,8ms,278,37.0,3.0
EMOCONPILOT005_120HZ,0.999418899999,neutral,neutral,8ms,279,38.0,3.0
EMOCONPILOT005_120HZ,0.6898091000039129,happy,happy,8ms,282,41.0,3.0
EMOCONPILOT005_120HZ,1.3778259999817235,happy,sad,8ms,283,42.0,3.0
EMOCONPILOT005_120HZ,1.4324716000119224,neutral,sad,8ms,286,45.0,3.0
EMOCONPILOT005_120HZ,1.0456645999802276,neutral,neutral,8ms,287,46.0,3.0
EMOCONPILOT005_120HZ,1.0250342999352142,neutral,neutral,8ms,291,50.0,3.0
EMOCONPILOT005_120HZ,0.6774588000262156,neutral,neutral,8ms,294,53.0,3.0
EMOCONPILOT005_120HZ,1.0356886000372472,neutral,happy,8ms,296,55.0,3.0
EMOCONPILOT005_120HZ,0.904541099909693,neutral,sad,8ms,297,56.0,3.0
EMOCONPILOT005_120HZ,0.6767657999880612,neutral,neutral,8ms,298,57.0,3.0
EMOCONPILOT005_120HZ,0.7844720999710262,neutral,happy,8ms,300,59.0,3.0
EMOCONPILOT005_120HZ,0.5050596999935806,neutral,happy,8ms,303,62.0,3.0
EMOCONPILOT005_120HZ,0.5540320000145584,neutral,neutral,8ms,304,63.0,3.0
EMOCONPILOT005_120HZ,0.662781999912113,neutral,sad,8ms,306,65.0,3.0
EMOCONPILOT005_120HZ,0.5925730000017211,neutral,sad,8ms,307,66.0,3.0
EMOCONPILOT005_120HZ,0.5739590999437496,neutral,neutral,8ms,309,68.0,3.0
EMOCONPILOT005_120HZ,1.1351299999514597,happy,neutral,8ms,316,75.0,3.0
EMOCONPILOT005_120HZ,1.2059649000875652,sad,happy,8ms,320,79.0,3.0
EMOCONPILOT005_120HZ,1.2205306000541896,neutral,neutral,8ms,323,82.0,3.0
EMOCONPILOT005_120HZ,0.7799799999920651,neutral,happy,8ms,324,83.0,3.0
EMOCONPILOT005_120HZ,1.2610056999837975,happy,happy,8ms,326,85.0,3.0
EMOCONPILOT005_120HZ,1.2544374000281096,happy,sad,8ms,327,86.0,3.0
EMOCONPILOT005_120HZ,1.0455207999330014,neutral,sad,8ms,329,88.0,3.0
EMOCONPILOT005_120HZ,0.6038395999930799,neutral,sad,8ms,330,89.0,3.0
EMOCONPILOT005_120HZ,0.9864053999772296,neutral,sad,8ms,331,90.0,3.0
EMOCONPILOT005_120HZ,0.6841504999902099,neutral,neutral,8ms,334,93.0,3.0
EMOCONPILOT005_120HZ,0.7418033999856561,happy,neutral,8ms,342,101.0,3.0
EMOCONPILOT005_120HZ,1.1729197000386191,neutral,neutral,8ms,349,108.0,3.0
EMOCONPILOT005_120HZ,0.9985331000061706,neutral,happy,8ms,352,111.0,3.0
EMOCONPILOT005_120HZ,0.861595300026238,neutral,neutral,8ms,355,114.0,3.0
EMOCONPILOT005_120HZ,1.0702807001071049,happy,sad,8ms,356,115.0,3.0
EMOCONPILOT005_120HZ,0.6276023999089375,neutral,sad,8ms,358,117.0,3.0
EMOCONPILOT005_120HZ,1.0417975999880582,neutral,neutral,8ms,359,118.0,3.0
EMOCONPILOT005_120HZ,0.7833820999367163,neutral,happy,8ms,360,119.0,3.0
EMOCONPILOT005_120HZ,1.266490499954671,neutral,happy,25ms,75,74.0,1.0
EMOCONPILOT005_120HZ,0.873388700070791,sad,sad,25ms,85,84.0,1.0
EMOCONPILOT005_120HZ,0.9443781999871136,sad,sad,25ms,89,88.0,1.0
EMOCONPILOT005_120HZ,1.2559375000419095,happy,sad,25ms,91,90.0,1.0
EMOCONPILOT005_120HZ,0.7755081000505015,happy,sad,25ms,93,92.0,1.0
EMOCONPILOT005_120HZ,1.2503957001026722,happy,neutral,25ms,97,96.0,1.0
EMOCONPILOT005_120HZ,0.8469977000495419,sad,sad,25ms,102,101.0,1.0
EMOCONPILOT005_120HZ,0.8018096999730915,neutral,happy,25ms,108,107.0,1.0
EMOCONPILOT005_120HZ,1.0798877000343057,neutral,happy,25ms,116,115.0,1.0
EMOCONPILOT005_120HZ,1.2863044999539852,neutral,neutral,25ms,118,117.0,1.0
EMOCONPILOT005_120HZ,1.2714140000753105,neutral,neutral,25ms,119,118.0,1.0
EMOCONPILOT005_120HZ,0.8831377000315115,neutral,neutral,25ms,120,119.0,1.0
EMOCONPILOT005_120HZ,0.4855167000787333,neutral,sad,16ms,133,12.0,2.0
EMOCONPILOT005_120HZ,1.2797028999775648,happy,happy,16ms,140,19.0,2.0
EMOCONPILOT005_120HZ,1.3245279000839218,happy,sad,16ms,143,22.0,2.0
EMOCONPILOT005_120HZ,0.6889412000309676,sad,happy,16ms,170,49.0,2.0
EMOCONPILOT005_120HZ,0.5263091999804601,neutral,happy,16ms,210,89.0,2.0
EMOCONPILOT005_120HZ,0.7590634999796748,neutral,neutral,16ms,221,100.0,2.0
EMOCONPILOT005_120HZ,0.7458474999293685,neutral,sad,16ms,229,108.0,2.0
EMOCONPILOT005_120HZ,0.5882643000222743,happy,happy,25ms,4,3.0,1.0
EMOCONPILOT005_120HZ,1.0545587000669912,neutral,sad,25ms,6,5.0,1.0
EMOCONPILOT005_120HZ,0.9071335999760776,neutral,neutral,25ms,7,6.0,1.0
EMOCONPILOT005_120HZ,0.4810393999796361,happy,happy,25ms,9,8.0,1.0
EMOCONPILOT005_120HZ,1.0056735000107435,sad,sad,25ms,12,11.0,1.0
EMOCONPILOT005_120HZ,0.6215404999675229,happy,happy,25ms,14,13.0,1.0
EMOCONPILOT005_120HZ,0.4430605999659747,happy,happy,25ms,15,14.0,1.0
EMOCONPILOT005_120HZ,0.5589635999640451,happy,happy,25ms,19,18.0,1.0
EMOCONPILOT005_120HZ,0.4459617999382317,happy,happy,25ms,20,19.0,1.0
EMOCONPILOT005_120HZ,0.5202683999668807,happy,happy,25ms,21,20.0,1.0
EMOCONPILOT005_120HZ,0.4961928999982774,happy,happy,25ms,24,23.0,1.0
EMOCONPILOT005_120HZ,0.6518989999312907,neutral,neutral,25ms,26,25.0,1.0
EMOCONPILOT005_120HZ,0.5215274000074714,neutral,neutral,25ms,34,33.0,1.0
EMOCONPILOT005_120HZ,0.9009359999326988,sad,sad,25ms,39,38.0,1.0
EMOCONPILOT005_120HZ,1.1440422000596298,sad,sad,25ms,41,40.0,1.0
EMOCONPILOT005_120HZ,0.6871423000702634,neutral,neutral,25ms,47,46.0,1.0
EMOCONPILOT005_120HZ,1.0458936999784785,neutral,neutral,25ms,50,49.0,1.0
EMOCONPILOT005_120HZ,0.495679899933748,happy,happy,25ms,51,50.0,1.0
EMOCONPILOT005_120HZ,0.5448871999979019,neutral,neutral,25ms,56,55.0,1.0
EMOCONPILOT005_120HZ,0.6966108001070097,sad,sad,25ms,61,60.0,1.0
EMOCONPILOT005_120HZ,0.4929362999973818,neutral,neutral,25ms,62,61.0,1.0
EMOCONPILOT005_120HZ,0.5537989999866113,happy,happy,25ms,63,62.0,1.0
EMOCONPILOT005_120HZ,0.5867822000291198,happy,happy,25ms,65,64.0,1.0
EMOCONPILOT005_120HZ,0.5612873999634758,happy,happy,25ms,67,66.0,1.0
EMOCONPILOT005_120HZ,0.7538927999557927,sad,sad,25ms,70,69.0,1.0
EMOCONPILOT005_120HZ,1.3193697000388056,neutral,sad,25ms,80,79.0,1.0
EMOCONPILOT005_120HZ,1.2435373000334948,happy,sad,25ms,86,85.0,1.0
EMOCONPILOT005_120HZ,0.916018099989742,happy,sad,25ms,111,110.0,1.0
EMOCONPILOT005_120HZ,0.7559214000357315,sad,sad,141ms,3,2.0,1.0
EMOCONPILOT005_120HZ,0.746078799944371,sad,sad,141ms,5,4.0,1.0
EMOCONPILOT005_120HZ,0.3771187999518588,neutral,neutral,141ms,8,7.0,1.0
EMOCONPILOT005_120HZ,0.3810008999425918,neutral,neutral,141ms,10,9.0,1.0
EMOCONPILOT005_120HZ,0.3314102999866009,happy,happy,141ms,11,10.0,1.0
EMOCONPILOT005_120HZ,0.5151105999248102,neutral,neutral,141ms,13,12.0,1.0
EMOCONPILOT005_120HZ,0.3481839000014588,sad,sad,141ms,22,21.0,1.0
EMOCONPILOT005_120HZ,0.398859899956733,sad,sad,141ms,23,22.0,1.0
EMOCONPILOT005_120HZ,0.28183739993255585,happy,happy,141ms,25,24.0,1.0
EMOCONPILOT005_120HZ,0.2635730999754742,happy,happy,141ms,27,26.0,1.0
EMOCONPILOT005_120HZ,0.3556590999942273,happy,happy,141ms,28,27.0,1.0
EMOCONPILOT005_120HZ,0.44219309999607503,sad,sad,141ms,29,28.0,1.0
EMOCONPILOT005_120HZ,0.3961621000198648,neutral,neutral,141ms,30,29.0,1.0
EMOCONPILOT005_120HZ,0.3714487999677658,neutral,neutral,141ms,31,30.0,1.0
EMOCONPILOT005_120HZ,0.6582051999866962,neutral,neutral,141ms,32,31.0,1.0
EMOCONPILOT005_120HZ,0.2976596000371501,neutral,neutral,141ms,33,32.0,1.0
EMOCONPILOT005_120HZ,0.3474284000694752,neutral,neutral,141ms,38,37.0,1.0
EMOCONPILOT005_120HZ,0.3157312000403181,neutral,neutral,141ms,40,39.0,1.0
EMOCONPILOT005_120HZ,0.3477995999855921,happy,happy,141ms,42,41.0,1.0
EMOCONPILOT005_120HZ,0.417233599931933,happy,happy,141ms,43,42.0,1.0
EMOCONPILOT005_120HZ,0.4086179999867454,sad,sad,141ms,44,43.0,1.0
EMOCONPILOT005_120HZ,0.3458944000303745,happy,happy,141ms,45,44.0,1.0
EMOCONPILOT005_120HZ,0.4017841999884695,sad,sad,141ms,46,45.0,1.0
EMOCONPILOT005_120HZ,0.31439810001757,happy,happy,141ms,48,47.0,1.0
EMOCONPILOT005_120HZ,0.7938297999789938,neutral,neutral,141ms,49,48.0,1.0
EMOCONPILOT005_120HZ,0.4337568000191823,neutral,neutral,141ms,55,54.0,1.0
EMOCONPILOT005_120HZ,0.3570357999997213,happy,happy,141ms,57,56.0,1.0
EMOCONPILOT005_120HZ,0.3727833000011742,neutral,neutral,141ms,58,57.0,1.0
EMOCONPILOT005_120HZ,0.33872430003248155,neutral,neutral,141ms,59,58.0,1.0
EMOCONPILOT005_120HZ,0.3577802999643609,neutral,neutral,141ms,60,59.0,1.0
EMOCONPILOT005_120HZ,0.3997653999831528,happy,happy,141ms,64,63.0,1.0
EMOCONPILOT005_120HZ,0.6247634999454021,sad,sad,141ms,66,65.0,1.0
EMOCONPILOT005_120HZ,0.3472314000828192,happy,happy,141ms,68,67.0,1.0
EMOCONPILOT005_120HZ,0.2890248999465257,happy,happy,141ms,69,68.0,1.0
EMOCONPILOT005_120HZ,0.430629099952057,happy,happy,141ms,72,71.0,1.0
EMOCONPILOT005_120HZ,0.30940869997721165,happy,happy,141ms,73,72.0,1.0
EMOCONPILOT005_120HZ,0.4425888999830931,sad,sad,141ms,74,73.0,1.0
EMOCONPILOT005_120HZ,0.4744090000167489,sad,sad,141ms,76,75.0,1.0
EMOCONPILOT005_120HZ,0.39319880004040897,sad,neutral,141ms,77,76.0,1.0
EMOCONPILOT005_120HZ,0.5837616999633609,neutral,sad,141ms,78,77.0,1.0
EMOCONPILOT005_120HZ,0.4654369000345469,happy,happy,141ms,79,78.0,1.0
EMOCONPILOT005_120HZ,0.4381055999547243,happy,happy,141ms,83,82.0,1.0
EMOCONPILOT005_120HZ,0.6533844000659883,neutral,sad,141ms,84,83.0,1.0
EMOCONPILOT005_120HZ,0.373633399954997,happy,happy,141ms,88,87.0,1.0
EMOCONPILOT005_120HZ,0.6967751999618486,sad,sad,141ms,90,89.0,1.0
EMOCONPILOT005_120HZ,0.4892083000158891,neutral,neutral,141ms,92,91.0,1.0
EMOCONPILOT005_120HZ,0.4937260000733658,neutral,sad,141ms,94,93.0,1.0
EMOCONPILOT005_120HZ,0.4897447000257671,sad,sad,141ms,96,95.0,1.0
EMOCONPILOT005_120HZ,0.3500846000388265,happy,happy,141ms,98,97.0,1.0
EMOCONPILOT005_120HZ,0.5334134000586346,neutral,neutral,141ms,99,98.0,1.0
EMOCONPILOT005_120HZ,0.35809080000035465,happy,happy,141ms,103,102.0,1.0
EMOCONPILOT005_120HZ,0.5948726999340579,sad,sad,141ms,121,0.0,2.0
EMOCONPILOT005_120HZ,0.5507743000052869,sad,sad,141ms,124,3.0,2.0
EMOCONPILOT005_120HZ,0.5369981999974698,neutral,neutral,141ms,125,4.0,2.0
EMOCONPILOT005_120HZ,0.5143907000310719,neutral,neutral,141ms,126,5.0,2.0
EMOCONPILOT005_120HZ,0.7750945999287069,sad,sad,141ms,127,6.0,2.0
EMOCONPILOT005_120HZ,0.4626011999789626,neutral,neutral,141ms,128,7.0,2.0
EMOCONPILOT005_120HZ,0.5615455999504775,sad,sad,141ms,130,9.0,2.0
EMOCONPILOT005_120HZ,0.6396860999520868,neutral,neutral,141ms,132,11.0,2.0
EMOCONPILOT005_120HZ,0.4624226000159979,happy,happy,141ms,134,13.0,2.0
EMOCONPILOT005_120HZ,0.465696300030686,neutral,neutral,141ms,136,15.0,2.0
EMOCONPILOT005_120HZ,0.6362296999432147,sad,sad,141ms,139,18.0,2.0
EMOCONPILOT005_120HZ,0.5692787999287248,neutral,neutral,141ms,144,23.0,2.0
EMOCONPILOT005_120HZ,0.3393930000020191,neutral,neutral,141ms,145,24.0,2.0
EMOCONPILOT005_120HZ,0.3687502999091521,happy,happy,141ms,146,25.0,2.0
EMOCONPILOT005_120HZ,0.3938921000808477,happy,happy,141ms,148,27.0,2.0
EMOCONPILOT005_120HZ,0.4229819999309257,neutral,sad,141ms,149,28.0,2.0
EMOCONPILOT005_120HZ,0.6397359999828041,happy,happy,141ms,150,29.0,2.0
EMOCONPILOT005_120HZ,0.4110024000983685,happy,happy,141ms,152,31.0,2.0
EMOCONPILOT005_120HZ,1.0228684999747202,sad,sad,141ms,154,33.0,2.0
EMOCONPILOT005_120HZ,0.5255973000312224,neutral,neutral,141ms,155,34.0,2.0
EMOCONPILOT005_120HZ,0.3826496000401676,happy,happy,141ms,156,35.0,2.0
EMOCONPILOT005_120HZ,0.3353026000550017,neutral,neutral,141ms,157,36.0,2.0
EMOCONPILOT005_120HZ,0.3326842000242323,happy,happy,141ms,159,38.0,2.0
EMOCONPILOT005_120HZ,0.5019190999446437,neutral,neutral,141ms,162,41.0,2.0
EMOCONPILOT005_120HZ,0.362633700016886,happy,happy,141ms,163,42.0,2.0
EMOCONPILOT005_120HZ,0.880404100054875,happy,happy,141ms,164,43.0,2.0
EMOCONPILOT005_120HZ,0.5072394999442622,neutral,sad,141ms,165,44.0,2.0
EMOCONPILOT005_120HZ,0.4602546999230981,neutral,neutral,141ms,167,46.0,2.0
EMOCONPILOT005_120HZ,0.3899147999472916,happy,happy,141ms,168,47.0,2.0
EMOCONPILOT005_120HZ,0.2814199000131339,neutral,neutral,141ms,169,48.0,2.0
EMOCONPILOT005_120HZ,0.3773490000749007,happy,happy,141ms,171,50.0,2.0
EMOCONPILOT005_120HZ,0.3301384999649599,happy,happy,141ms,173,52.0,2.0
EMOCONPILOT005_120HZ,0.5702209000010043,happy,happy,141ms,174,53.0,2.0
EMOCONPILOT005_120HZ,0.5269361999817193,happy,happy,141ms,175,54.0,2.0
EMOCONPILOT005_120HZ,0.5767357000149786,happy,happy,141ms,176,55.0,2.0
EMOCONPILOT005_120HZ,0.4453357999445871,neutral,neutral,141ms,177,56.0,2.0
EMOCONPILOT005_120HZ,0.5666455000173299,sad,sad,141ms,178,57.0,2.0
EMOCONPILOT005_120HZ,0.5785668001044542,sad,sad,141ms,180,59.0,2.0
EMOCONPILOT005_120HZ,1.0313974000746384,happy,sad,141ms,182,61.0,2.0
EMOCONPILOT005_120HZ,0.4769126999890432,neutral,neutral,141ms,183,62.0,2.0
EMOCONPILOT005_120HZ,0.4084565999219194,sad,sad,141ms,184,63.0,2.0
EMOCONPILOT005_120HZ,0.3750199000351131,happy,happy,141ms,185,64.0,2.0
EMOCONPILOT005_120HZ,0.4482193000148982,sad,sad,141ms,189,68.0,2.0
EMOCONPILOT005_120HZ,0.6116805999772623,neutral,neutral,141ms,192,71.0,2.0
EMOCONPILOT005_120HZ,0.5540257999673486,neutral,neutral,141ms,197,76.0,2.0
EMOCONPILOT005_120HZ,0.5963192000053823,sad,sad,141ms,198,77.0,2.0
EMOCONPILOT005_120HZ,0.3602408999577165,neutral,neutral,141ms,199,78.0,2.0
EMOCONPILOT005_120HZ,0.6111581999575719,neutral,neutral,141ms,201,80.0,2.0
EMOCONPILOT005_120HZ,0.4794880000408739,happy,happy,141ms,204,83.0,2.0
EMOCONPILOT005_120HZ,0.4778215999249369,neutral,neutral,141ms,205,84.0,2.0
EMOCONPILOT005_120HZ,0.3462764999130741,happy,happy,141ms,207,86.0,2.0
EMOCONPILOT005_120HZ,0.3952760000247508,happy,happy,141ms,211,90.0,2.0
EMOCONPILOT005_120HZ,1.0488927999977022,sad,sad,141ms,215,94.0,2.0
EMOCONPILOT005_120HZ,0.4066917999880389,neutral,neutral,141ms,216,95.0,2.0
EMOCONPILOT005_120HZ,0.3865814000600949,happy,happy,141ms,217,96.0,2.0
EMOCONPILOT005_120HZ,0.6021524000680074,sad,sad,141ms,218,97.0,2.0
EMOCONPILOT005_120HZ,0.5612377999350429,sad,sad,141ms,219,98.0,2.0
EMOCONPILOT005_120HZ,0.4504549999255687,sad,sad,141ms,220,99.0,2.0
EMOCONPILOT005_120HZ,0.2834095999132842,happy,happy,141ms,222,101.0,2.0
EMOCONPILOT005_120HZ,0.8302523999009281,sad,sad,141ms,223,102.0,2.0
EMOCONPILOT005_120HZ,0.5428323999512941,happy,happy,141ms,241,0.0,3.0
EMOCONPILOT005_120HZ,0.4745375999482349,happy,happy,141ms,242,1.0,3.0
EMOCONPILOT005_120HZ,0.5303940000012517,neutral,sad,141ms,245,4.0,3.0
EMOCONPILOT005_120HZ,0.4202905000420287,neutral,neutral,141ms,246,5.0,3.0
EMOCONPILOT005_120HZ,0.4050549999810755,neutral,neutral,141ms,247,6.0,3.0
EMOCONPILOT005_120HZ,0.5271795999724418,happy,happy,141ms,250,9.0,3.0
EMOCONPILOT005_120HZ,0.4854853000724688,neutral,neutral,141ms,251,10.0,3.0
EMOCONPILOT005_120HZ,0.5780841000378132,neutral,neutral,141ms,253,12.0,3.0
EMOCONPILOT005_120HZ,0.602506099967286,sad,sad,141ms,257,16.0,3.0
EMOCONPILOT005_120HZ,0.5067888000048697,neutral,neutral,141ms,258,17.0,3.0
EMOCONPILOT005_120HZ,0.4556515000294894,sad,sad,141ms,259,18.0,3.0
EMOCONPILOT005_120HZ,0.36996230005752295,happy,happy,141ms,263,22.0,3.0
EMOCONPILOT005_120HZ,0.8371624000137672,sad,sad,141ms,267,26.0,3.0
EMOCONPILOT005_120HZ,0.465125699993223,happy,happy,141ms,269,28.0,3.0
EMOCONPILOT005_120HZ,0.37517889996524895,neutral,neutral,141ms,270,29.0,3.0
EMOCONPILOT005_120HZ,0.3832533999811858,neutral,neutral,141ms,271,30.0,3.0
EMOCONPILOT005_120HZ,0.8885781000135466,sad,sad,141ms,277,36.0,3.0
EMOCONPILOT005_120HZ,0.4889622000046074,neutral,neutral,141ms,280,39.0,3.0
EMOCONPILOT005_120HZ,0.3634525000816211,neutral,neutral,141ms,281,40.0,3.0
EMOCONPILOT005_120HZ,0.41097990004345775,happy,happy,141ms,284,43.0,3.0
EMOCONPILOT005_120HZ,0.3555761000607163,happy,happy,141ms,285,44.0,3.0
EMOCONPILOT005_120HZ,0.34081339999102056,sad,sad,141ms,288,47.0,3.0
EMOCONPILOT005_120HZ,0.5777581000002101,sad,sad,141ms,289,48.0,3.0
EMOCONPILOT005_120HZ,0.399858400109224,happy,happy,141ms,290,49.0,3.0
EMOCONPILOT005_120HZ,0.30361529998481274,happy,happy,141ms,292,51.0,3.0
EMOCONPILOT005_120HZ,0.4092842000536621,sad,sad,141ms,293,52.0,3.0
EMOCONPILOT005_120HZ,0.34059160004835576,sad,sad,141ms,295,54.0,3.0
EMOCONPILOT005_120HZ,0.326932099997066,happy,happy,141ms,299,58.0,3.0
EMOCONPILOT005_120HZ,1.4414415000937881,sad,sad,141ms,301,60.0,3.0
EMOCONPILOT005_120HZ,0.3651687999954447,happy,happy,141ms,302,61.0,3.0
EMOCONPILOT005_120HZ,0.31987310003023595,happy,happy,141ms,305,64.0,3.0
EMOCONPILOT005_120HZ,0.42175969993695617,sad,sad,141ms,308,67.0,3.0
EMOCONPILOT005_120HZ,0.5013065000530332,neutral,neutral,141ms,310,69.0,3.0
EMOCONPILOT005_120HZ,1.4558760999934748,happy,happy,141ms,311,70.0,3.0
EMOCONPILOT005_120HZ,0.4420293000293896,neutral,neutral,141ms,312,71.0,3.0
EMOCONPILOT005_120HZ,0.3796307999873534,sad,sad,141ms,313,72.0,3.0
EMOCONPILOT005_120HZ,0.6073545999825001,neutral,neutral,141ms,314,73.0,3.0
EMOCONPILOT005_120HZ,0.3633034999947995,happy,happy,141ms,315,74.0,3.0
EMOCONPILOT005_120HZ,0.3822312999982387,happy,happy,141ms,317,76.0,3.0
EMOCONPILOT005_120HZ,0.31013989995699376,happy,happy,141ms,318,77.0,3.0
EMOCONPILOT005_120HZ,0.3641112999757752,sad,sad,141ms,319,78.0,3.0
EMOCONPILOT005_120HZ,0.4535472999559715,sad,sad,141ms,321,80.0,3.0
EMOCONPILOT005_120HZ,0.3622407999355346,happy,happy,141ms,322,81.0,3.0
EMOCONPILOT005_120HZ,0.3144682999700308,happy,happy,141ms,325,84.0,3.0
EMOCONPILOT005_120HZ,0.6306433000136167,neutral,sad,141ms,328,87.0,3.0
EMOCONPILOT005_120HZ,0.4066405999474227,sad,sad,141ms,332,91.0,3.0
EMOCONPILOT005_120HZ,0.3997541000135243,happy,happy,141ms,333,92.0,3.0
EMOCONPILOT005_120HZ,0.41653909999877214,neutral,neutral,141ms,335,94.0,3.0
EMOCONPILOT005_120HZ,0.4086604000767693,sad,sad,141ms,337,96.0,3.0
EMOCONPILOT005_120HZ,0.5426296000368893,neutral,neutral,141ms,338,97.0,3.0
EMOCONPILOT005_120HZ,0.9294446000130848,sad,sad,141ms,341,100.0,3.0
EMOCONPILOT005_120HZ,0.4669566999655217,sad,sad,141ms,343,102.0,3.0
EMOCONPILOT005_120HZ,0.35759419994428754,happy,happy,141ms,344,103.0,3.0
EMOCONPILOT005_120HZ,0.5436329001095146,neutral,neutral,141ms,345,104.0,3.0
EMOCONPILOT005_120HZ,1.1641809999709951,neutral,neutral,141ms,347,106.0,3.0
EMOCONPILOT005_120HZ,0.3395485000219196,sad,sad,141ms,348,107.0,3.0
EMOCONPILOT005_120HZ,0.4602673000190407,happy,happy,141ms,353,112.0,3.0
EMOCONPILOT005_120HZ,0.394109099986963,sad,sad,141ms,354,113.0,3.0
EMOCONPILOT005_120HZ,0.4876311999978498,sad,sad,141ms,357,116.0,3.0
EMOCONPILOT006,0.8159640999510884,neutral,sad,8ms,245,4.0,3.0
EMOCONPILOT006,0.9068343000253662,neutral,neutral,8ms,246,5.0,3.0
EMOCONPILOT006,0.7344057000009343,happy,neutral,8ms,247,6.0,3.0
EMOCONPILOT006,0.6080547999590635,neutral,happy,8ms,250,9.0,3.0
EMOCONPILOT006,0.908288300037384,sad,sad,8ms,259,18.0,3.0
EMOCONPILOT006,1.4001927999779582,happy,neutral,8ms,261,20.0,3.0
EMOCONPILOT006,0.6867394999135286,neutral,happy,8ms,264,23.0,3.0
EMOCONPILOT006,0.5283470000140369,neutral,neutral,8ms,265,24.0,3.0
EMOCONPILOT006,0.5992961999727413,happy,sad,8ms,267,26.0,3.0
EMOCONPILOT006,0.639769300003536,neutral,happy,8ms,269,28.0,3.0
EMOCONPILOT006,1.3116139000048859,neutral,neutral,8ms,270,29.0,3.0
EMOCONPILOT006,0.689833499956876,neutral,neutral,8ms,271,30.0,3.0
EMOCONPILOT006,0.4973750000353903,neutral,sad,8ms,272,31.0,3.0
EMOCONPILOT006,0.6645536000141874,neutral,happy,8ms,276,35.0,3.0
EMOCONPILOT006,0.6293942999327555,happy,happy,8ms,278,37.0,3.0
EMOCONPILOT006,0.756410300033167,happy,neutral,8ms,280,39.0,3.0
EMOCONPILOT006,0.5665745999431238,neutral,neutral,8ms,281,40.0,3.0
EMOCONPILOT006,0.6798716000048444,neutral,happy,8ms,282,41.0,3.0
EMOCONPILOT006,0.4836077999789268,happy,sad,8ms,283,42.0,3.0
EMOCONPILOT006,0.5846642999676988,neutral,happy,8ms,285,44.0,3.0
EMOCONPILOT006,0.5461806999519467,neutral,sad,8ms,286,45.0,3.0
EMOCONPILOT006,0.4489540999056771,neutral,neutral,8ms,287,46.0,3.0
EMOCONPILOT006,0.5546233999775723,neutral,sad,8ms,288,47.0,3.0
EMOCONPILOT006,0.4435958999674767,neutral,sad,8ms,289,48.0,3.0
EMOCONPILOT006,0.5241562000010163,happy,neutral,8ms,291,50.0,3.0
EMOCONPILOT006,0.4331359999487177,happy,happy,8ms,292,51.0,3.0
EMOCONPILOT006,0.500905100023374,happy,sad,8ms,293,52.0,3.0
EMOCONPILOT006,0.565302100032568,neutral,neutral,8ms,298,57.0,3.0
EMOCONPILOT006,0.6971032000146806,neutral,happy,8ms,300,59.0,3.0
EMOCONPILOT006,0.5340265000704676,neutral,sad,8ms,301,60.0,3.0
EMOCONPILOT006,0.8101781000150368,neutral,happy,8ms,303,62.0,3.0
EMOCONPILOT006,0.5973377999616787,happy,neutral,8ms,304,63.0,3.0
EMOCONPILOT006,0.5320427999831736,happy,happy,8ms,305,64.0,3.0
EMOCONPILOT006,0.4707125000422821,neutral,sad,8ms,306,65.0,3.0
EMOCONPILOT006,0.5639578000409529,neutral,sad,8ms,308,67.0,3.0
EMOCONPILOT006,1.0592578999930993,happy,neutral,8ms,310,69.0,3.0
EMOCONPILOT006,0.5484597999602556,neutral,neutral,8ms,314,73.0,3.0
EMOCONPILOT006,0.8848211000440642,neutral,neutral,8ms,316,75.0,3.0
EMOCONPILOT006,0.6439486000454053,neutral,happy,8ms,317,76.0,3.0
EMOCONPILOT006,0.5183714000741021,neutral,happy,8ms,320,79.0,3.0
EMOCONPILOT006,0.4913565000751987,neutral,sad,8ms,321,80.0,3.0
EMOCONPILOT006,0.8461636999854818,happy,happy,8ms,325,84.0,3.0
EMOCONPILOT006,0.5673765999963507,neutral,happy,8ms,326,85.0,3.0
EMOCONPILOT006,0.5820297000464052,neutral,sad,8ms,327,86.0,3.0
EMOCONPILOT006,0.543059500050731,neutral,sad,8ms,329,88.0,3.0
EMOCONPILOT006,0.9556894999695942,sad,sad,8ms,330,89.0,3.0
EMOCONPILOT006,0.8757764999754727,neutral,sad,8ms,331,90.0,3.0
EMOCONPILOT006,0.6225449000485241,neutral,sad,8ms,332,91.0,3.0
EMOCONPILOT006,0.4436412999639288,neutral,happy,8ms,333,92.0,3.0
EMOCONPILOT006,0.3998580999905244,neutral,neutral,8ms,334,93.0,3.0
EMOCONPILOT006,0.4712903000181541,neutral,sad,8ms,336,95.0,3.0
EMOCONPILOT006,0.4631594000384212,neutral,neutral,8ms,338,97.0,3.0
EMOCONPILOT006,0.5078058000653982,neutral,sad,8ms,341,100.0,3.0
EMOCONPILOT006,0.5388919999822974,neutral,neutral,8ms,342,101.0,3.0
EMOCONPILOT006,0.5878523999126628,neutral,sad,8ms,343,102.0,3.0
EMOCONPILOT006,0.4235223999712616,neutral,happy,8ms,344,103.0,3.0
EMOCONPILOT006,0.5561097000027075,neutral,neutral,8ms,345,104.0,3.0
EMOCONPILOT006,0.5060594000387937,neutral,happy,8ms,346,105.0,3.0
EMOCONPILOT006,1.3688739999197423,neutral,happy,8ms,352,111.0,3.0
EMOCONPILOT006,0.5393421000335366,neutral,happy,8ms,353,112.0,3.0
EMOCONPILOT006,1.1954478999832645,neutral,sad,16ms,121,0.0,2.0
EMOCONPILOT006,1.0927316000452263,neutral,neutral,16ms,125,4.0,2.0
EMOCONPILOT006,0.9455735000083224,neutral,neutral,16ms,126,5.0,2.0
EMOCONPILOT006,0.5775996999582276,neutral,sad,16ms,127,6.0,2.0
EMOCONPILOT006,1.4653346999548376,neutral,sad,16ms,129,8.0,2.0
EMOCONPILOT006,0.6538916999706998,neutral,sad,16ms,130,9.0,2.0
EMOCONPILOT006,0.835807399940677,neutral,neutral,16ms,131,10.0,2.0
EMOCONPILOT006,0.6749264999525622,happy,sad,16ms,133,12.0,2.0
EMOCONPILOT006,0.3903532000258565,happy,happy,16ms,134,13.0,2.0
EMOCONPILOT006,0.5516020000213757,happy,neutral,16ms,136,15.0,2.0
EMOCONPILOT006,0.5136463000671938,neutral,neutral,16ms,137,16.0,2.0
EMOCONPILOT006,0.5719650000100955,happy,happy,16ms,138,17.0,2.0
EMOCONPILOT006,0.5754049000097439,happy,happy,16ms,141,20.0,2.0
EMOCONPILOT006,0.5843404000625014,happy,neutral,16ms,145,24.0,2.0
EMOCONPILOT006,0.7168115000240505,happy,happy,16ms,148,27.0,2.0
EMOCONPILOT006,0.4698511000024155,happy,happy,16ms,152,31.0,2.0
EMOCONPILOT006,0.4430263000540435,happy,neutral,16ms,153,32.0,2.0
EMOCONPILOT006,0.7274935999885201,neutral,neutral,16ms,155,34.0,2.0
EMOCONPILOT006,0.4643897999776527,happy,happy,16ms,156,35.0,2.0
EMOCONPILOT006,0.5587475000647828,happy,sad,16ms,165,44.0,2.0
EMOCONPILOT006,0.6171900000190362,happy,neutral,16ms,166,45.0,2.0
EMOCONPILOT006,0.5189258001046255,happy,happy,16ms,170,49.0,2.0
EMOCONPILOT006,0.4409847999922931,happy,happy,16ms,173,52.0,2.0
EMOCONPILOT006,0.4855361999943853,happy,happy,16ms,174,53.0,2.0
EMOCONPILOT006,0.5498177000554278,happy,sad,16ms,178,57.0,2.0
EMOCONPILOT006,1.1739579000277445,sad,sad,16ms,180,59.0,2.0
EMOCONPILOT006,0.6069251000881195,happy,sad,16ms,182,61.0,2.0
EMOCONPILOT006,0.6302952999249101,neutral,neutral,16ms,183,62.0,2.0
EMOCONPILOT006,0.5966951000737026,happy,happy,16ms,185,64.0,2.0
EMOCONPILOT006,0.6273686001077294,neutral,neutral,16ms,186,65.0,2.0
EMOCONPILOT006,0.5526810999726877,happy,happy,16ms,188,67.0,2.0
EMOCONPILOT006,0.7227507999632508,neutral,neutral,16ms,197,76.0,2.0
EMOCONPILOT006,0.6890205999370664,neutral,sad,16ms,198,77.0,2.0
EMOCONPILOT006,0.5524204999674112,neutral,neutral,16ms,199,78.0,2.0
EMOCONPILOT006,0.4751655999571085,happy,happy,16ms,200,79.0,2.0
EMOCONPILOT006,0.5947996000759304,neutral,neutral,16ms,201,80.0,2.0
EMOCONPILOT006,0.511202699970454,happy,happy,16ms,202,81.0,2.0
EMOCONPILOT006,0.4922979000257328,happy,happy,16ms,203,82.0,2.0
EMOCONPILOT006,0.6661020000465214,happy,happy,16ms,207,86.0,2.0
EMOCONPILOT006,0.7204393999418244,happy,neutral,16ms,214,93.0,2.0
EMOCONPILOT006,0.5776774999685585,happy,sad,16ms,215,94.0,2.0
EMOCONPILOT006,1.359199299942702,neutral,sad,16ms,218,97.0,2.0
EMOCONPILOT006,1.1381903999717906,sad,sad,16ms,219,98.0,2.0
EMOCONPILOT006,0.5308096000226215,happy,happy,16ms,222,101.0,2.0
EMOCONPILOT006,0.6070274999365209,happy,happy,16ms,225,104.0,2.0
EMOCONPILOT006,0.9152342999586836,neutral,neutral,16ms,226,105.0,2.0
EMOCONPILOT006,0.7227901999140158,happy,happy,16ms,228,107.0,2.0
EMOCONPILOT006,0.5195397000061348,happy,sad,16ms,229,108.0,2.0
EMOCONPILOT006,0.4838463000487536,happy,sad,16ms,230,109.0,2.0
EMOCONPILOT006,0.4286217000335455,happy,happy,16ms,231,110.0,2.0
EMOCONPILOT006,0.5217464999295771,happy,neutral,16ms,232,111.0,2.0
EMOCONPILOT006,0.5714658000506461,happy,sad,16ms,233,112.0,2.0
EMOCONPILOT006,0.5027406999142839,happy,happy,16ms,234,113.0,2.0
EMOCONPILOT006,0.4936535001033917,happy,sad,16ms,235,114.0,2.0
EMOCONPILOT006,0.5347916999598965,happy,happy,16ms,236,115.0,2.0
EMOCONPILOT006,0.399044300080277,happy,neutral,16ms,237,116.0,2.0
EMOCONPILOT006,0.5608894999604672,neutral,neutral,16ms,238,117.0,2.0
EMOCONPILOT006,0.8336033999221399,neutral,neutral,16ms,239,118.0,2.0
EMOCONPILOT006,0.4719907999970019,neutral,sad,16ms,240,119.0,2.0
EMOCONPILOT006,0.6316885999403894,happy,sad,25ms,3,2.0,1.0
EMOCONPILOT006,0.9059460000135005,sad,sad,25ms,6,5.0,1.0
EMOCONPILOT006,0.8341002000961453,neutral,neutral,25ms,7,6.0,1.0
EMOCONPILOT006,0.5525699999416247,happy,happy,25ms,9,8.0,1.0
EMOCONPILOT006,0.5515167999546975,happy,happy,25ms,11,10.0,1.0
EMOCONPILOT006,1.0998684000223875,happy,neutral,25ms,13,12.0,1.0
EMOCONPILOT006,0.5490584000945091,happy,neutral,25ms,16,15.0,1.0
EMOCONPILOT006,0.6699673000257462,neutral,neutral,25ms,30,29.0,1.0
EMOCONPILOT006,0.5177917999681085,happy,neutral,25ms,35,34.0,1.0
EMOCONPILOT006,0.39856669993605465,happy,happy,25ms,36,35.0,1.0
EMOCONPILOT006,0.5044286999618635,neutral,neutral,25ms,40,39.0,1.0
EMOCONPILOT006,0.5909705000231043,happy,happy,25ms,42,41.0,1.0
EMOCONPILOT006,0.8519560999702662,neutral,neutral,25ms,50,49.0,1.0
EMOCONPILOT006,0.8313102000392973,neutral,neutral,25ms,55,54.0,1.0
EMOCONPILOT006,0.6237487000180408,happy,neutral,25ms,59,58.0,1.0
EMOCONPILOT006,0.7442063000053167,neutral,sad,25ms,61,60.0,1.0
EMOCONPILOT006,0.8295944000128657,neutral,neutral,25ms,62,61.0,1.0
EMOCONPILOT006,0.7178442000877112,neutral,sad,25ms,80,79.0,1.0
EMOCONPILOT006,0.5673570999642834,happy,happy,25ms,83,82.0,1.0
EMOCONPILOT006,0.6952860000310466,neutral,sad,25ms,85,84.0,1.0
EMOCONPILOT006,0.6037281000753865,neutral,neutral,25ms,92,91.0,1.0
EMOCONPILOT006,0.6694086999632418,happy,neutral,25ms,99,98.0,1.0
EMOCONPILOT006,0.5705978999612853,neutral,neutral,25ms,101,100.0,1.0
EMOCONPILOT006,0.7638376000104472,happy,sad,25ms,102,101.0,1.0
EMOCONPILOT006,0.4375527000520377,happy,happy,25ms,103,102.0,1.0
EMOCONPILOT006,0.8859346000244841,sad,sad,25ms,104,103.0,1.0
EMOCONPILOT006,0.5372723999898881,happy,sad,25ms,105,104.0,1.0
EMOCONPILOT006,0.5792912999168038,neutral,neutral,25ms,110,109.0,1.0
EMOCONPILOT006,0.34925259998999536,happy,happy,25ms,112,111.0,1.0
EMOCONPILOT006,0.6383752999827266,sad,sad,25ms,114,113.0,1.0
EMOCONPILOT006,0.4677628999343142,neutral,happy,25ms,115,114.0,1.0
EMOCONPILOT006,0.438236300018616,happy,happy,25ms,116,115.0,1.0
EMOCONPILOT006,0.5852207000134513,sad,sad,25ms,117,116.0,1.0
EMOCONPILOT006,0.6042815999826416,neutral,neutral,25ms,118,117.0,1.0
EMOCONPILOT006,0.9484773000003772,sad,neutral,25ms,119,118.0,1.0
EMOCONPILOT006,0.590250700013712,neutral,neutral,25ms,120,119.0,1.0
EMOCONPILOT006,0.6348790000192821,sad,sad,141ms,12,11.0,1.0
EMOCONPILOT006,0.44282349990680814,happy,happy,141ms,14,13.0,1.0
EMOCONPILOT006,0.3625977999763563,happy,happy,141ms,15,14.0,1.0
EMOCONPILOT006,0.6368046000134201,sad,sad,141ms,17,16.0,1.0
EMOCONPILOT006,0.4998359999153763,sad,sad,141ms,23,22.0,1.0
EMOCONPILOT006,0.3358806000323966,happy,happy,141ms,24,23.0,1.0
EMOCONPILOT006,0.1660538000287488,happy,happy,141ms,25,24.0,1.0
EMOCONPILOT006,0.5388772999867797,sad,sad,141ms,39,38.0,1.0
EMOCONPILOT006,0.7682391999987885,sad,sad,141ms,41,40.0,1.0
EMOCONPILOT006,0.4989717999706045,sad,sad,141ms,44,43.0,1.0
EMOCONPILOT006,0.3975312999682501,sad,sad,141ms,46,45.0,1.0
EMOCONPILOT006,0.3966473999898881,happy,happy,141ms,51,50.0,1.0
EMOCONPILOT006,0.3740781999658793,happy,happy,141ms,64,63.0,1.0
EMOCONPILOT006,0.3920223000459373,happy,happy,141ms,65,64.0,1.0
EMOCONPILOT006,0.6800471000606194,sad,sad,141ms,66,65.0,1.0
EMOCONPILOT006,0.3945713998982683,happy,happy,141ms,69,68.0,1.0
EMOCONPILOT006,0.3386374999536201,happy,happy,141ms,71,70.0,1.0
EMOCONPILOT006,0.43911819998174906,neutral,sad,141ms,78,77.0,1.0
EMOCONPILOT006,0.957789000007324,sad,sad,141ms,81,80.0,1.0
EMOCONPILOT006,0.6399410999147221,sad,sad,141ms,86,85.0,1.0
EMOCONPILOT006,0.6425471999682486,sad,sad,141ms,89,88.0,1.0
EMOCONPILOT006,0.6061771999811754,neutral,sad,141ms,94,93.0,1.0
EMOCONPILOT006,0.4875964999664575,neutral,sad,141ms,100,99.0,1.0
EMOCONPILOT006,0.5726351999910548,sad,sad,141ms,124,3.0,2.0
EMOCONPILOT006,1.3149348999140784,sad,sad,141ms,139,18.0,2.0
EMOCONPILOT006,0.3820602999767289,happy,happy,141ms,140,19.0,2.0
EMOCONPILOT006,0.2764632999897003,happy,happy,141ms,142,21.0,2.0
EMOCONPILOT006,0.4040864000562577,sad,sad,141ms,143,22.0,2.0
EMOCONPILOT006,0.38109000003896654,happy,happy,141ms,146,25.0,2.0
EMOCONPILOT006,0.6709350000601262,neutral,sad,141ms,149,28.0,2.0
EMOCONPILOT006,0.3884404000127688,happy,happy,141ms,151,30.0,2.0
EMOCONPILOT006,0.7472060000291094,sad,sad,141ms,154,33.0,2.0
EMOCONPILOT006,0.4247454000869766,happy,happy,141ms,160,39.0,2.0
EMOCONPILOT006,0.3307163000572473,happy,happy,141ms,161,40.0,2.0
EMOCONPILOT006,0.4065285000251606,happy,happy,141ms,163,42.0,2.0
EMOCONPILOT006,0.368934900034219,happy,happy,141ms,175,54.0,2.0
EMOCONPILOT006,0.2685812000418082,happy,happy,141ms,176,55.0,2.0
EMOCONPILOT006,0.4480778999859467,sad,sad,141ms,184,63.0,2.0
EMOCONPILOT006,0.6825451999902725,neutral,sad,141ms,187,66.0,2.0
EMOCONPILOT006,0.6504152999259531,sad,sad,141ms,196,75.0,2.0
EMOCONPILOT006,0.3856735998997465,happy,happy,141ms,204,83.0,2.0
EMOCONPILOT006,0.7704185000620782,sad,sad,141ms,208,87.0,2.0
EMOCONPILOT006,0.372064600000158,sad,sad,141ms,209,88.0,2.0
EMOCONPILOT006,0.3938169999746606,happy,happy,141ms,210,89.0,2.0
EMOCONPILOT006,0.4216761999996379,happy,happy,141ms,211,90.0,2.0
EMOCONPILOT006,0.4440471000270918,neutral,sad,141ms,212,91.0,2.0
EMOCONPILOT006,0.749713100027293,neutral,sad,141ms,213,92.0,2.0
EMOCONPILOT006,0.4072137000039221,happy,happy,141ms,217,96.0,2.0
EMOCONPILOT006,0.6704824999906123,sad,sad,141ms,243,2.0,3.0
EMOCONPILOT006,0.5462819000240415,sad,sad,141ms,255,14.0,3.0
EMOCONPILOT006,0.5112942999694496,sad,sad,141ms,257,16.0,3.0
EMOCONPILOT006,0.5130632999353111,sad,sad,141ms,262,21.0,3.0
EMOCONPILOT006,0.6978407000424339,sad,sad,141ms,274,33.0,3.0
EMOCONPILOT006,0.5858336000237614,sad,sad,141ms,277,36.0,3.0
EMOCONPILOT006,0.4164384000468999,happy,happy,141ms,284,43.0,3.0
EMOCONPILOT006,0.4849486999446526,sad,sad,141ms,295,54.0,3.0
EMOCONPILOT006,0.5967091999482363,happy,happy,141ms,296,55.0,3.0
EMOCONPILOT006,0.8691053999355063,sad,sad,141ms,297,56.0,3.0
EMOCONPILOT006,0.719106899923645,neutral,sad,141ms,307,66.0,3.0
EMOCONPILOT006,0.3712418000213802,sad,sad,141ms,313,72.0,3.0
EMOCONPILOT006,0.41058270004577935,happy,happy,141ms,315,74.0,3.0
EMOCONPILOT006,0.6858581999549642,happy,happy,141ms,322,81.0,3.0
EMOCONPILOT006,0.6609745000023395,happy,happy,141ms,324,83.0,3.0
EMOCONPILOT006,0.4174324999330565,neutral,sad,141ms,328,87.0,3.0
EMOCONPILOT006,0.6253189999843016,sad,sad,141ms,337,96.0,3.0
EMOCONPILOT006,0.4548789000837132,happy,happy,141ms,339,98.0,3.0
EMOCONPILOT006,0.5192880000686273,sad,sad,141ms,340,99.0,3.0
EMOCONPILOT006,0.630759899970144,neutral,sad,141ms,350,109.0,3.0
EMOCONPILOT006,0.4422334999544546,sad,sad,141ms,354,113.0,3.0
EMOCONPILOT006,0.5056418000021949,sad,sad,141ms,356,115.0,3.0
EMOCONPILOT006,0.5323043999960646,sad,sad,141ms,357,116.0,3.0
EMOCONPILOT006,0.5617985000135377,neutral,sad,141ms,358,117.0,3.0
EMOCONPILOT006,0.4240621000062674,happy,happy,141ms,360,119.0,3.0
EMOCONPILOT007,0.9556956000160426,happy,happy,8ms,249,8.0,3.0
EMOCONPILOT007,0.9023494999855756,neutral,happy,8ms,276,35.0,3.0
EMOCONPILOT007,1.2825271000619978,happy,happy,8ms,322,81.0,3.0
EMOCONPILOT007,1.0845350000308829,happy,happy,8ms,333,92.0,3.0
EMOCONPILOT007,1.4898240000475198,neutral,neutral,8ms,342,101.0,3.0
EMOCONPILOT007,1.0274825000669807,neutral,neutral,8ms,355,114.0,3.0
EMOCONPILOT007,1.1948510999791324,happy,neutral,8ms,359,118.0,3.0
EMOCONPILOT007,1.2920963000506165,neutral,sad,16ms,121,0.0,2.0
EMOCONPILOT007,1.0804400000488386,neutral,neutral,16ms,136,15.0,2.0
