Person;primeGender;prime;primeEmotion;corrAnsPrime;targetPerson;targetGender;target;targetEmotion;Cond;corrAnsTar;gender;condition;ID_primer;ID_target;PrimerTime;PrimerTime120;JitterTime;conditionsFile;primePerson;emotion_condition;Condition;example.thisRepN;example.thisTrialN;example.thisN;example.thisIndex;readinBlocks.thisRepN;readinBlocks.thisTrialN;readinBlocks.thisN;readinBlocks.thisIndex;trials.thisRepN;trials.thisTrialN;trials.thisN;trials.thisIndex;text_intro.started;text_intro.stopped;text_probe.started;text_probe.stopped;key_resp_2.keys;key_resp_2.rt;key_resp_2.started;key_resp_2.stopped;polygon_ISI.started;polygon_ISI.stopped;polygon.started;polygon.stopped;primerImage.started;primerImage.stopped;maskImage.started;maskImage.stopped;response.started;response.stopped;key_resp.keys;key_resp.corr;key_resp.started;key_resp.stopped;text.started;text.stopped;key_resp_Rating.keys;key_resp_Rating.rt;key_resp_Rating.started;key_resp_Rating.stopped;text_start.started;text_start.stopped;text_pause.started;text_pause.stopped;key_resp.rt;text_ende.started;text_ende.stopped;participant;date;expName;psychopyVersion;frameRate;
;;;;;;;;;;;;;;;;;;;;;;;;;;;;;;;;;;150.26246600000013;155.2358463999999;155.2358463999999;None;6;34.25172729999986;150.26246600000013;None;;;;;;;;;;;;;;;;;;;;;;;;;;;;Emoconpilot040;2021_Dec_15_1247;BackwardMask;2020.2.8;119.87173724068587;
2;f;1113_y_f_s_a.jpg;sad;7;1;m;1111_m_m_h_a.jpg;happy;incongruent;9;mix;s+h;130;150;1;2;148;;;;;0;0;0;0;;;;;;;;;;;;;;;;;184.5964469999999;None;185.88770239999985;186.19729049999978;186.19729049999978;186.22659669999985;186.22659669999985;186.2601227;186.2601227;None;None;0;186.2601227;None;187.7617565999999;None;['8'];[2.5684445000001688];187.7617565999999;None;;;;;;;;Emoconpilot040;2021_Dec_15_1247;BackwardMask;2020.2.8;119.87173724068587;
2;f;1111_m_m_h_a.jpg;happy;9;3;f;1113_y_f_s_a.jpg;sad;incongruent;7;mix;h+s;120;160;9;18;195;;;;;0;1;1;1;;;;;;;;;;;;;;;;;190.7613126000001;None;192.41346250000015;192.70332039999994;192.70332039999994;192.85287789999984;192.85287789999984;192.89355369999976;192.89355369999976;None;None;0;192.89355369999976;None;194.3937209999999;None;['7'];[2.8244346000001315];194.3937209999999;None;;;;;;;;Emoconpilot040;2021_Dec_15_1247;BackwardMask;2020.2.8;119.87173724068587;
2;f;1112_m_f_n_a.jpg;neutral;8;2;f;1112_m_f_n_a.jpg;neutral;congruent;8;match;n+n;140;170;9;18;134;;;;;0;2;2;2;;;;;;;;;;;;;;;;;197.39381249999997;None;198.5364970999999;198.82864440000003;198.82864440000003;198.97796310000012;198.97796310000012;199.01875979999977;199.01875979999977;None;None;0;199.01875979999977;None;200.51897599999984;None;['7'];[0.10716470000033951];200.51897599999984;None;;;;;;;;Emoconpilot040;2021_Dec_15_1247;BackwardMask;2020.2.8;119.87173724068587;
;m;033_o_m_h_a.jpg;happy;9;30;f;030_o_f_n_a.jpg;neutral;incongruent;8;mismatch;;120;170;;18;238;block1_Pilot_2;33;h_n;h_n_strong;;;;;0;0;0;0;0;0;0;0;;;;;;;;;204.56681909999998;None;206.56147980000014;206.85320009999987;206.85320009999987;207.00318579999976;207.00318579999976;207.0439907;207.0439907;None;8;1;207.0439907;None;208.54480620000004;None;None;;208.54480620000004;None;203.51928480000015;None;None;None;0.9420097000001988;;;Emoconpilot040;2021_Dec_15_1247;BackwardMask;2020.2.8;119.87173724068587;
;m;004_o_m_h_a.jpg;happy;9;12;f;012_o_f_h_a.jpg;happy;congruent;9;mismatch;;120;150;;2;218;block1_Pilot_2;4;h_h;h_h_weak;;;;;0;0;0;0;0;1;1;1;;;;;;;;;211.54466279999997;None;213.4280091999999;213.72032519999993;213.72032519999993;213.73658979999982;213.73658979999982;213.77737539999998;213.77737539999998;None;None;0;213.77737539999998;None;215.2773972;None;['8'];[0.6367909000000509];215.2773972;None;;;;;;;;Emoconpilot040;2021_Dec_15_1247;BackwardMask;2020.2.8;119.87173724068587;
;f;012_o_f_h_a.jpg;happy;9;33;m;033_o_m_h_a.jpg;happy;congruent;9;mismatch;;120;150;;2;140;block1_Pilot_2;12;h_h;h_h_weak;;;;;0;0;0;0;0;2;2;2;;;;;;;;;218.27817820000018;None;219.45734110000012;219.75364600000012;219.75364600000012;219.7700337000001;219.7700337000001;219.81092360000002;219.81092360000002;None;None;0;219.81092360000002;None;221.3110268999999;None;['8'];[0.603157900000042];221.3110268999999;None;;;;;;;;Emoconpilot040;2021_Dec_15_1247;BackwardMask;2020.2.8;119.87173724068587;
;f;040_y_f_n_a.jpg;neutral;8;40;f;040_y_f_h_a.jpg;happy;incongruent;9;match;;140;150;;2;192;block1_Pilot_2;40;n_h;n_h_weak;;;;;0;0;0;0;0;3;3;3;;;;;;;;;224.31108540000014;None;225.93761210000002;226.22896889999993;226.22896889999993;226.24524840000004;226.24524840000004;226.28603999999996;226.28603999999996;None;None;0;226.28603999999996;None;227.78693369999974;None;None;;227.78693369999974;None;;;;;;;;Emoconpilot040;2021_Dec_15_1247;BackwardMask;2020.2.8;119.87173724068587;
;m;013_y_m_s_a.jpg;sad;7;16;m;016_y_m_n_a.jpg;neutral;incongruent;8;match;;130;170;;3;155;block1_Pilot_2;13;s_n;s_n_weak;;;;;0;0;0;0;0;4;4;4;;;;;;;;;230.78602769999998;None;232.0901571999998;232.37861639999983;232.37861639999983;232.4034740000002;232.4034740000002;232.4445040999999;232.4445040999999;None;None;0;232.4445040999999;None;233.94573619999983;None;['9'];[1.0084481999997479];233.94573619999983;None;;;;;;;;Emoconpilot040;2021_Dec_15_1247;BackwardMask;2020.2.8;119.87173724068587;
;f;012_o_f_h_a.jpg;happy;9;21;f;021_o_f_h_a.jpg;happy;congruent;9;match;;120;150;;2;216;block1_Pilot_2;12;h_h;h_h_strong;;;;;0;0;0;0;0;5;5;5;;;;;;;;;236.94519050000008;None;238.75269609999987;239.0456767999999;239.0456767999999;239.0620101999998;239.0620101999998;239.10291700000016;239.10291700000016;None;None;0;239.10291700000016;None;240.60298479999983;None;['9'];[1.1032543999999689];240.60298479999983;None;;;;;;;;Emoconpilot040;2021_Dec_15_1247;BackwardMask;2020.2.8;119.87173724068587;
;f;040_y_f_s_a.jpg;sad;7;40;f;040_y_f_h_a.jpg;happy;incongruent;9;match;;130;150;;1;238;block1_Pilot_2;40;s_h;s_h_weak;;;;;0;0;0;0;0;6;6;6;;;;;;;;;243.60309629999983;None;245.59879300000011;245.88728600000013;245.88728600000013;245.8954101999998;245.8954101999998;245.93632100000013;245.93632100000013;None;None;0;245.93632100000013;None;247.4362046000001;None;['9'];[0.6937791999998808];247.4362046000001;None;;;;;;;;Emoconpilot040;2021_Dec_15_1247;BackwardMask;2020.2.8;119.87173724068587;
;m;033_o_m_n_a.jpg;neutral;8;27;m;027_o_m_n_a.jpg;neutral;congruent;8;match;;140;170;;18;238;block1_Pilot_2;33;n_n;n_n_weak;;;;;0;0;0;0;0;7;7;7;;;;;;;;;250.43694000000005;None;252.46512299999995;252.75457920000008;252.75457920000008;252.90394990000004;252.90394990000004;252.9448324;252.9448324;None;8;1;252.9448324;None;254.4457096000001;None;['7'];[0.6843775000002097];254.4457096000001;None;;;;;0.8812821999999869;;;Emoconpilot040;2021_Dec_15_1247;BackwardMask;2020.2.8;119.87173724068587;
;f;040_y_f_h_a.jpg;happy;9;19;f;019_m_f_n_a.jpg;neutral;incongruent;8;match;;120;170;;1;238;block1_Pilot_2;40;h_n;h_n_strong;;;;;0;0;0;0;0;8;8;8;;;;;;;;;257.4456476999999;None;259.44061869999996;259.7294326000001;259.7294326000001;259.7374568;259.7374568;259.7782708;259.7782708;None;None;0;259.7782708;None;261.27832469999976;None;['9'];[1.0437403999999333];261.27832469999976;None;;;;;;;;Emoconpilot040;2021_Dec_15_1247;BackwardMask;2020.2.8;119.87173724068587;
;m;013_y_m_h_a.jpg;happy;9;12;f;012_o_f_s_a.jpg;sad;incongruent;7;mismatch;;120;160;;3;198;block1_Pilot_2;13;h_s;h_s_weak;;;;;0;0;0;0;0;9;9;9;;;;;;;;;264.2784074000001;None;265.96274200000016;266.2548203000001;266.2548203000001;266.27922320000016;266.27922320000016;266.32005879999997;266.32005879999997;None;9;0;266.32005879999997;None;267.8200984;None;['7'];[0.5818315000001348];267.8200984;None;;;;;1.1860867999998845;;;Emoconpilot040;2021_Dec_15_1247;BackwardMask;2020.2.8;119.87173724068587;
;m;008_y_m_h_a.jpg;happy;9;4;m;004_o_m_n_a.jpg;neutral;incongruent;8;match;;120;170;;18;150;block1_Pilot_2;8;h_n;h_n_strong;;;;;0;0;0;0;0;10;10;10;;;;;;;;;270.82122249999975;None;272.08191529999976;272.37110870000015;272.37110870000015;272.5210397999999;272.5210397999999;272.5619293;272.5619293;None;9;0;272.5619293;None;274.06198289999975;None;['7'];[1.204016600000159];274.06198289999975;None;;;;;1.1039248000001862;;;Emoconpilot040;2021_Dec_15_1247;BackwardMask;2020.2.8;119.87173724068587;
;f;019_m_f_h_a.jpg;happy;9;27;m;027_o_m_s_a.jpg;sad;incongruent;7;mismatch;;120;160;;1;238;block1_Pilot_2;19;h_s;h_s_weak;;;;;0;0;0;0;0;11;11;11;;;;;;;;;277.0622695000002;None;279.0566503;279.3463049000002;279.3463049000002;279.3543252999998;279.3543252999998;279.39552030000004;279.39552030000004;None;None;0;279.39552030000004;None;280.8953164999998;None;['9'];[0.6826584999998886];280.8953164999998;None;;;;;;;;Emoconpilot040;2021_Dec_15_1247;BackwardMask;2020.2.8;119.87173724068587;
;m;016_y_m_s_a.jpg;sad;7;4;m;004_o_m_s_a.jpg;sad;congruent;7;match;;130;160;;18;142;block1_Pilot_2;16;s_s;s_s_strong;;;;;0;0;0;0;0;12;12;12;;;;;;;;;283.8956142000002;None;285.0879414000001;285.38001510000004;285.38001510000004;285.5296051999999;285.5296051999999;285.5704467999999;285.5704467999999;None;7;1;285.5704467999999;None;287.07060999999976;None;['7'];[0.7872333000000253];287.07060999999976;None;;;;;0.6955109999998967;;;Emoconpilot040;2021_Dec_15_1247;BackwardMask;2020.2.8;119.87173724068587;
;f;021_o_f_n_a.jpg;neutral;8;21;f;021_o_f_h_a.jpg;happy;incongruent;9;match;;140;150;;3;171;block1_Pilot_2;21;n_h;n_h_weak;;;;;0;0;0;0;0;13;13;13;;;;;;;;;290.07073850000006;None;291.5298103;291.8221088;291.8221088;291.8464061999998;291.8464061999998;291.8872929999998;291.8872929999998;None;8;0;291.8872929999998;None;293.38718599999993;None;['8'];[0.7827711999998428];293.38718599999993;None;;;;;1.298703999999816;;;Emoconpilot040;2021_Dec_15_1247;BackwardMask;2020.2.8;119.87173724068587;
;f;012_o_f_h_a.jpg;happy;9;13;m;013_y_m_h_a.jpg;happy;congruent;9;mismatch;;120;150;;3;213;block1_Pilot_2;12;h_h;h_h_weak;;;;;0;0;0;0;0;14;14;14;;;;;;;;;296.3879124;None;298.1705149999998;298.46334509999997;298.46334509999997;298.48824890000014;298.48824890000014;298.5289757999999;298.5289757999999;None;9;1;298.5289757999999;None;300.0291619999998;None;['7'];[0.9409069000003001];300.0291619999998;None;;;;;0.9048437999999805;;;Emoconpilot040;2021_Dec_15_1247;BackwardMask;2020.2.8;119.87173724068587;
;f;021_o_f_s_a.jpg;sad;7;27;m;027_o_m_n_a.jpg;neutral;incongruent;8;mismatch;;130;170;;3;174;block1_Pilot_2;21;s_n;s_n_weak;;;;;0;0;0;0;0;15;15;15;;;;;;;;;303.0297685999999;None;304.48883309999974;304.7800957999998;304.7800957999998;304.80512;304.80512;304.8457649000002;304.8457649000002;None;None;0;304.8457649000002;None;306.34590449999996;None;['8'];[0.5600812000002406];306.34590449999996;None;;;;;;;;Emoconpilot040;2021_Dec_15_1247;BackwardMask;2020.2.8;119.87173724068587;
;f;019_m_f_n_a.jpg;neutral;8;19;f;019_m_f_h_a.jpg;happy;incongruent;9;match;;140;150;;3;238;block1_Pilot_2;19;n_h;n_h_weak;;;;;0;0;0;0;0;16;16;16;;;;;;;;;309.3460823999999;None;311.37345060000007;311.6640400000001;311.6640400000001;311.68847370000003;311.68847370000003;311.72930369999995;311.72930369999995;None;7;0;311.72930369999995;None;313.2292358999998;None;['8'];[0.6365682000000561];313.2292358999998;None;;;;;1.000534300000254;;;Emoconpilot040;2021_Dec_15_1247;BackwardMask;2020.2.8;119.87173724068587;
;f;028_y_f_n_a.jpg;neutral;8;30;f;030_o_f_s_a.jpg;sad;incongruent;7;match;;140;160;;18;219;block1_Pilot_2;28;n_s;n_s_weak;;;;;0;0;0;0;0;17;17;17;;;;;;;;;316.2295820999998;None;318.07717049999974;318.37249470000006;318.37249470000006;318.52175420000003;318.52175420000003;318.5625454000001;318.5625454000001;None;8;0;318.5625454000001;None;320.06284300000016;None;['7'];[0.38712660000010146];320.06284300000016;None;;;;;0.9194682999996076;;;Emoconpilot040;2021_Dec_15_1247;BackwardMask;2020.2.8;119.87173724068587;
;m;008_y_m_h_a.jpg;happy;9;8;m;008_y_m_s_a.jpg;sad;incongruent;7;match;;120;160;;3;176;block1_Pilot_2;8;h_s;h_s_weak;;;;;0;0;0;0;0;18;18;18;;;;;;;;;323.06386939999993;None;324.53846190000013;324.83060449999994;324.83060449999994;324.8553707000001;324.8553707000001;324.89614530000017;324.89614530000017;None;9;0;324.89614530000017;None;326.39624539999977;None;['7'];[0.8058255999999346];326.39624539999977;None;;;;;0.8337601000002905;;;Emoconpilot040;2021_Dec_15_1247;BackwardMask;2020.2.8;119.87173724068587;
;f;019_m_f_h_a.jpg;happy;9;33;m;033_o_m_n_a.jpg;neutral;incongruent;8;mismatch;;120;170;;18;136;block1_Pilot_2;19;h_n;h_n_weak;;;;;0;0;0;0;0;19;19;19;;;;;;;;;329.39629019999984;None;330.53764649999994;330.83070110000017;330.83070110000017;330.9804473999998;330.9804473999998;331.0212826000002;331.0212826000002;None;9;0;331.0212826000002;None;332.52151189999995;None;['7'];[0.360384200000226];332.52151189999995;None;;;;;0.7006960000003346;;;Emoconpilot040;2021_Dec_15_1247;BackwardMask;2020.2.8;119.87173724068587;
;m;013_y_m_n_a.jpg;neutral;8;12;f;012_o_f_s_a.jpg;sad;incongruent;7;mismatch;;140;160;;2;132;block1_Pilot_2;13;n_s;n_s_strong;;;;;0;0;0;0;0;20;20;20;;;;;;;;;335.52179350000006;None;336.6442040000002;336.93964589999996;336.93964589999996;336.955457;336.955457;336.9965563999999;336.9965563999999;None;8;0;336.9965563999999;None;338.4964461999998;None;['8'];[0.345493599999827];338.4964461999998;None;;;;;1.061341099999936;;;Emoconpilot040;2021_Dec_15_1247;BackwardMask;2020.2.8;119.87173724068587;
;f;040_y_f_s_a.jpg;sad;7;8;m;008_y_m_h_a.jpg;happy;incongruent;9;mismatch;;130;150;;2;175;block1_Pilot_2;40;s_h;s_h_weak;;;;;0;0;0;0;0;21;21;21;;;;;;;;;341.49648879999995;None;342.9638875999999;343.2559652;343.2559652;343.2723729999998;343.2723729999998;343.3132384999999;343.3132384999999;None;None;0;343.3132384999999;None;344.81318269999974;None;['9'];[0.5327352999997856];344.81318269999974;None;;;;;;;;Emoconpilot040;2021_Dec_15_1247;BackwardMask;2020.2.8;119.87173724068587;
;m;004_o_m_h_a.jpg;happy;9;40;f;040_y_f_s_a.jpg;sad;incongruent;7;mismatch;;120;160;;2;193;block1_Pilot_2;4;h_s;h_s_weak;;;;;0;0;0;0;0;22;22;22;;;;;;;;;347.8142294999998;None;349.45537969999987;349.74816469999996;349.74816469999996;349.7639260000001;349.7639260000001;349.8051010999998;349.8051010999998;None;None;0;349.8051010999998;None;351.30508039999995;None;['9'];[0.5289526999999907];351.30508039999995;None;;;;;;;;Emoconpilot040;2021_Dec_15_1247;BackwardMask;2020.2.8;119.87173724068587;
;f;028_y_f_s_a.jpg;sad;7;13;m;013_y_m_n_a.jpg;neutral;incongruent;8;mismatch;;130;170;;2;126;block1_Pilot_2;28;s_n;s_n_weak;;;;;0;0;0;0;0;23;23;23;;;;;;;;;354.30521910000016;None;355.3689094000001;355.6646374000002;355.6646374000002;355.68099489999986;355.68099489999986;355.7219144999999;355.7219144999999;None;None;0;355.7219144999999;None;357.22231569999985;None;['9'];[1.0837037999999666];357.22231569999985;None;;;;;;;;Emoconpilot040;2021_Dec_15_1247;BackwardMask;2020.2.8;119.87173724068587;
;m;004_o_m_h_a.jpg;happy;9;40;f;040_y_f_n_a.jpg;neutral;incongruent;8;mismatch;;120;170;;3;146;block1_Pilot_2;4;h_n;h_n_strong;;;;;0;0;0;0;0;24;24;24;;;;;;;;;360.22236969999994;None;361.4865884999999;361.7817230999999;361.7817230999999;361.8060566999998;361.8060566999998;361.8469138999999;361.8469138999999;None;9;0;361.8469138999999;None;363.34684590000006;None;['7'];[0.479154600000129];363.34684590000006;None;;;;;0.722994899999776;;;Emoconpilot040;2021_Dec_15_1247;BackwardMask;2020.2.8;119.87173724068587;
;m;008_y_m_s_a.jpg;sad;7;30;f;030_o_f_n_a.jpg;neutral;incongruent;8;mismatch;;130;170;;3;132;block1_Pilot_2;8;s_n;s_n_strong;;;;;0;0;0;0;0;25;25;25;;;;;;;;;366.3478282000001;None;367.46986549999974;367.7649793999999;367.7649793999999;367.7896965;367.7896965;367.83037639999975;367.83037639999975;None;8;1;367.83037639999975;None;369.33031230000006;None;['8'];[0.35971420000032595];369.33031230000006;None;;;;;0.9236218999999437;;;Emoconpilot040;2021_Dec_15_1247;BackwardMask;2020.2.8;119.87173724068587;
;f;040_y_f_n_a.jpg;neutral;8;40;f;040_y_f_s_a.jpg;sad;incongruent;7;match;;140;160;;2;123;block1_Pilot_2;40;n_s;n_s_weak;;;;;0;0;0;0;0;26;26;26;;;;;;;;;372.3305257000002;None;373.37445179999986;373.66505000000006;373.66505000000006;373.68105650000007;373.68105650000007;373.72225949999984;373.72225949999984;None;None;0;373.72225949999984;None;375.2225026000001;None;['9'];[0.7553998000003048];375.2225026000001;None;;;;;;;;Emoconpilot040;2021_Dec_15_1247;BackwardMask;2020.2.8;119.87173724068587;
;f;028_y_f_s_a.jpg;sad;7;27;m;027_o_m_s_a.jpg;sad;congruent;7;mismatch;;130;160;;3;159;block1_Pilot_2;28;s_s;s_s_weak;;;;;0;0;0;0;0;27;27;27;;;;;;;;;378.2222619999998;None;379.5588883999999;379.84841689999985;379.84841689999985;379.8729303;379.8729303;379.9139107000001;379.9139107000001;None;8;0;379.9139107000001;None;381.4140822999998;None;['7'];[0.995821800000158];381.4140822999998;None;;;;;0.8798807000002853;;;Emoconpilot040;2021_Dec_15_1247;BackwardMask;2020.2.8;119.87173724068587;
;f;012_o_f_s_a.jpg;sad;7;27;m;027_o_m_s_a.jpg;sad;congruent;7;mismatch;;130;160;;18;166;block1_Pilot_2;12;s_s;s_s_weak;;;;;0;0;0;0;0;28;28;28;;;;;;;;;384.41400780000004;None;385.8074225999999;386.0983154999999;386.0983154999999;386.2481349999998;386.2481349999998;386.2889844000001;386.2889844000001;None;7;1;386.2889844000001;None;387.7891138;None;"['7', '7']";"[0.35672810000005484, 2.084932799999933]";387.7891138;None;;;;;1.0488728999998784;;;Emoconpilot040;2021_Dec_15_1247;BackwardMask;2020.2.8;119.87173724068587;
;f;028_y_f_n_a.jpg;neutral;8;28;f;028_y_f_h_a.jpg;happy;incongruent;9;match;;140;150;;2;186;block1_Pilot_2;28;n_h;n_h_weak;;;;;0;0;0;0;0;29;29;29;;;;;;;;;390.789209;None;392.36125059999995;392.65703459999986;392.65703459999986;392.6732766;392.6732766;392.7143430000001;392.7143430000001;None;None;0;392.7143430000001;None;394.2140537;None;['9'];[0.37158069999986765];394.2140537;None;;;;;;;;Emoconpilot040;2021_Dec_15_1247;BackwardMask;2020.2.8;119.87173724068587;
;m;027_o_m_n_a.jpg;neutral;8;16;m;016_y_m_n_a.jpg;neutral;congruent;8;match;;140;170;;2;188;block1_Pilot_2;27;n_n;n_n_weak;;;;;0;0;0;0;0;30;30;30;;;;;;;;;397.21556310000005;None;398.80344460000015;399.09900359999983;399.09900359999983;399.11504130000003;399.11504130000003;399.15592229999993;399.15592229999993;None;None;0;399.15592229999993;None;400.65593149999995;None;None;;400.65593149999995;None;;;;;;;;Emoconpilot040;2021_Dec_15_1247;BackwardMask;2020.2.8;119.87173724068587;
;f;012_o_f_s_a.jpg;sad;7;13;m;013_y_m_n_a.jpg;neutral;incongruent;8;mismatch;;130;170;;3;162;block1_Pilot_2;12;s_n;s_n_strong;;;;;0;0;0;0;0;31;31;31;;;;;;;;;403.65605679999953;None;405.0095959999999;405.3070177999998;405.3070177999998;405.3317753000001;405.3317753000001;405.3726528999996;405.3726528999996;None;None;0;405.3726528999996;None;406.8727106999995;None;['8'];[1.0011070000000473];406.8727106999995;None;;;;;;;;Emoconpilot040;2021_Dec_15_1247;BackwardMask;2020.2.8;119.87173724068587;
;f;012_o_f_s_a.jpg;sad;7;16;m;016_y_m_h_a.jpg;happy;incongruent;9;mismatch;;130;150;;1;238;block1_Pilot_2;12;s_h;s_h_strong;;;;;0;0;0;0;0;32;32;32;;;;;;;;;409.87280850000025;None;411.85902309999983;412.1570625000004;412.1570625000004;412.16526239999985;412.16526239999985;412.20615199999975;412.20615199999975;None;None;0;412.20615199999975;None;413.7062311999998;None;['9'];[0.5276323000007324];413.7062311999998;None;;;;;;;;Emoconpilot040;2021_Dec_15_1247;BackwardMask;2020.2.8;119.87173724068587;
;f;028_y_f_n_a.jpg;neutral;8;21;f;021_o_f_n_a.jpg;neutral;congruent;8;match;;140;170;;3;220;block1_Pilot_2;28;n_n;n_n_weak;;;;;0;0;0;0;0;33;33;33;;;;;;;;;416.7062896999996;None;418.56038050000006;418.84949719999986;418.84949719999986;418.87392829999953;418.87392829999953;418.91454989999966;418.91454989999966;None;8;1;418.91454989999966;None;420.41466800000035;None;['8'];[0.6109404999997423];420.41466800000035;None;;;;;1.0073247000000265;;;Emoconpilot040;2021_Dec_15_1247;BackwardMask;2020.2.8;119.87173724068587;
;f;040_y_f_h_a.jpg;happy;9;33;m;033_o_m_s_a.jpg;sad;incongruent;7;mismatch;;120;160;;2;194;block1_Pilot_2;40;h_s;h_s_weak;;;;;0;0;0;0;0;34;34;34;;;;;;;;;423.41478649999954;None;425.0399447;425.3323739999996;425.3323739999996;425.3489249000004;425.3489249000004;425.38997500000005;425.38997500000005;None;None;0;425.38997500000005;None;426.8898916999997;None;['9'];[0.2718917000001966];426.8898916999997;None;;;;;;;;Emoconpilot040;2021_Dec_15_1247;BackwardMask;2020.2.8;119.87173724068587;
;f;028_y_f_h_a.jpg;happy;9;8;m;008_y_m_n_a.jpg;neutral;incongruent;8;mismatch;;120;170;;3;162;block1_Pilot_2;28;h_n;h_n_weak;;;;;0;0;0;0;0;35;35;35;;;;;;;;;429.8898939999999;None;431.25418160000027;431.5491699000004;431.5491699000004;431.5741442999997;431.5741442999997;431.6149773999996;431.6149773999996;None;None;0;431.6149773999996;None;433.11483899999985;None;['9'];[0.2949776000004931];433.11483899999985;None;;;;;;;;Emoconpilot040;2021_Dec_15_1247;BackwardMask;2020.2.8;119.87173724068587;
;m;013_y_m_n_a.jpg;neutral;8;27;m;027_o_m_n_a.jpg;neutral;congruent;8;match;;140;170;;2;126;block1_Pilot_2;13;n_n;n_n_strong;;;;;0;0;0;0;0;36;36;36;;;;;;;;;436.1151964999999;None;437.20576549999987;437.49954590000016;437.49954590000016;437.5158703999996;437.5158703999996;437.55661450000025;437.55661450000025;None;None;0;437.55661450000025;None;439.05694289999974;None;['9'];[0.40871320000042033];439.05694289999974;None;;;;;;;;Emoconpilot040;2021_Dec_15_1247;BackwardMask;2020.2.8;119.87173724068587;
;f;028_y_f_s_a.jpg;sad;7;19;f;019_m_f_n_a.jpg;neutral;incongruent;8;match;;130;170;;2;156;block1_Pilot_2;28;s_n;s_n_strong;;;;;0;0;0;0;0;37;37;37;;;;;;;;;442.05842250000023;None;443.36779039999965;443.65790000000015;443.65790000000015;443.67426350000005;443.67426350000005;443.7151088999999;443.7151088999999;None;None;0;443.7151088999999;None;445.21522579999964;None;['9'];[0.2504276999998183];445.21522579999964;None;;;;;;;;Emoconpilot040;2021_Dec_15_1247;BackwardMask;2020.2.8;119.87173724068587;
;m;016_y_m_s_a.jpg;sad;7;19;f;019_m_f_n_a.jpg;neutral;incongruent;8;mismatch;;130;170;;3;138;block1_Pilot_2;16;s_n;s_n_weak;;;;;0;0;0;0;0;38;38;38;;;;;;;;;448.21520390000023;None;449.3734185000003;449.6661782000001;449.6661782000001;449.69104030000017;449.69104030000017;449.7318973000001;449.7318973000001;None;8;1;449.7318973000001;None;451.2318513;None;['8'];[0.3298018999994383];451.2318513;None;;;;;0.813884400000461;;;Emoconpilot040;2021_Dec_15_1247;BackwardMask;2020.2.8;119.87173724068587;
;m;033_o_m_s_a.jpg;sad;7;27;m;027_o_m_n_a.jpg;neutral;incongruent;8;match;;130;170;;3;120;block1_Pilot_2;33;s_n;s_n_strong;;;;;0;0;0;0;0;39;39;39;;;;;;;;;454.2321916000001;None;455.2430397999997;455.533042;455.533042;455.55777359999956;455.55777359999956;455.5986492000002;455.5986492000002;None;None;0;455.5986492000002;None;457.09880280000016;None;['8'];[0.6787688000003982];457.09880280000016;None;;;;;;;;Emoconpilot040;2021_Dec_15_1247;BackwardMask;2020.2.8;119.87173724068587;
;f;040_y_f_s_a.jpg;sad;7;33;m;033_o_m_n_a.jpg;neutral;incongruent;8;mismatch;;130;170;;1;238;block1_Pilot_2;40;s_n;s_n_weak;;;;;0;0;0;0;0;40;40;40;;;;;;;;;460.0988481000004;None;462.08977440000035;462.3830399999997;462.3830399999997;462.3913028999996;462.3913028999996;462.43211539999993;462.43211539999993;None;None;0;462.43211539999993;None;463.9320547999996;None;['9'];[0.22161120000055234];463.9320547999996;None;;;;;;;;Emoconpilot040;2021_Dec_15_1247;BackwardMask;2020.2.8;119.87173724068587;
;f;021_o_f_n_a.jpg;neutral;8;19;f;019_m_f_s_a.jpg;sad;incongruent;7;match;;140;160;;1;238;block1_Pilot_2;21;n_s;n_s_strong;;;;;0;0;0;0;0;41;41;41;;;;;;;;;466.9324176;None;469.0120930000003;469.3087446999998;469.3087446999998;469.31647799999973;469.31647799999973;469.35743379999985;469.35743379999985;None;None;0;469.35743379999985;None;470.8581033999999;None;['9'];[0.25565780000033556];470.8581033999999;None;;;;;;;;Emoconpilot040;2021_Dec_15_1247;BackwardMask;2020.2.8;119.87173724068587;
;m;033_o_m_h_a.jpg;happy;9;27;m;027_o_m_h_a.jpg;happy;congruent;9;match;;120;150;;3;134;block1_Pilot_2;33;h_h;h_h_weak;;;;;0;0;0;0;0;42;42;42;;;;;;;;;473.85891269999956;None;474.9833735000002;475.2750417999996;475.2750417999996;475.2998647000004;475.2998647000004;475.34078580000005;475.34078580000005;None;9;1;475.34078580000005;None;476.8407299999999;None;['8'];[0.7049991999992926];476.8407299999999;None;;;;;0.9649552999999287;;;Emoconpilot040;2021_Dec_15_1247;BackwardMask;2020.2.8;119.87173724068587;
;f;040_y_f_s_a.jpg;sad;7;4;m;004_o_m_h_a.jpg;happy;incongruent;9;mismatch;;130;150;;2;225;block1_Pilot_2;40;s_h;s_h_strong;;;;;0;0;0;0;0;43;43;43;;;;;;;;;479.8409492999999;None;481.72402929999953;482.01694450000014;482.01694450000014;482.0334273999997;482.0334273999997;482.07426380000015;482.07426380000015;None;None;0;482.07426380000015;None;483.57435650000025;None;['9'];[0.30738039999960165];483.57435650000025;None;;;;;;;;Emoconpilot040;2021_Dec_15_1247;BackwardMask;2020.2.8;119.87173724068587;
;m;027_o_m_s_a.jpg;sad;7;21;f;021_o_f_n_a.jpg;neutral;incongruent;8;mismatch;;130;170;;18;238;block1_Pilot_2;27;s_n;s_n_weak;;;;;0;0;0;0;0;44;44;44;;;;;;;;;486.5744045000001;None;488.56747319999977;488.85856669999976;488.85856669999976;489.0083480000003;489.0083480000003;489.04923210000015;489.04923210000015;None;7;0;489.04923210000015;None;490.5495441000003;None;['7'];[0.628017799999725];490.5495441000003;None;;;;;1.2004180000003544;;;Emoconpilot040;2021_Dec_15_1247;BackwardMask;2020.2.8;119.87173724068587;
;m;016_y_m_h_a.jpg;happy;9;16;m;016_y_m_n_a.jpg;neutral;incongruent;8;match;;120;170;;3;202;block1_Pilot_2;16;h_n;h_n_weak;;;;;0;0;0;0;0;45;45;45;;;;;;;;;493.5495127000004;None;495.2444284000003;495.5337591999996;495.5337591999996;495.5586354999996;495.5586354999996;495.59952599999997;495.59952599999997;None;9;0;495.59952599999997;None;497.1000348999996;None;None;;497.1000348999996;None;;;;;0.8101954999992813;;;Emoconpilot040;2021_Dec_15_1247;BackwardMask;2020.2.8;119.87173724068587;
;m;033_o_m_h_a.jpg;happy;9;13;m;013_y_m_n_a.jpg;neutral;incongruent;8;match;;120;170;;2;150;block1_Pilot_2;33;h_n;h_n_weak;;;;;0;0;0;0;0;46;46;46;;;;;;;;;500.1004307000003;None;501.3570129999998;501.65050770000016;501.65050770000016;501.6672072000001;501.6672072000001;501.7080356999995;501.7080356999995;None;9;0;501.7080356999995;None;503.2079772999996;None;['8'];[0.2818105000005744];503.2079772999996;None;;;;;0.8214632999997775;;;Emoconpilot040;2021_Dec_15_1247;BackwardMask;2020.2.8;119.87173724068587;
;f;012_o_f_n_a.jpg;neutral;8;16;m;016_y_m_n_a.jpg;neutral;congruent;8;mismatch;;140;170;;1;238;block1_Pilot_2;12;n_n;n_n_strong;;;;;0;0;0;0;0;47;47;47;;;;;;;;;506.2087121000004;None;508.24763059999987;508.5428230999996;508.5428230999996;508.55029829999967;508.55029829999967;508.59135940000033;508.59135940000033;None;None;0;508.59135940000033;None;510.09184149999965;None;['9'];[0.32598830000006274];510.09184149999965;None;;;;;;;;Emoconpilot040;2021_Dec_15_1247;BackwardMask;2020.2.8;119.87173724068587;
;f;040_y_f_n_a.jpg;neutral;8;30;f;030_o_f_h_a.jpg;happy;incongruent;9;match;;140;150;;2;194;block1_Pilot_2;40;n_h;n_h_strong;;;;;0;0;0;0;0;48;48;48;;;;;;;;;513.0915475000002;None;514.7292089000002;515.0179863000003;515.0179863000003;515.0339646000002;515.0339646000002;515.0748534000004;515.0748534000004;None;None;0;515.0748534000004;None;516.5749798999996;None;['9'];[0.3227316000002247];516.5749798999996;None;;;;;;;;Emoconpilot040;2021_Dec_15_1247;BackwardMask;2020.2.8;119.87173724068587;
;m;013_y_m_n_a.jpg;neutral;8;12;f;012_o_f_s_a.jpg;sad;incongruent;7;mismatch;;140;160;;18;238;block1_Pilot_2;13;n_s;n_s_weak;;;;;0;0;0;0;0;49;49;49;;;;;;;;;519.5760091000002;None;521.5780283000004;521.8679972999998;521.8679972999998;522.0174530000004;522.0174530000004;522.0582445999999;522.0582445999999;None;7;1;522.0582445999999;None;523.5582961;None;['7'];[0.9791826000000583];523.5582961;None;;;;;0.9115576999993209;;;Emoconpilot040;2021_Dec_15_1247;BackwardMask;2020.2.8;119.87173724068587;
;f;012_o_f_h_a.jpg;happy;9;12;f;012_o_f_n_a.jpg;neutral;incongruent;8;match;;120;170;;2;125;block1_Pilot_2;12;h_n;h_n_strong;;;;;0;0;0;0;0;50;50;50;;;;;;;;;526.5590154000001;None;527.6082002000003;527.9010799999996;527.9010799999996;527.9174706000003;527.9174706000003;527.9584304999998;527.9584304999998;None;9;0;527.9584304999998;None;529.4585777000002;None;['8'];[0.7510114999995494];529.4585777000002;None;;;;;1.091290399999707;;;Emoconpilot040;2021_Dec_15_1247;BackwardMask;2020.2.8;119.87173724068587;
;m;008_y_m_s_a.jpg;sad;7;19;f;019_m_f_s_a.jpg;sad;congruent;7;mismatch;;130;160;;2;202;block1_Pilot_2;8;s_s;s_s_strong;;;;;0;0;0;0;0;51;51;51;;;;;;;;;532.4587555999997;None;534.1726222999996;534.4681423000002;534.4681423000002;534.4843558000002;534.4843558000002;534.5251655000002;534.5251655000002;None;None;0;534.5251655000002;None;536.0252349000002;None;['9'];[0.7925611999999091];536.0252349000002;None;;;;;;;;Emoconpilot040;2021_Dec_15_1247;BackwardMask;2020.2.8;119.87173724068587;
;f;028_y_f_n_a.jpg;neutral;8;12;f;012_o_f_n_a.jpg;neutral;congruent;8;match;;140;170;;2;214;block1_Pilot_2;28;n_n;n_n_strong;;;;;0;0;0;0;0;52;52;52;;;;;;;;;539.0259859999996;None;540.8300659999995;541.1266704999998;541.1266704999998;541.1428227999995;541.1428227999995;541.1836645000003;541.1836645000003;None;None;0;541.1836645000003;None;542.6836387000003;None;['9'];[0.9579886999999871];542.6836387000003;None;;;;;;;;Emoconpilot040;2021_Dec_15_1247;BackwardMask;2020.2.8;119.87173724068587;
;m;027_o_m_h_a.jpg;happy;9;19;f;019_m_f_h_a.jpg;happy;congruent;9;mismatch;;120;150;;3;165;block1_Pilot_2;27;h_h;h_h_strong;;;;;0;0;0;0;0;53;53;53;;;;;;;;;545.6845299999995;None;547.0811198000001;547.3768999000004;547.3768999000004;547.4012358;547.4012358;547.4420209999998;547.4420209999998;None;9;1;547.4420209999998;None;548.9421327;None;['8'];[0.4835715999997774];548.9421327;None;;;;;1.1197526000005382;;;Emoconpilot040;2021_Dec_15_1247;BackwardMask;2020.2.8;119.87173724068587;
;m;008_y_m_s_a.jpg;sad;7;13;m;013_y_m_h_a.jpg;happy;incongruent;9;match;;130;150;;18;200;block1_Pilot_2;8;s_h;s_h_strong;;;;;0;0;0;0;0;54;54;54;;;;;;;;;551.9423090999999;None;553.6281139000002;553.9186755000001;553.9186755000001;554.0682058000002;554.0682058000002;554.1089451999997;554.1089451999997;None;7;0;554.1089451999997;None;555.6088929999996;None;['7'];[0.21680250000008527];555.6088929999996;None;;;;;0.9247783000000709;;;Emoconpilot040;2021_Dec_15_1247;BackwardMask;2020.2.8;119.87173724068587;
;f;030_o_f_n_a.jpg;neutral;8;28;f;028_y_f_s_a.jpg;sad;incongruent;7;match;;140;160;;18;238;block1_Pilot_2;30;n_s;n_s_weak;;;;;0;0;0;0;0;55;55;55;;;;;;;;;558.6098985999997;None;560.6150471999999;560.9104814000002;560.9104814000002;561.0598545000003;561.0598545000003;561.1006770000004;561.1006770000004;None;None;0;561.1006770000004;None;562.6005826;None;"['7', '7']";"[0.0171226000002207, 1.1770856000002823]";562.6005826;None;;;;;;;;Emoconpilot040;2021_Dec_15_1247;BackwardMask;2020.2.8;119.87173724068587;
;f;019_m_f_h_a.jpg;happy;9;27;m;027_o_m_h_a.jpg;happy;congruent;9;mismatch;;120;150;;1;238;block1_Pilot_2;19;h_h;h_h_strong;;;;;0;0;0;0;0;56;56;56;;;;;;;;;565.6016614;None;567.5919591000002;567.8851345000003;567.8851345000003;567.8933268999999;567.8933268999999;567.9341195999996;567.9341195999996;None;None;0;567.9341195999996;None;569.4341830000003;None;['9'];[0.27151210000010906];569.4341830000003;None;;;;;;;;Emoconpilot040;2021_Dec_15_1247;BackwardMask;2020.2.8;119.87173724068587;
;m;004_o_m_s_a.jpg;sad;7;4;m;004_o_m_h_a.jpg;happy;incongruent;9;match;;130;150;;18;155;block1_Pilot_2;4;s_h;s_h_weak;;;;;0;0;0;0;0;57;57;57;;;;;;;;;572.4350585000002;None;573.7385365;574.0268972000003;574.0268972000003;574.1768935999999;574.1768935999999;574.2177185;574.2177185;None;None;0;574.2177185;None;575.7175815;None;['7'];[1.108052399999906];575.7175815;None;;;;;;;;Emoconpilot040;2021_Dec_15_1247;BackwardMask;2020.2.8;119.87173724068587;
;f;021_o_f_s_a.jpg;sad;7;27;m;027_o_m_n_a.jpg;neutral;incongruent;8;mismatch;;130;170;;3;224;block1_Pilot_2;21;s_n;s_n_weak;;;;;0;0;0;0;0;58;58;58;;;;;;;;;578.7178838999998;None;580.5922993000004;580.8853197999997;580.8853197999997;580.9102168999998;580.9102168999998;580.9510968000004;580.9510968000004;None;8;1;580.9510968000004;None;582.4511296999999;None;None;;582.4511296999999;None;;;;;1.1624206999995295;;;Emoconpilot040;2021_Dec_15_1247;BackwardMask;2020.2.8;119.87173724068587;
;f;021_o_f_h_a.jpg;happy;9;27;m;027_o_m_n_a.jpg;neutral;incongruent;8;mismatch;;120;170;;2;147;block1_Pilot_2;21;h_n;h_n_strong;;;;;0;0;0;0;0;59;59;59;;;;;;;;;585.4512648999998;None;586.7327266000002;587.0277267000001;587.0277267000001;587.0437802999995;587.0437802999995;587.0845671999996;587.0845671999996;None;9;0;587.0845671999996;None;588.5844383000003;None;['8'];[0.257191700000476];588.5844383000003;None;;;;;0.9570040999997218;;;Emoconpilot040;2021_Dec_15_1247;BackwardMask;2020.2.8;119.87173724068587;
;f;040_y_f_n_a.jpg;neutral;8;13;m;013_y_m_h_a.jpg;happy;incongruent;9;mismatch;;140;150;;3;237;block1_Pilot_2;40;n_h;n_h_strong;;;;;0;0;0;0;0;60;60;60;;;;;;;;;591.5846615;None;593.5801363999999;593.8694674999997;593.8694674999997;593.8938129999997;593.8938129999997;593.9347132000003;593.9347132000003;None;7;0;593.9347132000003;None;595.4347575000002;None;['8'];[0.9747478000008414];595.4347575000002;None;;;;;1.386782200000198;;;Emoconpilot040;2021_Dec_15_1247;BackwardMask;2020.2.8;119.87173724068587;
;m;027_o_m_n_a.jpg;neutral;8;19;f;019_m_f_h_a.jpg;happy;incongruent;9;mismatch;;140;150;;3;199;block1_Pilot_2;27;n_h;n_h_strong;;;;;0;0;0;0;0;61;61;61;;;;;;;;;598.4348725999998;None;600.1144164999996;600.4113226999998;600.4113226999998;600.4358028999995;600.4358028999995;600.4763901999995;600.4763901999995;None;None;0;600.4763901999995;None;601.9768591000002;None;"['7', '7']";"[0.048709199999393604, 0.8966780999999173]";601.9768591000002;None;;;;;;;;Emoconpilot040;2021_Dec_15_1247;BackwardMask;2020.2.8;119.87173724068587;
;m;027_o_m_h_a.jpg;happy;9;21;f;021_o_f_s_a.jpg;sad;incongruent;7;mismatch;;120;160;;2;169;block1_Pilot_2;27;h_s;h_s_strong;;;;;0;0;0;0;0;62;62;62;;;;;;;;;604.9773556;None;606.4039037000002;606.6948014;606.6948014;606.7106766999996;606.7106766999996;606.7517033000004;606.7517033000004;None;None;0;606.7517033000004;None;608.2515186999999;None;['9'];[0.2940100000005259];608.2515186999999;None;;;;;;;;Emoconpilot040;2021_Dec_15_1247;BackwardMask;2020.2.8;119.87173724068587;
;m;013_y_m_n_a.jpg;neutral;8;33;m;033_o_m_h_a.jpg;happy;incongruent;9;match;;140;150;;18;238;block1_Pilot_2;13;n_h;n_h_strong;;;;;0;0;0;0;0;63;63;63;;;;;;;;;611.2525996000004;None;613.2822317;613.5780255;613.5780255;613.7274541999996;613.7274541999996;613.7684326999997;613.7684326999997;None;8;0;613.7684326999997;None;615.2684294000001;None;['7'];[0.4932560999995985];615.2684294000001;None;;;;;0.8890995000001567;;;Emoconpilot040;2021_Dec_15_1247;BackwardMask;2020.2.8;119.87173724068587;
;m;033_o_m_n_a.jpg;neutral;8;30;f;030_o_f_s_a.jpg;sad;incongruent;7;mismatch;;140;160;;1;238;block1_Pilot_2;33;n_s;n_s_weak;;;;;0;0;0;0;0;64;64;64;;;;;;;;;618.2695115999995;None;620.2738726999996;620.5698395999998;620.5698395999998;620.5775620000004;620.5775620000004;620.618324;620.618324;None;None;0;620.618324;None;622.1185275999997;None;['9'];[0.5149000000001251];622.1185275999997;None;;;;;;;;Emoconpilot040;2021_Dec_15_1247;BackwardMask;2020.2.8;119.87173724068587;
;m;033_o_m_s_a.jpg;sad;7;4;m;004_o_m_s_a.jpg;sad;congruent;7;match;;130;160;;18;146;block1_Pilot_2;33;s_s;s_s_weak;;;;;0;0;0;0;0;65;65;65;;;;;;;;;625.118719;None;626.3436731000002;626.6362816999999;626.6362816999999;626.7861697999997;626.7861697999997;626.8273055;626.8273055;None;7;1;626.8273055;None;628.3271444000002;None;['7'];[1.4824236999993445];628.3271444000002;None;;;;;1.20618579999973;;;Emoconpilot040;2021_Dec_15_1247;BackwardMask;2020.2.8;119.87173724068587;
;m;016_y_m_s_a.jpg;sad;7;28;f;028_y_f_h_a.jpg;happy;incongruent;9;mismatch;;130;150;;18;238;block1_Pilot_2;16;s_h;s_h_strong;;;;;0;0;0;0;0;66;66;66;;;;;;;;;631.3273216999996;None;633.3184969000004;633.6114262000001;633.6114262000001;633.7612394999996;633.7612394999996;633.8022148;633.8022148;None;7;0;633.8022148;None;635.3022438999997;None;['7'];[0.4832083999999668];635.3022438999997;None;;;;;0.7431950999998662;;;Emoconpilot040;2021_Dec_15_1247;BackwardMask;2020.2.8;119.87173724068587;
;f;030_o_f_h_a.jpg;happy;9;28;f;028_y_f_h_a.jpg;happy;congruent;9;match;;120;150;;3;234;block1_Pilot_2;30;h_h;h_h_weak;;;;;0;0;0;0;0;67;67;67;;;;;;;;;638.3026104999999;None;640.2952957999996;640.5870200999998;640.5870200999998;640.6113644999996;640.6113644999996;640.6524281000002;640.6524281000002;None;9;1;640.6524281000002;None;642.1522924999999;None;['7'];[0.2570178999994823];642.1522924999999;None;;;;;0.7411925000005795;;;Emoconpilot040;2021_Dec_15_1247;BackwardMask;2020.2.8;119.87173724068587;
;m;013_y_m_h_a.jpg;happy;9;4;m;004_o_m_h_a.jpg;happy;congruent;9;match;;120;150;;2;141;block1_Pilot_2;13;h_h;h_h_strong;;;;;0;0;0;0;0;68;68;68;;;;;;;;;645.1525217999997;None;646.3495609000001;646.6453419999998;646.6453419999998;646.6614542999996;646.6614542999996;646.7024487999997;646.7024487999997;None;9;1;646.7024487999997;None;648.2023536999995;None;['8'];[0.23106519999964803];648.2023536999995;None;;;;;1.1229724000004353;;;Emoconpilot040;2021_Dec_15_1247;BackwardMask;2020.2.8;119.87173724068587;
;f;028_y_f_s_a.jpg;sad;7;8;m;008_y_m_s_a.jpg;sad;congruent;7;mismatch;;130;160;;1;238;block1_Pilot_2;28;s_s;s_s_strong;;;;;0;0;0;0;0;69;69;69;;;;;;;;;651.2025757000001;None;653.2006756999999;653.4952088999999;653.4952088999999;653.5031804;653.5031804;653.5440464000003;653.5440464000003;None;None;0;653.5440464000003;None;655.0443020000002;None;['9'];[0.23701840000012453];655.0443020000002;None;;;;;;;;Emoconpilot040;2021_Dec_15_1247;BackwardMask;2020.2.8;119.87173724068587;
;f;028_y_f_s_a.jpg;sad;7;30;f;030_o_f_h_a.jpg;happy;incongruent;9;match;;130;150;;2;199;block1_Pilot_2;28;s_h;s_h_weak;;;;;0;0;0;0;0;70;70;70;;;;;;;;;658.0444207;None;659.7120752999999;660.0036853000001;660.0036853000001;660.0200999999997;660.0200999999997;660.0609054999995;660.0609054999995;None;None;0;660.0609054999995;None;661.5610844000003;None;['9'];[0.40849469999920984];661.5610844000003;None;;;;;;;;Emoconpilot040;2021_Dec_15_1247;BackwardMask;2020.2.8;119.87173724068587;
;m;008_y_m_h_a.jpg;happy;9;21;f;021_o_f_n_a.jpg;neutral;incongruent;8;mismatch;;120;170;;2;137;block1_Pilot_2;8;h_n;h_n_weak;;;;;0;0;0;0;0;71;71;71;;;;;;;;;664.5611341000003;None;665.7117649000002;666.0037057999998;666.0037057999998;666.0201889;666.0201889;666.0610955000002;666.0610955000002;None;9;0;666.0610955000002;None;667.5618536000002;None;['8'];[0.23966730000029202];667.5618536000002;None;;;;;0.7563485000000583;;;Emoconpilot040;2021_Dec_15_1247;BackwardMask;2020.2.8;119.87173724068587;
;f;012_o_f_n_a.jpg;neutral;8;8;m;008_y_m_s_a.jpg;sad;incongruent;7;mismatch;;140;160;;2;208;block1_Pilot_2;12;n_s;n_s_weak;;;;;0;0;0;0;0;72;72;72;;;;;;;;;670.5611711000001;None;672.3604981999997;672.6542559;672.6542559;672.6702961999999;672.6702961999999;672.7111298;672.7111298;None;None;0;672.7111298;None;674.2110986999996;None;['9'];[0.4543555000000197];674.2110986999996;None;;;;;;;;Emoconpilot040;2021_Dec_15_1247;BackwardMask;2020.2.8;119.87173724068587;
;m;016_y_m_n_a.jpg;neutral;8;8;m;008_y_m_n_a.jpg;neutral;congruent;8;match;;140;170;;3;211;block1_Pilot_2;16;n_n;n_n_strong;;;;;0;0;0;0;0;73;73;73;;;;;;;;;677.2124344000003;None;678.9949247000004;679.2874242999997;679.2874242999997;679.3120775999996;679.3120775999996;679.3529202999998;679.3529202999998;None;8;1;679.3529202999998;None;680.8531660999997;None;['8'];[0.2363401000002341];680.8531660999997;None;;;;;0.9044112000001405;;;Emoconpilot040;2021_Dec_15_1247;BackwardMask;2020.2.8;119.87173724068587;
;m;016_y_m_h_a.jpg;happy;9;13;m;013_y_m_s_a.jpg;sad;incongruent;7;match;;120;160;;3;138;block1_Pilot_2;16;h_s;h_s_weak;;;;;0;0;0;0;0;74;74;74;;;;;;;;;683.8540664000002;None;685.0128879000004;685.3039655000002;685.3039655000002;685.3287676;685.3287676;685.3696754000002;685.3696754000002;None;9;0;685.3696754000002;None;686.8698822999995;None;['7'];[0.6036440999996557];686.8698822999995;None;;;;;0.6878198000003977;;;Emoconpilot040;2021_Dec_15_1247;BackwardMask;2020.2.8;119.87173724068587;
;m;016_y_m_n_a.jpg;neutral;8;19;f;019_m_f_s_a.jpg;sad;incongruent;7;mismatch;;140;160;;2;185;block1_Pilot_2;16;n_s;n_s_strong;;;;;0;0;0;0;0;75;75;75;;;;;;;;;689.8698729999996;None;691.4321878999999;691.7212728000004;691.7212728000004;691.7373051000004;691.7373051000004;691.7782168000003;691.7782168000003;None;None;0;691.7782168000003;None;693.2781474000003;None;['9'];[0.3073502000006556];693.2781474000003;None;;;;;;;;Emoconpilot040;2021_Dec_15_1247;BackwardMask;2020.2.8;119.87173724068587;
;m;027_o_m_s_a.jpg;sad;7;8;m;008_y_m_s_a.jpg;sad;congruent;7;match;;130;160;;1;238;block1_Pilot_2;27;s_s;s_s_strong;;;;;0;0;0;0;0;76;76;76;;;;;;;;;696.2783308999997;None;698.2697795000004;698.5625913000003;698.5625913000003;698.5707774000002;698.5707774000002;698.6115798000001;698.6115798000001;None;None;0;698.6115798000001;None;700.1116007999999;None;['9'];[0.2898611999999048];700.1116007999999;None;;;;;;;;Emoconpilot040;2021_Dec_15_1247;BackwardMask;2020.2.8;119.87173724068587;
;f;019_m_f_n_a.jpg;neutral;8;27;m;027_o_m_n_a.jpg;neutral;congruent;8;mismatch;;140;170;;3;186;block1_Pilot_2;19;n_n;n_n_strong;;;;;0;0;0;0;0;77;77;77;;;;;;;;;703.1119785999999;None;704.6824737999996;704.9714722999997;704.9714722999997;704.9960861999998;704.9960861999998;705.0368322000004;705.0368322000004;None;8;1;705.0368322000004;None;706.5369466000002;None;['8'];[0.9603940000006332];706.5369466000002;None;;;;;1.4527047999999922;;;Emoconpilot040;2021_Dec_15_1247;BackwardMask;2020.2.8;119.87173724068587;
;m;004_o_m_s_a.jpg;sad;7;12;f;012_o_f_s_a.jpg;sad;congruent;7;mismatch;;130;160;;1;238;block1_Pilot_2;4;s_s;s_s_strong;;;;;0;0;0;0;0;78;78;78;;;;;;;;;709.5368808000003;None;711.5283137999995;711.8212084999996;711.8212084999996;711.8293905999999;711.8293905999999;711.8703647000002;711.8703647000002;None;None;0;711.8703647000002;None;713.3701355000003;None;['9'];[0.6714273999996294];713.3701355000003;None;;;;;;;;Emoconpilot040;2021_Dec_15_1247;BackwardMask;2020.2.8;119.87173724068587;
;f;019_m_f_n_a.jpg;neutral;8;13;m;013_y_m_s_a.jpg;sad;incongruent;7;mismatch;;140;160;;3;207;block1_Pilot_2;19;n_s;n_s_strong;;;;;0;0;0;0;0;79;79;79;;;;;;;;;716.3709099999996;None;718.1281490000001;718.4219442000003;718.4219442000003;718.4462330999995;718.4462330999995;718.4871498000002;718.4871498000002;None;8;0;718.4871498000002;None;719.9870504999999;None;['8'];[0.28643710000051215];719.9870504999999;None;;;;;0.7540562000003774;;;Emoconpilot040;2021_Dec_15_1247;BackwardMask;2020.2.8;119.87173724068587;
;m;027_o_m_h_a.jpg;happy;9;33;m;033_o_m_h_a.jpg;happy;congruent;9;match;;120;150;;1;238;block1_Pilot_2;27;h_h;h_h_strong;;;;;0;0;0;0;0;80;80;80;;;;;;;;;722.9871987999995;None;724.9914626999998;725.2802437999999;725.2802437999999;725.2878090000004;725.2878090000004;725.3288587999996;725.3288587999996;None;None;0;725.3288587999996;None;726.8298038000003;None;['9'];[0.3156943999993018];726.8298038000003;None;;;;;;;;Emoconpilot040;2021_Dec_15_1247;BackwardMask;2020.2.8;119.87173724068587;
;m;027_o_m_h_a.jpg;happy;9;21;f;021_o_f_s_a.jpg;sad;incongruent;7;mismatch;;120;160;;1;238;block1_Pilot_2;27;h_s;h_s_weak;;;;;0;0;0;0;0;81;81;81;;;;;;;;;729.8307035999997;None;731.8322556000003;732.1222694999997;732.1222694999997;732.1296794;732.1296794;732.1707070000002;732.1707070000002;None;None;0;732.1707070000002;None;733.6707678000002;None;['9'];[0.3146782000003441];733.6707678000002;None;;;;;;;;Emoconpilot040;2021_Dec_15_1247;BackwardMask;2020.2.8;119.87173724068587;
;m;033_o_m_s_a.jpg;sad;7;40;f;040_y_f_n_a.jpg;neutral;incongruent;8;mismatch;;130;170;;3;146;block1_Pilot_2;33;s_n;s_n_weak;;;;;0;0;0;0;0;82;82;82;;;;;;;;;736.6709266999997;None;737.9051774;738.1967384;738.1967384;738.2215801000002;738.2215801000002;738.2624728999999;738.2624728999999;None;None;0;738.2624728999999;None;739.7624646000004;None;"['8', '8']";"[0.07088479999947594, 0.6230083999998897]";739.7624646000004;None;;;;;;;;Emoconpilot040;2021_Dec_15_1247;BackwardMask;2020.2.8;119.87173724068587;
;m;008_y_m_h_a.jpg;happy;9;4;m;004_o_m_s_a.jpg;sad;incongruent;7;match;;120;160;;2;225;block1_Pilot_2;8;h_s;h_s_weak;;;;;0;0;0;0;0;83;83;83;;;;;;;;;742.7627702999998;None;744.6463977000003;744.9385482999996;744.9385482999996;744.9550067;744.9550067;744.9958932999998;744.9958932999998;None;9;0;744.9958932999998;None;746.4959240999997;None;['8'];[0.2813950999998269];746.4959240999997;None;;;;;1.1175461999991967;;;Emoconpilot040;2021_Dec_15_1247;BackwardMask;2020.2.8;119.87173724068587;
;f;012_o_f_n_a.jpg;neutral;8;4;m;004_o_m_s_a.jpg;sad;incongruent;7;mismatch;;140;160;;3;150;block1_Pilot_2;12;n_s;n_s_strong;;;;;0;0;0;0;0;84;84;84;;;;;;;;;749.4964872;None;750.7977216999998;751.0890416000002;751.0890416000002;751.1134333;751.1134333;751.1544047999996;751.1544047999996;None;None;0;751.1544047999996;None;752.6543691999996;None;['9'];[0.5469337999993513];752.6543691999996;None;;;;;;;;Emoconpilot040;2021_Dec_15_1247;BackwardMask;2020.2.8;119.87173724068587;
;f;021_o_f_s_a.jpg;sad;7;40;f;040_y_f_n_a.jpg;neutral;incongruent;8;match;;130;170;;2;156;block1_Pilot_2;21;s_n;s_n_strong;;;;;0;0;0;0;0;85;85;85;;;;;;;;;755.6551253999996;None;756.9616569999998;757.2553121000001;757.2553121000001;757.2719267000002;757.2719267000002;757.3127468000002;757.3127468000002;None;9;0;757.3127468000002;None;758.8126964000003;None;['8'];[0.6126764999999068];758.8126964000003;None;;;;;1.1447107999993023;;;Emoconpilot040;2021_Dec_15_1247;BackwardMask;2020.2.8;119.87173724068587;
;m;004_o_m_n_a.jpg;neutral;8;13;m;013_y_m_n_a.jpg;neutral;congruent;8;match;;140;170;;2;225;block1_Pilot_2;4;n_n;n_n_strong;;;;;0;0;0;0;0;86;86;86;;;;;;;;;761.8130909000001;None;763.713538;764.0061161000003;764.0061161000003;764.0220362999999;764.0220362999999;764.0628318999998;764.0628318999998;None;None;0;764.0628318999998;None;765.5628844000003;None;['9'];[0.23041469999952824];765.5628844000003;None;;;;;;;;Emoconpilot040;2021_Dec_15_1247;BackwardMask;2020.2.8;119.87173724068587;
;m;016_y_m_n_a.jpg;neutral;8;16;m;016_y_m_h_a.jpg;happy;incongruent;9;match;;140;150;;18;193;block1_Pilot_2;16;n_h;n_h_strong;;;;;0;0;0;0;0;87;87;87;;;;;;;;;768.5631952000003;None;770.1899045999999;770.4809250999997;770.4809250999997;770.6304313999999;770.6304313999999;770.6714554;770.6714554;None;8;0;770.6714554;None;772.1714511;None;['7'];[0.5019582999993872];772.1714511;None;;;;;0.9537822000002052;;;Emoconpilot040;2021_Dec_15_1247;BackwardMask;2020.2.8;119.87173724068587;
;m;033_o_m_h_a.jpg;happy;9;4;m;004_o_m_h_a.jpg;happy;congruent;9;match;;120;150;;2;195;block1_Pilot_2;33;h_h;h_h_strong;;;;;0;0;0;0;0;88;88;88;;;;;;;;;775.1716182999999;None;776.8045206999996;777.0973818000002;777.0973818000002;777.1139273999997;777.1139273999997;777.1548075000001;777.1548075000001;None;9;1;777.1548075000001;None;778.6547966999997;None;['8'];[0.47441969999999856];778.6547966999997;None;;;;;0.8945915000003879;;;Emoconpilot040;2021_Dec_15_1247;BackwardMask;2020.2.8;119.87173724068587;
;m;027_o_m_h_a.jpg;happy;9;16;m;016_y_m_h_a.jpg;happy;congruent;9;match;;120;150;;3;209;block1_Pilot_2;27;h_h;h_h_weak;;;;;0;0;0;0;0;89;89;89;;;;;;;;;781.6549555000001;None;783.4301206;783.7230755;783.7230755;783.7474113999997;783.7474113999997;783.7882552000001;783.7882552000001;None;9;1;783.7882552000001;None;785.2882034000004;None;['7'];[0.24112409999997908];785.2882034000004;None;;;;;0.6368819999997868;;;Emoconpilot040;2021_Dec_15_1247;BackwardMask;2020.2.8;119.87173724068587;
;m;033_o_m_s_a.jpg;sad;7;16;m;016_y_m_s_a.jpg;sad;congruent;7;match;;130;160;;3;128;block1_Pilot_2;33;s_s;s_s_strong;;;;;0;0;0;0;0;90;90;90;;;;;;;;;788.2892027999997;None;789.3635370000002;789.6559004999999;789.6559004999999;789.6810164999997;789.6810164999997;789.7218153000003;789.7218153000003;None;8;0;789.7218153000003;None;791.2217811999999;None;['8'];[1.323534799999834];791.2217811999999;None;;;;;1.4233788999999888;;;Emoconpilot040;2021_Dec_15_1247;BackwardMask;2020.2.8;119.87173724068587;
;f;021_o_f_s_a.jpg;sad;7;30;f;030_o_f_s_a.jpg;sad;congruent;7;match;;130;160;;1;238;block1_Pilot_2;21;s_s;s_s_strong;;;;;0;0;0;0;0;91;91;91;;;;;;;;;794.2226762;None;796.2120729999997;796.5062760999999;796.5062760999999;796.5143109;796.5143109;796.5552636000002;796.5552636000002;None;None;0;796.5552636000002;None;798.0552611000003;None;['9'];[0.2340597999991587];798.0552611000003;None;;;;;;;;Emoconpilot040;2021_Dec_15_1247;BackwardMask;2020.2.8;119.87173724068587;
;m;033_o_m_n_a.jpg;neutral;8;28;f;028_y_f_s_a.jpg;sad;incongruent;7;mismatch;;140;160;;18;166;block1_Pilot_2;33;n_s;n_s_strong;;;;;0;0;0;0;0;92;92;92;;;;;;;;;801.0553631000002;None;802.4823108999999;802.7733697000003;802.7733697000003;802.9227584999999;802.9227584999999;802.9637480000001;802.9637480000001;None;8;0;802.9637480000001;None;804.4637345000001;None;['7'];[0.385457000000315];804.4637345000001;None;;;;;0.8774515999994037;;;Emoconpilot040;2021_Dec_15_1247;BackwardMask;2020.2.8;119.87173724068587;
;f;019_m_f_n_a.jpg;neutral;8;30;f;030_o_f_n_a.jpg;neutral;congruent;8;match;;140;170;;18;228;block1_Pilot_2;19;n_n;n_n_weak;;;;;0;0;0;0;0;93;93;93;;;;;;;;;807.4643617000002;None;809.3857970999998;809.6818210000001;809.6818210000001;809.8312544999999;809.8312544999999;809.8720082;809.8720082;None;8;1;809.8720082;None;811.3729732000002;None;['7'];[0.2683529999994789];811.3729732000002;None;;;;;0.6651584999999614;;;Emoconpilot040;2021_Dec_15_1247;BackwardMask;2020.2.8;119.87173724068587;
;m;008_y_m_s_a.jpg;sad;7;12;f;012_o_f_h_a.jpg;happy;incongruent;9;mismatch;;130;150;;3;130;block1_Pilot_2;8;s_h;s_h_weak;;;;;0;0;0;0;0;94;94;94;;;;;;;;;814.3723284999996;None;815.4744763999997;815.7652786999997;815.7652786999997;815.7898738000004;815.7898738000004;815.8306875999997;815.8306875999997;None;None;0;815.8306875999997;None;817.3307070999999;None;['8'];[0.9504735000000437];817.3307070999999;None;;;;;;;;Emoconpilot040;2021_Dec_15_1247;BackwardMask;2020.2.8;119.87173724068587;
;m;016_y_m_n_a.jpg;neutral;8;28;f;028_y_f_n_a.jpg;neutral;congruent;8;mismatch;;140;170;;18;189;block1_Pilot_2;16;n_n;n_n_strong;;;;;0;0;0;0;0;95;95;95;;;;;;;;;820.3313789000003;None;821.9262225000002;822.2151670000003;822.2151670000003;822.3648381000003;822.3648381000003;822.4055448999998;822.4055448999998;None;8;1;822.4055448999998;None;823.9060281000002;None;['7'];[0.3190380999994886];823.9060281000002;None;;;;;1.0598085999999967;;;Emoconpilot040;2021_Dec_15_1247;BackwardMask;2020.2.8;119.87173724068587;
;f;012_o_f_s_a.jpg;sad;7;16;m;016_y_m_h_a.jpg;happy;incongruent;9;mismatch;;130;150;;3;238;block1_Pilot_2;12;s_h;s_h_strong;;;;;0;0;0;0;0;96;96;96;;;;;;;;;826.9066787000002;None;828.8923904000003;829.1900093000004;829.1900093000004;829.2151585000001;829.2151585000001;829.2558596999997;829.2558596999997;None;9;1;829.2558596999997;None;830.7558031999997;None;['8'];[0.36541399999987334];830.7558031999997;None;;;;;0.9852000999999291;;;Emoconpilot040;2021_Dec_15_1247;BackwardMask;2020.2.8;119.87173724068587;
;m;013_y_m_h_a.jpg;happy;9;27;m;027_o_m_h_a.jpg;happy;congruent;9;match;;120;150;;18;238;block1_Pilot_2;13;h_h;h_h_strong;;;;;0;0;0;0;0;97;97;97;;;;;;;;;833.7559006000001;None;835.77081;836.0656261000004;836.0656261000004;836.2150244000004;836.2150244000004;836.256104;836.256104;None;9;1;836.256104;None;837.7560339000001;None;['7'];[0.220968399999947];837.7560339000001;None;;;;;0.6010440999998536;;;Emoconpilot040;2021_Dec_15_1247;BackwardMask;2020.2.8;119.87173724068587;
;m;016_y_m_s_a.jpg;sad;7;33;m;033_o_m_n_a.jpg;neutral;incongruent;8;match;;130;170;;1;238;block1_Pilot_2;16;s_n;s_n_weak;;;;;0;0;0;0;0;98;98;98;;;;;;;;;840.7572844999995;None;842.7482877000002;843.0404754000001;843.0404754000001;843.0485486999996;843.0485486999996;843.0895627;843.0895627;None;None;0;843.0895627;None;844.5895737999999;None;['9'];[0.3795758999995087];844.5895737999999;None;;;;;;;;Emoconpilot040;2021_Dec_15_1247;BackwardMask;2020.2.8;119.87173724068587;
;m;008_y_m_n_a.jpg;neutral;8;30;f;030_o_f_n_a.jpg;neutral;congruent;8;mismatch;;140;170;;1;238;block1_Pilot_2;8;n_n;n_n_weak;;;;;0;0;0;0;0;99;99;99;;;;;;;;;847.5902686999998;None;849.6252747999997;849.9160234000001;849.9160234000001;849.9237770999998;849.9237770999998;849.9646094999998;849.9646094999998;None;None;0;849.9646094999998;None;851.4644565999997;None;['9'];[0.40059219999966444];851.4644565999997;None;;;;;;;;Emoconpilot040;2021_Dec_15_1247;BackwardMask;2020.2.8;119.87173724068587;
;m;008_y_m_s_a.jpg;sad;7;30;f;030_o_f_s_a.jpg;sad;congruent;7;mismatch;;130;160;;2;133;block1_Pilot_2;8;s_s;s_s_weak;;;;;0;0;0;0;0;100;100;100;;;;;;;;;854.4647225999997;None;855.5942082000001;855.8827388;855.8827388;855.8987446000001;855.8987446000001;855.9397456999995;855.9397456999995;None;8;0;855.9397456999995;None;857.4396733000003;None;['8'];[0.3535253999998531];857.4396733000003;None;;;;;1.2293159000000742;;;Emoconpilot040;2021_Dec_15_1247;BackwardMask;2020.2.8;119.87173724068587;
;f;040_y_f_n_a.jpg;neutral;8;30;f;030_o_f_s_a.jpg;sad;incongruent;7;match;;140;160;;3;197;block1_Pilot_2;40;n_s;n_s_strong;;;;;0;0;0;0;0;101;101;101;;;;;;;;;860.4408059999996;None;862.1011951999999;862.3912073000001;862.3912073000001;862.4156083999997;862.4156083999997;862.4564127000003;862.4564127000003;None;8;0;862.4564127000003;None;863.9565980999996;None;['7'];[0.6045450000001438];863.9565980999996;None;;;;;0.8964906000001065;;;Emoconpilot040;2021_Dec_15_1247;BackwardMask;2020.2.8;119.87173724068587;
;m;004_o_m_h_a.jpg;happy;9;30;f;030_o_f_s_a.jpg;sad;incongruent;7;mismatch;;120;160;;3;121;block1_Pilot_2;4;h_s;h_s_strong;;;;;0;0;0;0;0;102;102;102;;;;;;;;;866.9565597000001;None;868.0132267999998;868.3079981999999;868.3079981999999;868.3324247;868.3324247;868.3732523999997;868.3732523999997;None;9;0;868.3732523999997;None;869.8731558;None;['7'];[0.26398300000073505];869.8731558;None;;;;;0.6759192999998049;;;Emoconpilot040;2021_Dec_15_1247;BackwardMask;2020.2.8;119.87173724068587;
;f;040_y_f_h_a.jpg;happy;9;8;m;008_y_m_h_a.jpg;happy;congruent;9;mismatch;;120;150;;18;211;block1_Pilot_2;40;h_h;h_h_weak;;;;;0;0;0;0;0;103;103;103;;;;;;;;;872.8736246999997;None;874.6400394000002;874.9326124999998;874.9326124999998;875.0823766000003;875.0823766000003;875.1235611000002;875.1235611000002;None;9;1;875.1235611000002;None;876.6232818999997;None;['7'];[0.3296196000001146];876.6232818999997;None;;;;;0.4856052000004638;;;Emoconpilot040;2021_Dec_15_1247;BackwardMask;2020.2.8;119.87173724068587;
;f;019_m_f_s_a.jpg;sad;7;16;m;016_y_m_n_a.jpg;neutral;incongruent;8;mismatch;;130;170;;2;198;block1_Pilot_2;19;s_n;s_n_strong;;;;;0;0;0;0;0;104;104;104;;;;;;;;;879.6234127999996;None;881.3342028999996;881.6247911;881.6247911;881.6408487999997;881.6408487999997;881.6817944000004;881.6817944000004;None;8;1;881.6817944000004;None;883.1820201999999;None;['9'];[1.5231504000003042];883.1820201999999;None;;;;;0.9194901000000755;;;Emoconpilot040;2021_Dec_15_1247;BackwardMask;2020.2.8;119.87173724068587;
;f;040_y_f_s_a.jpg;sad;7;12;f;012_o_f_s_a.jpg;sad;congruent;7;match;;130;160;;18;240;block1_Pilot_2;40;s_s;s_s_strong;;;;;0;0;0;0;0;105;105;105;;;;;;;;;886.1831916000001;None;888.1909177999996;888.4827524000002;888.4827524000002;888.6327947;888.6327947;888.6737755000004;888.6737755000004;None;7;1;888.6737755000004;None;890.1738395000002;None;['7'];[0.3233200000004217];890.1738395000002;None;;;;;1.1593881999997393;;;Emoconpilot040;2021_Dec_15_1247;BackwardMask;2020.2.8;119.87173724068587;
;f;040_y_f_n_a.jpg;neutral;8;33;m;033_o_m_s_a.jpg;sad;incongruent;7;mismatch;;140;160;;3;188;block1_Pilot_2;40;n_s;n_s_weak;;;;;0;0;0;0;0;106;106;106;;;;;;;;;893.1753058000004;None;894.7875317999997;895.0834613999996;895.0834613999996;895.1078244999999;895.1078244999999;895.1487485999996;895.1487485999996;None;8;0;895.1487485999996;None;896.6487471;None;['8'];[0.21647479999955976];896.6487471;None;;;;;0.756402099999832;;;Emoconpilot040;2021_Dec_15_1247;BackwardMask;2020.2.8;119.87173724068587;
;f;028_y_f_h_a.jpg;happy;9;21;f;021_o_f_s_a.jpg;sad;incongruent;7;match;;120;160;;3;193;block1_Pilot_2;28;h_s;h_s_strong;;;;;0;0;0;0;0;107;107;107;;;;;;;;;899.6490002999999;None;901.2693701999997;901.5582019000003;901.5582019000003;901.5830033000002;901.5830033000002;901.6238280999996;901.6238280999996;None;9;0;901.6238280999996;None;903.1239501;None;['7'];[0.39711029999944003];903.1239501;None;;;;;0.6014381000004505;;;Emoconpilot040;2021_Dec_15_1247;BackwardMask;2020.2.8;119.87173724068587;
;f;040_y_f_s_a.jpg;sad;7;13;m;013_y_m_n_a.jpg;neutral;incongruent;8;mismatch;;130;170;;2;198;block1_Pilot_2;40;s_n;s_n_strong;;;;;0;0;0;0;0;108;108;108;;;;;;;;;906.1241092;None;907.7839797999995;908.0749538999999;908.0749538999999;908.0914669000003;908.0914669000003;908.1322092;908.1322092;None;8;1;908.1322092;None;909.6324727000001;None;['8'];[0.5845461999997497];909.6324727000001;None;;;;;1.1088284999996176;;;Emoconpilot040;2021_Dec_15_1247;BackwardMask;2020.2.8;119.87173724068587;
;f;030_o_f_n_a.jpg;neutral;8;33;m;033_o_m_s_a.jpg;sad;incongruent;7;mismatch;;140;160;;1;238;block1_Pilot_2;30;n_s;n_s_strong;;;;;0;0;0;0;0;109;109;109;;;;;;;;;912.6332690999998;None;914.6572239999996;914.9505221999998;914.9505221999998;914.9582936999996;914.9582936999996;914.9992499999998;914.9992499999998;None;None;0;914.9992499999998;None;916.4990631999999;None;['9'];[0.35003770000002987];916.4990631999999;None;;;;;;;;Emoconpilot040;2021_Dec_15_1247;BackwardMask;2020.2.8;119.87173724068587;
;f;021_o_f_h_a.jpg;happy;9;40;f;040_y_f_n_a.jpg;neutral;incongruent;8;match;;120;170;;2;125;block1_Pilot_2;21;h_n;h_n_weak;;;;;0;0;0;0;0;110;110;110;;;;;;;;;919.4997010999996;None;920.5615091;920.8507061999999;920.8507061999999;920.8666843000001;920.8666843000001;920.9076926999996;920.9076926999996;None;9;0;920.9076926999996;None;922.4074283;None;['8'];[0.20172350000029837];922.4074283;None;;;;;0.9414105000005293;;;Emoconpilot040;2021_Dec_15_1247;BackwardMask;2020.2.8;119.87173724068587;
;f;021_o_f_h_a.jpg;happy;9;16;m;016_y_m_s_a.jpg;sad;incongruent;7;mismatch;;120;160;;1;238;block1_Pilot_2;21;h_s;h_s_strong;;;;;0;0;0;0;0;111;111;111;;;;;;;;;925.4077004000001;None;927.4368594999996;927.7257706;927.7257706;927.7334142;927.7334142;927.7743067000001;927.7743067000001;None;None;0;927.7743067000001;None;929.2745131000001;None;['9'];[0.2543614999995043];929.2745131000001;None;;;;;;;;Emoconpilot040;2021_Dec_15_1247;BackwardMask;2020.2.8;119.87173724068587;
;f;012_o_f_h_a.jpg;happy;9;8;m;008_y_m_s_a.jpg;sad;incongruent;7;mismatch;;120;160;;1;238;block1_Pilot_2;12;h_s;h_s_weak;;;;;0;0;0;0;0;112;112;112;;;;;;;;;932.2745020000002;None;934.2673238999996;934.5588508000001;934.5588508000001;934.5669293999999;934.5669293999999;934.6078325999997;934.6078325999997;None;None;0;934.6078325999997;None;936.1079873999997;None;['9'];[0.2531946999997672];936.1079873999997;None;;;;;;;;Emoconpilot040;2021_Dec_15_1247;BackwardMask;2020.2.8;119.87173724068587;
;m;013_y_m_h_a.jpg;happy;9;16;m;016_y_m_s_a.jpg;sad;incongruent;7;match;;120;160;;3;202;block1_Pilot_2;13;h_s;h_s_weak;;;;;0;0;0;0;0;113;113;113;;;;;;;;;939.1081156;None;940.8241666000004;941.1174948999997;941.1174948999997;941.1421191999998;941.1421191999998;941.1829139000001;941.1829139000001;None;9;0;941.1829139000001;None;942.6831634999999;None;['7'];[0.2696758000001864];942.6831634999999;None;;;;;0.6661967999998524;;;Emoconpilot040;2021_Dec_15_1247;BackwardMask;2020.2.8;119.87173724068587;
;f;019_m_f_s_a.jpg;sad;7;4;m;004_o_m_n_a.jpg;neutral;incongruent;8;mismatch;;130;170;;1;238;block1_Pilot_2;19;s_n;s_n_strong;;;;;0;0;0;0;0;114;114;114;;;;;;;;;945.6839979999995;None;947.6886446999997;947.9845272000002;947.9845272000002;947.9921382000002;947.9921382000002;948.0329848000001;948.0329848000001;None;None;0;948.0329848000001;None;949.5331518000003;None;['9'];[0.4760357999994085];949.5331518000003;None;;;;;;;;Emoconpilot040;2021_Dec_15_1247;BackwardMask;2020.2.8;119.87173724068587;
;f;028_y_f_n_a.jpg;neutral;8;27;m;027_o_m_s_a.jpg;sad;incongruent;7;mismatch;;140;160;;18;238;block1_Pilot_2;28;n_s;n_s_strong;;;;;0;0;0;0;0;115;115;115;;;;;;;;;952.5331817999995;None;954.5371822999996;954.8265068000001;954.8265068000001;954.9758910999999;954.9758910999999;955.0167037000001;955.0167037000001;None;8;0;955.0167037000001;None;956.5165200000001;None;['7'];[0.25249299999995856];956.5165200000001;None;;;;;0.672358400000121;;;Emoconpilot040;2021_Dec_15_1247;BackwardMask;2020.2.8;119.87173724068587;
;m;013_y_m_s_a.jpg;sad;7;12;f;012_o_f_h_a.jpg;happy;incongruent;9;mismatch;;130;150;;1;238;block1_Pilot_2;13;s_h;s_h_strong;;;;;0;0;0;0;0;116;116;116;;;;;;;;;959.5165593000002;None;961.5167063999997;961.8093664999997;961.8093664999997;961.8175197;961.8175197;961.8584190000001;961.8584190000001;None;None;0;961.8584190000001;None;963.3587865999998;None;['9'];[0.30621180000071035];963.3587865999998;None;;;;;;;;Emoconpilot040;2021_Dec_15_1247;BackwardMask;2020.2.8;119.87173724068587;
;m;016_y_m_s_a.jpg;sad;7;19;f;019_m_f_h_a.jpg;happy;incongruent;9;mismatch;;130;150;;1;238;block1_Pilot_2;16;s_h;s_h_strong;;;;;0;0;0;0;0;117;117;117;;;;;;;;;966.3592140000001;None;968.3506790000001;968.6427580999998;968.6427580999998;968.6509997000003;968.6509997000003;968.6919435;968.6919435;None;None;0;968.6919435;None;970.1919307999997;None;['9'];[0.353035600000112];970.1919307999997;None;;;;;;;;Emoconpilot040;2021_Dec_15_1247;BackwardMask;2020.2.8;119.87173724068587;
;m;013_y_m_s_a.jpg;sad;7;21;f;021_o_f_h_a.jpg;happy;incongruent;9;mismatch;;130;150;;18;238;block1_Pilot_2;13;s_h;s_h_strong;;;;;0;0;0;0;0;118;118;118;;;;;;;;;973.1918391999998;None;975.1836470999997;975.4762144999995;975.4762144999995;975.6260922000001;975.6260922000001;975.6671551;975.6671551;None;7;0;975.6671551;None;977.1676709000003;None;['7'];[0.5774892000008549];977.1676709000003;None;;;;;0.8457503999998153;;;Emoconpilot040;2021_Dec_15_1247;BackwardMask;2020.2.8;119.87173724068587;
;f;012_o_f_s_a.jpg;sad;7;13;m;013_y_m_h_a.jpg;happy;incongruent;9;mismatch;;130;150;;3;235;block1_Pilot_2;12;s_h;s_h_weak;;;;;0;0;0;0;0;119;119;119;;;;;;;;;980.1670058999998;None;982.1293235000003;982.4262520000002;982.4262520000002;982.4512480000003;982.4512480000003;982.4920873000001;982.4920873000001;None;8;0;982.4920873000001;None;983.9921696000001;None;['8'];[0.4967330999998012];983.9921696000001;None;;;;;1.0369811000000482;;;Emoconpilot040;2021_Dec_15_1247;BackwardMask;2020.2.8;119.87173724068587;
;f;019_m_f_s_a.jpg;sad;7;30;f;030_o_f_h_a.jpg;happy;incongruent;9;match;;130;150;;3;235;block2_Pilot_2;19;s_h;s_h_strong;;;;;0;1;1;1;0;0;0;0;;;;;;;;;1007.0368043999997;None;1009.0442800999999;1009.3356206999997;1009.3356206999997;1009.3601840000001;1009.3601840000001;1009.4007884000002;1009.4007884000002;None;7;0;1009.4007884000002;None;1010.9018122999996;None;['8'];[0.43509850000009465];1010.9018122999996;None;;;986.9926512000002;None;1.1761271999994278;;;Emoconpilot040;2021_Dec_15_1247;BackwardMask;2020.2.8;119.87173724068587;
;m;008_y_m_n_a.jpg;neutral;8;40;f;040_y_f_h_a.jpg;happy;incongruent;9;mismatch;;140;150;;2;121;block2_Pilot_2;8;n_h;n_h_strong;;;;;0;1;1;1;0;1;1;1;;;;;;;;;1013.9017461000003;None;1014.9305406000003;1015.2191523000001;1015.2191523000001;1015.2352044999998;1015.2352044999998;1015.2760747000002;1015.2760747000002;None;7;0;1015.2760747000002;None;1016.7760802000003;None;['8'];[0.5447979000000487];1016.7760802000003;None;;;;;1.1809462000001076;;;Emoconpilot040;2021_Dec_15_1247;BackwardMask;2020.2.8;119.87173724068587;
;f;012_o_f_h_a.jpg;happy;9;27;m;027_o_m_n_a.jpg;neutral;incongruent;8;mismatch;;120;170;;2;240;block2_Pilot_2;12;h_n;h_n_weak;;;;;0;1;1;1;0;2;2;2;;;;;;;;;1019.7765292000004;None;1021.7966005999997;1022.0856405000004;1022.0856405000004;1022.1023606999997;1022.1023606999997;1022.1430735000004;1022.1430735000004;None;9;0;1022.1430735000004;None;1023.6430049999999;None;['7'];[0.3338184000003821];1023.6430049999999;None;;;;;0.817849699999897;;;Emoconpilot040;2021_Dec_15_1247;BackwardMask;2020.2.8;119.87173724068587;
;m;008_y_m_h_a.jpg;happy;9;40;f;040_y_f_h_a.jpg;happy;congruent;9;mismatch;;120;150;;18;195;block2_Pilot_2;8;h_h;h_h_strong;;;;;0;1;1;1;0;3;3;3;;;;;;;;;1026.6439459000003;None;1028.2764535999995;1028.5688973999995;1028.5688973999995;1028.7187649999996;1028.7187649999996;1028.7595829000002;1028.7595829000002;None;9;1;1028.7595829000002;None;1030.2598885999996;None;['7'];[0.4930554000002303];1030.2598885999996;None;;;;;0.8573595999996542;;;Emoconpilot040;2021_Dec_15_1247;BackwardMask;2020.2.8;119.87173724068587;
;m;004_o_m_n_a.jpg;neutral;8;33;m;033_o_m_s_a.jpg;sad;incongruent;7;match;;140;160;;18;126;block2_Pilot_2;4;n_s;n_s_weak;;;;;0;1;1;1;0;4;4;4;;;;;;;;;1033.2597735;None;1034.3659111999996;1034.6612062000004;1034.6612062000004;1034.8105133999998;1034.8105133999998;1034.8512964000001;1034.8512964000001;None;None;0;1034.8512964000001;None;1036.3514002000002;None;"['8', '8']";"[0.20142830000077083, 0.7374373000002379]";1036.3514002000002;None;;;;;;;;Emoconpilot040;2021_Dec_15_1247;BackwardMask;2020.2.8;119.87173724068587;
;f;028_y_f_s_a.jpg;sad;7;27;m;027_o_m_n_a.jpg;neutral;incongruent;8;mismatch;;130;170;;18;225;block2_Pilot_2;28;s_n;s_n_strong;;;;;0;1;1;1;0;5;5;5;;;;;;;;;1039.3524927999997;None;1041.2392370999996;1041.5276538999997;1041.5276538999997;1041.6773658000002;1041.6773658000002;1041.7181276000001;1041.7181276000001;None;7;0;1041.7181276000001;None;1043.2189299000001;None;['7'];[0.7019370999996681];1043.2189299000001;None;;;;;1.1308779999999388;;;Emoconpilot040;2021_Dec_15_1247;BackwardMask;2020.2.8;119.87173724068587;
;m;027_o_m_s_a.jpg;sad;7;30;f;030_o_f_h_a.jpg;happy;incongruent;9;mismatch;;130;150;;18;238;block2_Pilot_2;27;s_h;s_h_weak;;;;;0;1;1;1;0;6;6;6;;;;;;;;;1046.2190933000002;None;1048.2106766999996;1048.5026386999998;1048.5026386999998;1048.6525131999997;1048.6525131999997;1048.6933521;1048.6933521;None;7;0;1048.6933521;None;1050.1939586999997;None;['7'];[0.24691449999954784];1050.1939586999997;None;;;;;0.6835512999996354;;;Emoconpilot040;2021_Dec_15_1247;BackwardMask;2020.2.8;119.87173724068587;
;m;033_o_m_h_a.jpg;happy;9;40;f;040_y_f_s_a.jpg;sad;incongruent;7;mismatch;;120;160;;1;238;block2_Pilot_2;33;h_s;h_s_strong;;;;;0;1;1;1;0;7;7;7;;;;;;;;;1053.1937043999997;None;1055.1857744;1055.4778963999997;1055.4778963999997;1055.4860327999995;1055.4860327999995;1055.5268477999998;1055.5268477999998;None;None;0;1055.5268477999998;None;1057.0267150999998;None;['9'];[0.3821557999999641];1057.0267150999998;None;;;;;;;;Emoconpilot040;2021_Dec_15_1247;BackwardMask;2020.2.8;119.87173724068587;
;f;012_o_f_n_a.jpg;neutral;8;12;f;012_o_f_h_a.jpg;happy;incongruent;9;match;;140;150;;2;200;block2_Pilot_2;12;n_h;n_h_weak;;;;;0;1;1;1;0;8;8;8;;;;;;;;;1060.0272783;None;1061.7474402999997;1062.0365900999996;1062.0365900999996;1062.0527614000002;1062.0527614000002;1062.0935384000004;1062.0935384000004;None;8;0;1062.0935384000004;None;1063.5935966999996;None;['9'];[0.9031912999998895];1063.5935966999996;None;;;;;0.7794184999993377;;;Emoconpilot040;2021_Dec_15_1247;BackwardMask;2020.2.8;119.87173724068587;
;f;030_o_f_n_a.jpg;neutral;8;19;f;019_m_f_n_a.jpg;neutral;congruent;8;match;;140;170;;1;238;block2_Pilot_2;30;n_n;n_n_weak;;;;;0;1;1;1;0;9;9;9;;;;;;;;;1066.5940858000004;None;1068.5987044000003;1068.8953049000002;1068.8953049000002;1068.9028118999995;1068.9028118999995;1068.9437976999998;1068.9437976999998;None;None;0;1068.9437976999998;None;1070.4438180999996;None;['9'];[0.3488806999994267];1070.4438180999996;None;;;;;;;;Emoconpilot040;2021_Dec_15_1247;BackwardMask;2020.2.8;119.87173724068587;
;m;013_y_m_h_a.jpg;happy;9;8;m;008_y_m_n_a.jpg;neutral;incongruent;8;match;;120;170;;1;238;block2_Pilot_2;13;h_n;h_n_strong;;;;;0;1;1;1;0;10;10;10;;;;;;;;;1073.4446619999999;None;1075.4625595999996;1075.7536506999995;1075.7536506999995;1075.7612933999999;1075.7612933999999;1075.8023346999998;1075.8023346999998;None;None;0;1075.8023346999998;None;1077.3021473;None;['9'];[0.4827955999999176];1077.3021473;None;;;;;;;;Emoconpilot040;2021_Dec_15_1247;BackwardMask;2020.2.8;119.87173724068587;
;f;040_y_f_h_a.jpg;happy;9;19;f;019_m_f_s_a.jpg;sad;incongruent;7;match;;120;160;;3;133;block2_Pilot_2;40;h_s;h_s_strong;;;;;0;1;1;1;0;11;11;11;;;;;;;;;1080.3022921000002;None;1081.4203340000004;1081.7116446;1081.7116446;1081.7365071000004;1081.7365071000004;1081.7773312;1081.7773312;None;7;1;1081.7773312;None;1083.2773018999997;None;"['9', '7']";"[0.13958050000019284, 0.8915757000004305]";1083.2773018999997;None;;;;;0.9514972999995734;;;Emoconpilot040;2021_Dec_15_1247;BackwardMask;2020.2.8;119.87173724068587;
;f;040_y_f_h_a.jpg;happy;9;13;m;013_y_m_s_a.jpg;sad;incongruent;7;mismatch;;120;160;;3;226;block2_Pilot_2;40;h_s;h_s_strong;;;;;0;1;1;1;0;12;12;12;;;;;;;;;1086.2784462999998;None;1088.1685630000002;1088.4616715000002;1088.4616715000002;1088.4866406;1088.4866406;1088.5274148999997;1088.5274148999997;None;9;0;1088.5274148999997;None;1090.0274443999997;None;['7'];[0.39742519999981596];1090.0274443999997;None;;;;;1.017425699999876;;;Emoconpilot040;2021_Dec_15_1247;BackwardMask;2020.2.8;119.87173724068587;
;f;030_o_f_s_a.jpg;sad;7;27;m;027_o_m_h_a.jpg;happy;incongruent;9;mismatch;;130;150;;1;238;block2_Pilot_2;30;s_h;s_h_strong;;;;;0;1;1;1;0;13;13;13;;;;;;;;;1093.0277134999997;None;1095.0949168999996;1095.3874100000003;1095.3874100000003;1095.3949414999997;1095.3949414999997;1095.4358876999995;1095.4358876999995;None;None;0;1095.4358876999995;None;1096.9360095000002;None;['9'];[0.28090140000040265];1096.9360095000002;None;;;;;;;;Emoconpilot040;2021_Dec_15_1247;BackwardMask;2020.2.8;119.87173724068587;
;m;033_o_m_h_a.jpg;happy;9;30;f;030_o_f_s_a.jpg;sad;incongruent;7;mismatch;;120;160;;1;238;block2_Pilot_2;33;h_s;h_s_weak;;;;;0;1;1;1;0;14;14;14;;;;;;;;;1099.9369545;None;1101.9285277999998;1102.2203438999995;1102.2203438999995;1102.2284694999998;1102.2284694999998;1102.2693203;1102.2693203;None;None;0;1102.2693203;None;1103.7695210000002;None;['9'];[0.27121099999931175];1103.7695210000002;None;;;;;;;;Emoconpilot040;2021_Dec_15_1247;BackwardMask;2020.2.8;119.87173724068587;
;f;030_o_f_s_a.jpg;sad;7;28;f;028_y_f_n_a.jpg;neutral;incongruent;8;match;;130;170;;3;198;block2_Pilot_2;30;s_n;s_n_weak;;;;;0;1;1;1;0;15;15;15;;;;;;;;;1106.7695400000002;None;1108.4495561000003;1108.7459181000004;1108.7459181000004;1108.7702915999998;1108.7702915999998;1108.8111412999997;1108.8111412999997;None;7;0;1108.8111412999997;None;1110.3112442000001;None;['8'];[0.22548789999927976];1110.3112442000001;None;;;;;0.845727199999601;;;Emoconpilot040;2021_Dec_15_1247;BackwardMask;2020.2.8;119.87173724068587;
;f;030_o_f_s_a.jpg;sad;7;33;m;033_o_m_h_a.jpg;happy;incongruent;9;mismatch;;130;150;;3;175;block2_Pilot_2;30;s_h;s_h_weak;;;;;0;1;1;1;0;16;16;16;;;;;;;;;1113.3111884999998;None;1114.7895159999998;1115.0794108999999;1115.0794108999999;1115.1038446000002;1115.1038446000002;1115.1446537000002;1115.1446537000002;None;8;0;1115.1446537000002;None;1116.6447446000002;None;['8'];[0.22813370000039868];1116.6447446000002;None;;;;;1.0800865999999587;;;Emoconpilot040;2021_Dec_15_1247;BackwardMask;2020.2.8;119.87173724068587;
;f;021_o_f_h_a.jpg;happy;9;30;f;030_o_f_h_a.jpg;happy;congruent;9;match;;120;150;;2;194;block2_Pilot_2;21;h_h;h_h_strong;;;;;0;1;1;1;0;17;17;17;;;;;;;;;1119.6456391000002;None;1121.281779;1121.5710492999997;1121.5710492999997;1121.5871621999995;1121.5871621999995;1121.6281914;1121.6281914;None;None;0;1121.6281914;None;1123.1279941000003;None;['9'];[0.21683289999964472];1123.1279941000003;None;;;;;;;;Emoconpilot040;2021_Dec_15_1247;BackwardMask;2020.2.8;119.87173724068587;
;f;019_m_f_n_a.jpg;neutral;8;16;m;016_y_m_s_a.jpg;sad;incongruent;7;mismatch;;140;160;;18;163;block2_Pilot_2;19;n_s;n_s_weak;;;;;0;1;1;1;0;18;18;18;;;;;;;;;1126.128229;None;1127.5057164;1127.7963619000002;1127.7963619000002;1127.9457596000002;1127.9457596000002;1127.9865641999995;1127.9865641999995;None;8;0;1127.9865641999995;None;1129.4866488999996;None;['7'];[0.2581546999999773];1129.4866488999996;None;;;;;0.6301407000000836;;;Emoconpilot040;2021_Dec_15_1247;BackwardMask;2020.2.8;119.87173724068587;
;m;033_o_m_n_a.jpg;neutral;8;13;m;013_y_m_n_a.jpg;neutral;congruent;8;match;;140;170;;2;217;block2_Pilot_2;33;n_n;n_n_strong;;;;;0;1;1;1;0;19;19;19;;;;;;;;;1132.4868073999996;None;1134.3145826999998;1134.6046864;1134.6046864;1134.6208557999998;1134.6208557999998;1134.6617340000003;1134.6617340000003;None;8;1;1134.6617340000003;None;1136.1615986999996;None;['8'];[0.22310279999965132];1136.1615986999996;None;;;;;0.9230662999998458;;;Emoconpilot040;2021_Dec_15_1247;BackwardMask;2020.2.8;119.87173724068587;
;m;033_o_m_h_a.jpg;happy;9;13;m;013_y_m_n_a.jpg;neutral;incongruent;8;match;;120;170;;2;227;block2_Pilot_2;33;h_n;h_n_weak;;;;;0;1;1;1;0;20;20;20;;;;;;;;;1139.1617969;None;1141.0670793;1141.3628488000004;1141.3628488000004;1141.3792175999997;1141.3792175999997;1141.4200536999997;1141.4200536999997;None;9;0;1141.4200536999997;None;1142.9202260000002;None;['7'];[0.32052610000027926];1142.9202260000002;None;;;;;0.9567660000002434;;;Emoconpilot040;2021_Dec_15_1247;BackwardMask;2020.2.8;119.87173724068587;
;f;012_o_f_s_a.jpg;sad;7;16;m;016_y_m_n_a.jpg;neutral;incongruent;8;mismatch;;130;170;;1;238;block2_Pilot_2;12;s_n;s_n_weak;;;;;0;1;1;1;0;21;21;21;;;;;;;;;1145.9210107999997;None;1147.9075227000003;1148.2044066999997;1148.2044066999997;1148.212692;1148.212692;1148.2536367000002;1148.2536367000002;None;None;0;1148.2536367000002;None;1149.7535373;None;['9'];[0.32710640000004787];1149.7535373;None;;;;;;;;Emoconpilot040;2021_Dec_15_1247;BackwardMask;2020.2.8;119.87173724068587;
;f;028_y_f_n_a.jpg;neutral;8;21;f;021_o_f_h_a.jpg;happy;incongruent;9;match;;140;150;;18;202;block2_Pilot_2;28;n_h;n_h_strong;;;;;0;1;1;1;0;22;22;22;;;;;;;;;1152.7546094999998;None;1154.4720754999998;1154.7632815999996;1154.7632815999996;1154.9128463999996;1154.9128463999996;1154.9537752999995;1154.9537752999995;None;8;0;1154.9537752999995;None;1156.4538343000004;None;['7'];[0.22697900000002846];1156.4538343000004;None;;;;;0.5749270999995133;;;Emoconpilot040;2021_Dec_15_1247;BackwardMask;2020.2.8;119.87173724068587;
;f;028_y_f_s_a.jpg;sad;7;30;f;030_o_f_n_a.jpg;neutral;incongruent;8;match;;130;170;;2;127;block2_Pilot_2;28;s_n;s_n_weak;;;;;0;1;1;1;0;23;23;23;;;;;;;;;1159.4548477999997;None;1160.5391160999998;1160.8300798999999;1160.8300798999999;1160.8461071000002;1160.8461071000002;1160.8869977000004;1160.8869977000004;None;None;0;1160.8869977000004;None;1162.3873285999998;None;['9'];[0.27705800000057934];1162.3873285999998;None;;;;;;;;Emoconpilot040;2021_Dec_15_1247;BackwardMask;2020.2.8;119.87173724068587;
;m;004_o_m_n_a.jpg;neutral;8;40;f;040_y_f_n_a.jpg;neutral;congruent;8;mismatch;;140;170;;1;238;block2_Pilot_2;4;n_n;n_n_weak;;;;;0;1;1;1;0;24;24;24;;;;;;;;;1165.3857208;None;1167.4070493999998;1167.6955906000003;1167.6955906000003;1167.7032634999996;1167.7032634999996;1167.7440334000003;1167.7440334000003;None;None;0;1167.7440334000003;None;1169.2444415;None;['9'];[0.2119591999999102];1169.2444415;None;;;;;;;;Emoconpilot040;2021_Dec_15_1247;BackwardMask;2020.2.8;119.87173724068587;
;m;016_y_m_n_a.jpg;neutral;8;16;m;016_y_m_h_a.jpg;happy;incongruent;9;match;;140;150;;18;239;block2_Pilot_2;16;n_h;n_h_weak;;;;;0;1;1;1;0;25;25;25;;;;;;;;;1172.2456093;None;1174.2581895000003;1174.5467256000002;1174.5467256000002;1174.6962881;1174.6962881;1174.7371007000002;1174.7371007000002;None;8;0;1174.7371007000002;None;1176.2372248000001;None;['7'];[0.6752524000003177];1176.2372248000001;None;;;;;0.8074461000005613;;;Emoconpilot040;2021_Dec_15_1247;BackwardMask;2020.2.8;119.87173724068587;
;f;012_o_f_n_a.jpg;neutral;8;33;m;033_o_m_n_a.jpg;neutral;congruent;8;mismatch;;140;170;;3;134;block2_Pilot_2;12;n_n;n_n_weak;;;;;0;1;1;1;0;26;26;26;;;;;;;;;1179.2372710999998;None;1180.3757107000001;1180.6723210999999;1180.6723210999999;1180.6965086;1180.6965086;1180.7372379999997;1180.7372379999997;None;8;1;1180.7372379999997;None;1182.2372312999996;None;None;;1182.2372312999996;None;;;;;0.7832796000002418;;;Emoconpilot040;2021_Dec_15_1247;BackwardMask;2020.2.8;119.87173724068587;
;m;013_y_m_h_a.jpg;happy;9;27;m;027_o_m_s_a.jpg;sad;incongruent;7;match;;120;160;;2;194;block2_Pilot_2;13;h_s;h_s_strong;;;;;0;1;1;1;0;27;27;27;;;;;;;;;1185.2373360000001;None;1186.8762157;1187.1720881;1187.1720881;1187.1882526;1187.1882526;1187.2289178;1187.2289178;None;8;0;1187.2289178;None;1188.7291242000001;None;['9'];[1.0633200000002034];1188.7291242000001;None;;;;;1.2356221000000005;;;Emoconpilot040;2021_Dec_15_1247;BackwardMask;2020.2.8;119.87173724068587;
;m;013_y_m_n_a.jpg;neutral;8;28;f;028_y_f_n_a.jpg;neutral;congruent;8;mismatch;;140;170;;1;238;block2_Pilot_2;13;n_n;n_n_weak;;;;;0;1;1;1;0;28;28;28;;;;;;;;;1191.7290671;None;1193.7360030999998;1194.0307218999997;1194.0307218999997;1194.0385735999998;1194.0385735999998;1194.0793363000003;1194.0793363000003;None;None;0;1194.0793363000003;None;1195.5793772999996;None;['9'];[0.3170961999994688];1195.5793772999996;None;;;;;;;;Emoconpilot040;2021_Dec_15_1247;BackwardMask;2020.2.8;119.87173724068587;
;f;030_o_f_s_a.jpg;sad;7;33;m;033_o_m_h_a.jpg;happy;incongruent;9;mismatch;;130;150;;3;168;block2_Pilot_2;30;s_h;s_h_weak;;;;;0;1;1;1;0;29;29;29;;;;;;;;;1198.5803422;None;1199.9993433;1200.2893636;1200.2893636;1200.3136897000004;1200.3136897000004;1200.3547095000004;1200.3547095000004;None;7;0;1200.3547095000004;None;1201.8547262000002;None;['8'];[0.2739543000006961];1201.8547262000002;None;;;;;0.8457645999997112;;;Emoconpilot040;2021_Dec_15_1247;BackwardMask;2020.2.8;119.87173724068587;
;m;008_y_m_n_a.jpg;neutral;8;12;f;012_o_f_n_a.jpg;neutral;congruent;8;mismatch;;140;170;;18;208;block2_Pilot_2;8;n_n;n_n_weak;;;;;0;1;1;1;0;30;30;30;;;;;;;;;1204.8550920999996;None;1206.6084161999997;1206.8976911999998;1206.8976911999998;1207.0472152000002;1207.0472152000002;1207.0880686;1207.0880686;None;8;1;1207.0880686;None;1208.5880122999997;None;['8'];[0.6687629999996716];1208.5880122999997;None;;;;;1.0406450000000405;;;Emoconpilot040;2021_Dec_15_1247;BackwardMask;2020.2.8;119.87173724068587;
;m;008_y_m_s_a.jpg;sad;7;4;m;004_o_m_n_a.jpg;neutral;incongruent;8;match;;130;170;;2;231;block2_Pilot_2;8;s_n;s_n_weak;;;;;0;1;1;1;0;31;31;31;;;;;;;;;1211.5881685000004;None;1213.5324676;1213.8230707000002;1213.8230707000002;1213.8391165000003;1213.8391165000003;1213.8799293000002;1213.8799293000002;None;None;0;1213.8799293000002;None;1215.3798293999998;None;['9'];[0.2928639000001567];1215.3798293999998;None;;;;;;;;Emoconpilot040;2021_Dec_15_1247;BackwardMask;2020.2.8;119.87173724068587;
;m;016_y_m_n_a.jpg;neutral;8;28;f;028_y_f_n_a.jpg;neutral;congruent;8;mismatch;;140;170;;2;218;block2_Pilot_2;16;n_n;n_n_weak;;;;;0;1;1;1;0;32;32;32;;;;;;;;;1218.3798975;None;1220.2192187;1220.514709;1220.514709;1220.5308987999997;1220.5308987999997;1220.5715947999997;1220.5715947999997;None;None;0;1220.5715947999997;None;1222.0716666999997;None;['9'];[0.25697129999934987];1222.0716666999997;None;;;;;;;;Emoconpilot040;2021_Dec_15_1247;BackwardMask;2020.2.8;119.87173724068587;
;m;033_o_m_n_a.jpg;neutral;8;33;m;033_o_m_s_a.jpg;sad;incongruent;7;match;;140;160;;3;141;block2_Pilot_2;33;n_s;n_s_weak;;;;;0;1;1;1;0;33;33;33;;;;;;;;;1225.0726034999998;None;1226.2992333000002;1226.5898703000003;1226.5898703000003;1226.6142188000003;1226.6142188000003;1226.6550373;1226.6550373;None;8;0;1226.6550373;None;1228.1550426000003;None;['8'];[1.2935804999997345];1228.1550426000003;None;;;;;0.7057015999998839;;;Emoconpilot040;2021_Dec_15_1247;BackwardMask;2020.2.8;119.87173724068587;
;m;016_y_m_n_a.jpg;neutral;8;13;m;013_y_m_s_a.jpg;sad;incongruent;7;match;;140;160;;1;238;block2_Pilot_2;16;n_s;n_s_weak;;;;;0;1;1;1;0;34;34;34;;;;;;;;;1231.1563653000003;None;1233.1603783;1233.4566212999998;1233.4566212999998;1233.4644416;1233.4644416;1233.5052976999996;1233.5052976999996;None;None;0;1233.5052976999996;None;1235.0052050000004;None;['9'];[0.22732449999966775];1235.0052050000004;None;;;;;;;;Emoconpilot040;2021_Dec_15_1247;BackwardMask;2020.2.8;119.87173724068587;
;f;030_o_f_h_a.jpg;happy;9;12;f;012_o_f_n_a.jpg;neutral;incongruent;8;match;;120;170;;3;190;block2_Pilot_2;30;h_n;h_n_weak;;;;;0;1;1;1;0;35;35;35;;;;;;;;;1238.0065034999998;None;1239.6082582999998;1239.8984436;1239.8984436;1239.9228899;1239.9228899;1239.9636964000001;1239.9636964000001;None;9;0;1239.9636964000001;None;1241.4637116000004;None;['8'];[0.22481450000032055];1241.4637116000004;None;;;;;0.8208229000001666;;;Emoconpilot040;2021_Dec_15_1247;BackwardMask;2020.2.8;119.87173724068587;
;f;030_o_f_s_a.jpg;sad;7;12;f;012_o_f_n_a.jpg;neutral;incongruent;8;match;;130;170;;3;197;block2_Pilot_2;30;s_n;s_n_strong;;;;;0;1;1;1;0;36;36;36;;;;;;;;;1244.4639406999995;None;1246.1536526999998;1246.4485686999997;1246.4485686999997;1246.4728784999998;1246.4728784999998;1246.5138171999997;1246.5138171999997;None;8;1;1246.5138171999997;None;1248.0139376999996;None;['8'];[0.9306418999995003];1248.0139376999996;None;;;;;1.1347240999994028;;;Emoconpilot040;2021_Dec_15_1247;BackwardMask;2020.2.8;119.87173724068587;
;m;004_o_m_s_a.jpg;sad;7;8;m;008_y_m_h_a.jpg;happy;incongruent;9;match;;130;150;;3;201;block2_Pilot_2;4;s_h;s_h_strong;;;;;0;1;1;1;0;37;37;37;;;;;;;;;1251.0146157;None;1252.6988144999996;1252.9898239000004;1252.9898239000004;1253.0146557999997;1253.0146557999997;1253.0555932999996;1253.0555932999996;None;7;0;1253.0555932999996;None;1254.5555886000002;None;['8'];[0.22100000000045839];1254.5555886000002;None;;;;;0.8410017999995034;;;Emoconpilot040;2021_Dec_15_1247;BackwardMask;2020.2.8;119.87173724068587;
;f;040_y_f_n_a.jpg;neutral;8;16;m;016_y_m_n_a.jpg;neutral;congruent;8;mismatch;;140;170;;3;198;block2_Pilot_2;40;n_n;n_n_strong;;;;;0;1;1;1;0;38;38;38;;;;;;;;;1257.5565034;None;1259.2500965;1259.5403273000002;1259.5403273000002;1259.5648662000003;1259.5648662000003;1259.6057768;1259.6057768;None;8;1;1259.6057768;None;1261.1057720999997;None;['7'];[0.6787609000002703];1261.1057720999997;None;;;;;0.8747012000003451;;;Emoconpilot040;2021_Dec_15_1247;BackwardMask;2020.2.8;119.87173724068587;
;m;027_o_m_n_a.jpg;neutral;8;16;m;016_y_m_s_a.jpg;sad;incongruent;7;match;;140;160;;1;238;block2_Pilot_2;27;n_s;n_s_strong;;;;;0;1;1;1;0;39;39;39;;;;;;;;;1264.1064846;None;1266.1116561999997;1266.4071782;1266.4071782;1266.4149933999997;1266.4149933999997;1266.4558097999998;1266.4558097999998;None;None;0;1266.4558097999998;None;1267.9558020000004;None;['9'];[0.2287716000000728];1267.9558020000004;None;;;;;;;;Emoconpilot040;2021_Dec_15_1247;BackwardMask;2020.2.8;119.87173724068587;
;m;033_o_m_n_a.jpg;neutral;8;40;f;040_y_f_h_a.jpg;happy;incongruent;9;mismatch;;140;150;;2;137;block2_Pilot_2;33;n_h;n_h_strong;;;;;0;1;1;1;0;40;40;40;;;;;;;;;1270.9560634;None;1272.1189303;1272.4158030999997;1272.4158030999997;1272.4318439999997;1272.4318439999997;1272.4726332999999;1272.4726332999999;None;8;0;1272.4726332999999;None;1273.9726332;None;['8'];[0.6439633999998478];1273.9726332;None;;;;;1.2319060999998328;;;Emoconpilot040;2021_Dec_15_1247;BackwardMask;2020.2.8;119.87173724068587;
;m;004_o_m_s_a.jpg;sad;7;8;m;008_y_m_h_a.jpg;happy;incongruent;9;match;;130;150;;18;193;block2_Pilot_2;4;s_h;s_h_strong;;;;;0;1;1;1;0;41;41;41;;;;;;;;;1276.9728146999996;None;1278.5889868000004;1278.8820574000001;1278.8820574000001;1279.0319025;1279.0319025;1279.0727134999997;1279.0727134999997;None;7;0;1279.0727134999997;None;1280.5726320000003;None;['7'];[0.2199133999993137];1280.5726320000003;None;;;;;0.8078560000003563;;;Emoconpilot040;2021_Dec_15_1247;BackwardMask;2020.2.8;119.87173724068587;
;f;012_o_f_h_a.jpg;happy;9;4;m;004_o_m_s_a.jpg;sad;incongruent;7;mismatch;;120;160;;3;198;block2_Pilot_2;12;h_s;h_s_weak;;;;;0;1;1;1;0;42;42;42;;;;;;;;;1283.5737181000004;None;1285.2311268000003;1285.5239573;1285.5239573;1285.5487138999997;1285.5487138999997;1285.5896229;1285.5896229;None;9;0;1285.5896229;None;1287.0897124000003;None;['7'];[0.40691570000035426];1287.0897124000003;None;;;;;0.6429854999996678;;;Emoconpilot040;2021_Dec_15_1247;BackwardMask;2020.2.8;119.87173724068587;
;f;012_o_f_n_a.jpg;neutral;8;8;m;008_y_m_s_a.jpg;sad;incongruent;7;mismatch;;140;160;;1;238;block2_Pilot_2;12;n_s;n_s_strong;;;;;0;1;1;1;0;43;43;43;;;;;;;;;1290.0896725000002;None;1292.1299694999998;1292.4244674000001;1292.4244674000001;1292.4322243999995;1292.4322243999995;1292.4729066;1292.4729066;None;None;0;1292.4729066;None;1293.9729611000002;None;['9'];[0.32352369999989605];1293.9729611000002;None;;;;;;;;Emoconpilot040;2021_Dec_15_1247;BackwardMask;2020.2.8;119.87173724068587;
;f;040_y_f_n_a.jpg;neutral;8;8;m;008_y_m_n_a.jpg;neutral;congruent;8;mismatch;;140;170;;3;165;block2_Pilot_2;40;n_n;n_n_weak;;;;;0;1;1;1;0;44;44;44;;;;;;;;;1296.973771;None;1298.3697536;1298.6662614999996;1298.6662614999996;1298.6906391000002;1298.6906391000002;1298.7314055999996;1298.7314055999996;None;8;1;1298.7314055999996;None;1300.2315974000003;None;['7'];[0.5130199999994147];1300.2315974000003;None;;;;;0.8131655999995928;;;Emoconpilot040;2021_Dec_15_1247;BackwardMask;2020.2.8;119.87173724068587;
;f;028_y_f_h_a.jpg;happy;9;33;m;033_o_m_n_a.jpg;neutral;incongruent;8;mismatch;;120;170;;1;238;block2_Pilot_2;28;h_n;h_n_strong;;;;;0;1;1;1;0;45;45;45;;;;;;;;;1303.2323686;None;1305.2313358000001;1305.5243483000004;1305.5243483000004;1305.5324709999995;1305.5324709999995;1305.5732040000003;1305.5732040000003;None;None;0;1305.5732040000003;None;1307.0739514999996;None;['9'];[0.2706282999997711];1307.0739514999996;None;;;;;;;;Emoconpilot040;2021_Dec_15_1247;BackwardMask;2020.2.8;119.87173724068587;
;m;027_o_m_s_a.jpg;sad;7;19;f;019_m_f_n_a.jpg;neutral;incongruent;8;mismatch;;130;170;;2;236;block2_Pilot_2;27;s_n;s_n_weak;;;;;0;1;1;1;0;46;46;46;;;;;;;;;1310.0735197000004;None;1312.0480797999999;1312.3410585000001;1312.3410585000001;1312.3573825000003;1312.3573825000003;1312.3985245000003;1312.3985245000003;None;None;0;1312.3985245000003;None;1313.8983971999996;None;['9'];[0.32610460000068997];1313.8983971999996;None;;;;;;;;Emoconpilot040;2021_Dec_15_1247;BackwardMask;2020.2.8;119.87173724068587;
;m;027_o_m_h_a.jpg;happy;9;19;f;019_m_f_s_a.jpg;sad;incongruent;7;mismatch;;120;160;;1;238;block2_Pilot_2;27;h_s;h_s_strong;;;;;0;1;1;1;0;47;47;47;;;;;;;;;1316.8995474000003;None;1318.9304738;1319.2250480000002;1319.2250480000002;1319.2326271000002;1319.2326271000002;1319.2735194999996;1319.2735194999996;None;None;0;1319.2735194999996;None;1320.7736495999998;None;['9'];[0.3069007000003694];1320.7736495999998;None;;;;;;;;Emoconpilot040;2021_Dec_15_1247;BackwardMask;2020.2.8;119.87173724068587;
;m;016_y_m_h_a.jpg;happy;9;4;m;004_o_m_s_a.jpg;sad;incongruent;7;match;;120;160;;3;227;block2_Pilot_2;16;h_s;h_s_strong;;;;;0;1;1;1;0;48;48;48;;;;;;;;;1323.7736383000001;None;1325.6740557000003;1325.9662170000001;1325.9662170000001;1325.9911776;1325.9911776;1326.0321619999995;1326.0321619999995;None;9;0;1326.0321619999995;None;1327.5318638999997;None;['8'];[0.284702500000094];1327.5318638999997;None;;;;;0.888349200000448;;;Emoconpilot040;2021_Dec_15_1247;BackwardMask;2020.2.8;119.87173724068587;
;f;040_y_f_h_a.jpg;happy;9;13;m;013_y_m_h_a.jpg;happy;congruent;9;mismatch;;120;150;;3;165;block2_Pilot_2;40;h_h;h_h_strong;;;;;0;1;1;1;0;49;49;49;;;;;;;;;1330.5328577;None;1331.9160339;1332.2081706;1332.2081706;1332.2329305000003;1332.2329305000003;1332.2737741;1332.2737741;None;9;1;1332.2737741;None;1333.7738444999995;None;['7'];[0.2585573000005752];1333.7738444999995;None;;;;;0.6147405000001527;;;Emoconpilot040;2021_Dec_15_1247;BackwardMask;2020.2.8;119.87173724068587;
;m;033_o_m_s_a.jpg;sad;7;28;f;028_y_f_n_a.jpg;neutral;incongruent;8;mismatch;;130;170;;2;227;block2_Pilot_2;33;s_n;s_n_weak;;;;;0;1;1;1;0;50;50;50;;;;;;;;;1336.7740936999999;None;1338.6734981999998;1338.9664845999996;1338.9664845999996;1338.9829811999998;1338.9829811999998;1339.0238006;1339.0238006;None;9;0;1339.0238006;None;1340.5245267999999;None;['7'];[0.6997996999998577];1340.5245267999999;None;;;;;0.8325802999997904;;;Emoconpilot040;2021_Dec_15_1247;BackwardMask;2020.2.8;119.87173724068587;
;f;019_m_f_s_a.jpg;sad;7;27;m;027_o_m_h_a.jpg;happy;incongruent;9;mismatch;;130;150;;1;238;block2_Pilot_2;19;s_h;s_h_weak;;;;;0;1;1;1;0;51;51;51;;;;;;;;;1343.525173;None;1345.5384539999995;1345.8336668000002;1345.8336668000002;1345.8414578000002;1345.8414578000002;1345.8824199;1345.8824199;None;None;0;1345.8824199;None;1347.3824010999997;None;['9'];[0.2900623999994423];1347.3824010999997;None;;;;;;;;Emoconpilot040;2021_Dec_15_1247;BackwardMask;2020.2.8;119.87173724068587;
;m;016_y_m_h_a.jpg;happy;9;19;f;019_m_f_n_a.jpg;neutral;incongruent;8;mismatch;;120;170;;18;238;block2_Pilot_2;16;h_n;h_n_strong;;;;;0;1;1;1;0;52;52;52;;;;;;;;;1350.3824721;None;1352.3735550000001;1352.6667644999998;1352.6667644999998;1352.8161688;1352.8161688;1352.8575043;1352.8575043;None;9;0;1352.8575043;None;1354.3575815000004;None;['7'];[0.34679030000006605];1354.3575815000004;None;;;;;0.591002799999842;;;Emoconpilot040;2021_Dec_15_1247;BackwardMask;2020.2.8;119.87173724068587;
;f;021_o_f_s_a.jpg;sad;7;8;m;008_y_m_n_a.jpg;neutral;incongruent;8;mismatch;;130;170;;1;238;block2_Pilot_2;21;s_n;s_n_strong;;;;;0;1;1;1;0;53;53;53;;;;;;;;;1357.3584291999996;None;1359.3463554;1359.6417878000002;1359.6417878000002;1359.6501289999997;1359.6501289999997;1359.6910255000003;1359.6910255000003;None;9;0;1359.6910255000003;None;1361.1910294;None;['9'];[0.8253703000000314];1361.1910294;None;;;;;0.7415195000003223;;;Emoconpilot040;2021_Dec_15_1247;BackwardMask;2020.2.8;119.87173724068587;
;f;012_o_f_s_a.jpg;sad;7;33;m;033_o_m_s_a.jpg;sad;congruent;7;mismatch;;130;160;;2;148;block2_Pilot_2;12;s_s;s_s_weak;;;;;0;1;1;1;0;54;54;54;;;;;;;;;1364.1915184999998;None;1365.4268151999995;1365.7256744999995;1365.7256744999995;1365.7418568000003;1365.7418568000003;1365.7825434999995;1365.7825434999995;None;9;0;1365.7825434999995;None;1367.2827926;None;['7'];[0.30957020000005286];1367.2827926;None;;;;;0.9458211999999548;;;Emoconpilot040;2021_Dec_15_1247;BackwardMask;2020.2.8;119.87173724068587;
;f;030_o_f_s_a.jpg;sad;7;40;f;040_y_f_s_a.jpg;sad;congruent;7;match;;130;160;;3;136;block2_Pilot_2;30;s_s;s_s_strong;;;;;0;1;1;1;0;55;55;55;;;;;;;;;1370.2835364000002;None;1371.4512402999999;1371.7425504000003;1371.7425504000003;1371.7669802;1371.7669802;1371.8078126999999;1371.8078126999999;None;7;1;1371.8078126999999;None;1373.3078125000002;None;['8'];[1.0285830999991958];1373.3078125000002;None;;;;;1.2965953000002628;;;Emoconpilot040;2021_Dec_15_1247;BackwardMask;2020.2.8;119.87173724068587;
;m;027_o_m_s_a.jpg;sad;7;28;f;028_y_f_h_a.jpg;happy;incongruent;9;mismatch;;130;150;;1;238;block2_Pilot_2;27;s_h;s_h_weak;;;;;0;1;1;1;0;56;56;56;;;;;;;;;1376.308062;None;1378.2998841999997;1378.5922355000002;1378.5922355000002;1378.6006269999998;1378.6006269999998;1378.6413909000003;1378.6413909000003;None;None;0;1378.6413909000003;None;1380.1412868999996;None;['9'];[0.22709069999928033];1380.1412868999996;None;;;;;;;;Emoconpilot040;2021_Dec_15_1247;BackwardMask;2020.2.8;119.87173724068587;
;m;004_o_m_n_a.jpg;neutral;8;8;m;008_y_m_s_a.jpg;sad;incongruent;7;match;;140;160;;3;225;block2_Pilot_2;4;n_s;n_s_strong;;;;;0;1;1;1;0;57;57;57;;;;;;;;;1383.1423475000001;None;1385.0553558000001;1385.3509826999998;1385.3509826999998;1385.3755414999996;1385.3755414999996;1385.4165494999997;1385.4165494999997;None;8;0;1385.4165494999997;None;1386.9165857999997;None;['8'];[0.7558419999995749];1386.9165857999997;None;;;;;1.119929399999819;;;Emoconpilot040;2021_Dec_15_1247;BackwardMask;2020.2.8;119.87173724068587;
;f;012_o_f_s_a.jpg;sad;7;40;f;040_y_f_s_a.jpg;sad;congruent;7;match;;130;160;;1;238;block2_Pilot_2;12;s_s;s_s_strong;;;;;0;1;1;1;0;58;58;58;;;;;;;;;1389.9171471;None;1391.9036650999997;1392.2007602000003;1392.2007602000003;1392.2090197999996;1392.2090197999996;1392.2499503;1392.2499503;None;None;0;1392.2499503;None;1393.7499416;None;['9'];[0.3863971999999194];1393.7499416;None;;;;;;;;Emoconpilot040;2021_Dec_15_1247;BackwardMask;2020.2.8;119.87173724068587;
;f;021_o_f_h_a.jpg;happy;9;4;m;004_o_m_n_a.jpg;neutral;incongruent;8;mismatch;;120;170;;1;238;block2_Pilot_2;21;h_n;h_n_weak;;;;;0;1;1;1;0;59;59;59;;;;;;;;;1396.7503946999996;None;1398.755857;1399.0514675000004;1399.0514675000004;1399.0592287999998;1399.0592287999998;1399.1001296000004;1399.1001296000004;None;None;0;1399.1001296000004;None;1400.6001718999996;None;['9'];[0.3363119999994524];1400.6001718999996;None;;;;;;;;Emoconpilot040;2021_Dec_15_1247;BackwardMask;2020.2.8;119.87173724068587;
;f;040_y_f_h_a.jpg;happy;9;16;m;016_y_m_n_a.jpg;neutral;incongruent;8;mismatch;;120;170;;2;154;block2_Pilot_2;40;h_n;h_n_weak;;;;;0;1;1;1;0;60;60;60;;;;;;;;;1403.6008216999999;None;1404.8923955999999;1405.1843873999997;1405.1843873999997;1405.2010102000004;1405.2010102000004;1405.2418846;1405.2418846;None;None;0;1405.2418846;None;1406.7418588;None;"['8', '8']";"[0.09847369999988587, 0.8265981999993528]";1406.7418588;None;;;;;;;;Emoconpilot040;2021_Dec_15_1247;BackwardMask;2020.2.8;119.87173724068587;
;m;008_y_m_n_a.jpg;neutral;8;4;m;004_o_m_s_a.jpg;sad;incongruent;7;match;;140;160;;18;145;block2_Pilot_2;8;n_s;n_s_strong;;;;;0;1;1;1;0;61;61;61;;;;;;;;;1409.7428977999998;None;1410.9733039000002;1411.2683176;1411.2683176;1411.4178107999996;1411.4178107999996;1411.4586974000003;1411.4586974000003;None;7;1;1411.4586974000003;None;1412.9584932999996;None;"['8', '7']";"[1.1299616000005699, 2.2257549000005383]";1412.9584932999996;None;;;;;1.005723900000703;;;Emoconpilot040;2021_Dec_15_1247;BackwardMask;2020.2.8;119.87173724068587;
;f;021_o_f_s_a.jpg;sad;7;33;m;033_o_m_h_a.jpg;happy;incongruent;9;mismatch;;130;150;;1;238;block2_Pilot_2;21;s_h;s_h_strong;;;;;0;1;1;1;0;62;62;62;;;;;;;;;1415.9602407000002;None;1417.9483896000002;1418.2429304999996;1418.2429304999996;1418.2511943;1418.2511943;1418.2920747999997;1418.2920747999997;None;None;0;1418.2920747999997;None;1419.7920591000002;None;['9'];[0.28811189999942144];1419.7920591000002;None;;;;;;;;Emoconpilot040;2021_Dec_15_1247;BackwardMask;2020.2.8;119.87173724068587;
;m;033_o_m_n_a.jpg;neutral;8;30;f;030_o_f_h_a.jpg;happy;incongruent;9;mismatch;;140;150;;18;171;block2_Pilot_2;33;n_h;n_h_weak;;;;;0;1;1;1;0;63;63;63;;;;;;;;;1422.7931691000003;None;1424.2503416;1424.5436271999997;1424.5436271999997;1424.6928185999996;1424.6928185999996;1424.7338308999997;1424.7338308999997;None;8;0;1424.7338308999997;None;1426.2338379000003;None;['7'];[1.19067350000023];1426.2338379000003;None;;;;;0.9543118000001414;;;Emoconpilot040;2021_Dec_15_1247;BackwardMask;2020.2.8;119.87173724068587;
;m;027_o_m_n_a.jpg;neutral;8;27;m;027_o_m_h_a.jpg;happy;incongruent;9;match;;140;150;;2;164;block2_Pilot_2;27;n_h;n_h_weak;;;;;0;1;1;1;0;64;64;64;;;;;;;;;1429.2339080000002;None;1430.6227595;1430.9186816000001;1430.9186816000001;1430.9349447000004;1430.9349447000004;1430.9756620999997;1430.9756620999997;None;None;0;1430.9756620999997;None;1432.4757983999998;None;['9'];[0.23642089999975724];1432.4757983999998;None;;;;;;;;Emoconpilot040;2021_Dec_15_1247;BackwardMask;2020.2.8;119.87173724068587;
;m;008_y_m_n_a.jpg;neutral;8;40;f;040_y_f_n_a.jpg;neutral;congruent;8;mismatch;;140;170;;1;238;block2_Pilot_2;8;n_n;n_n_strong;;;;;0;1;1;1;0;65;65;65;;;;;;;;;1435.4757163000004;None;1437.4797900000003;1437.7686641;1437.7686641;1437.7765289999998;1437.7765289999998;1437.8173448999996;1437.8173448999996;None;None;0;1437.8173448999996;None;1439.3176457;None;['9'];[0.4425946000001204];1439.3176457;None;;;;;;;;Emoconpilot040;2021_Dec_15_1247;BackwardMask;2020.2.8;119.87173724068587;
;f;040_y_f_h_a.jpg;happy;9;21;f;021_o_f_n_a.jpg;neutral;incongruent;8;match;;120;170;;18;239;block2_Pilot_2;40;h_n;h_n_strong;;;;;0;1;1;1;0;66;66;66;;;;;;;;;1442.3185279999998;None;1444.3171690999998;1444.6102142;1444.6102142;1444.7601658000003;1444.7601658000003;1444.8008903;1444.8008903;None;9;0;1444.8008903;None;1446.3008072000002;None;['7'];[0.3795012000000497];1446.3008072000002;None;;;;;0.6872229999999035;;;Emoconpilot040;2021_Dec_15_1247;BackwardMask;2020.2.8;119.87173724068587;
;f;021_o_f_s_a.jpg;sad;7;28;f;028_y_f_h_a.jpg;happy;incongruent;9;match;;130;150;;1;238;block2_Pilot_2;21;s_h;s_h_weak;;;;;0;1;1;1;0;67;67;67;;;;;;;;;1449.3019342999996;None;1451.2901712000003;1451.5853221999996;1451.5853221999996;1451.5936923;1451.5936923;1451.6343461999995;1451.6343461999995;None;None;0;1451.6343461999995;None;1453.1343669999997;None;['9'];[0.3940215000002354];1453.1343669999997;None;;;;;;;;Emoconpilot040;2021_Dec_15_1247;BackwardMask;2020.2.8;119.87173724068587;
;f;021_o_f_n_a.jpg;neutral;8;30;f;030_o_f_n_a.jpg;neutral;congruent;8;match;;140;170;;2;209;block2_Pilot_2;21;n_n;n_n_strong;;;;;0;1;1;1;0;68;68;68;;;;;;;;;1456.1356016;None;1457.9255949999997;1458.2192674999997;1458.2192674999997;1458.2350815;1458.2350815;1458.2761861;1458.2761861;None;None;0;1458.2761861;None;1459.776844;None;['9'];[0.9832311000000118];1459.776844;None;;;;;;;;Emoconpilot040;2021_Dec_15_1247;BackwardMask;2020.2.8;119.87173724068587;
;f;040_y_f_s_a.jpg;sad;7;13;m;013_y_m_s_a.jpg;sad;congruent;7;mismatch;;130;160;;3;147;block2_Pilot_2;40;s_s;s_s_strong;;;;;0;1;1;1;0;69;69;69;;;;;;;;;1462.7767814;None;1464.0107335000002;1464.3020944;1464.3020944;1464.3272519000002;1464.3272519000002;1464.3679142;1464.3679142;None;8;0;1464.3679142;None;1465.8680856;None;['8'];[0.4122024999996938];1465.8680856;None;;;;;0.8962676000001011;;;Emoconpilot040;2021_Dec_15_1247;BackwardMask;2020.2.8;119.87173724068587;
;f;040_y_f_s_a.jpg;sad;7;21;f;021_o_f_h_a.jpg;happy;incongruent;9;match;;130;150;;3;172;block2_Pilot_2;40;s_h;s_h_strong;;;;;0;1;1;1;0;70;70;70;;;;;;;;;1468.8688986999996;None;1470.3090431;1470.6023420000001;1470.6023420000001;1470.6273143999997;1470.6273143999997;1470.6679469;1470.6679469;None;7;0;1470.6679469;None;1472.1682058999995;None;['8'];[0.44807119999950373];1472.1682058999995;None;;;;;1.4363647000000128;;;Emoconpilot040;2021_Dec_15_1247;BackwardMask;2020.2.8;119.87173724068587;
;m;013_y_m_s_a.jpg;sad;7;16;m;016_y_m_n_a.jpg;neutral;incongruent;8;match;;130;170;;1;238;block2_Pilot_2;13;s_n;s_n_strong;;;;;0;1;1;1;0;71;71;71;;;;;;;;;1475.168321;None;1477.1590288999996;1477.4524443999999;1477.4524443999999;1477.4606549;1477.4606549;1477.5015328999998;1477.5015328999998;None;None;0;1477.5015328999998;None;1479.0014277999999;None;['9'];[0.3347590000003038];1479.0014277999999;None;;;;;;;;Emoconpilot040;2021_Dec_15_1247;BackwardMask;2020.2.8;119.87173724068587;
;m;008_y_m_s_a.jpg;sad;7;12;f;012_o_f_h_a.jpg;happy;incongruent;9;mismatch;;130;150;;18;238;block2_Pilot_2;8;s_h;s_h_weak;;;;;0;1;1;1;0;72;72;72;;;;;;;;;1482.0017271999996;None;1484.0095666999996;1484.3031070999996;1484.3031070999996;1484.4526913;1484.4526913;1484.4934519999997;1484.4934519999997;None;7;0;1484.4934519999997;None;1485.9942154;None;['7'];[0.718093499999668];1485.9942154;None;;;;;0.7625794999994469;;;Emoconpilot040;2021_Dec_15_1247;BackwardMask;2020.2.8;119.87173724068587;
;m;013_y_m_s_a.jpg;sad;7;21;f;021_o_f_n_a.jpg;neutral;incongruent;8;mismatch;;130;170;;1;238;block2_Pilot_2;13;s_n;s_n_weak;;;;;0;1;1;1;0;73;73;73;;;;;;;;;1488.9940354;None;1490.9859295999995;1491.2778126000003;1491.2778126000003;1491.2859693999999;1491.2859693999999;1491.3270021999997;1491.3270021999997;None;None;0;1491.3270021999997;None;1492.8270266999998;None;['9'];[0.4211085999995703];1492.8270266999998;None;;;;;;;;Emoconpilot040;2021_Dec_15_1247;BackwardMask;2020.2.8;119.87173724068587;
;f;019_m_f_s_a.jpg;sad;7;12;f;012_o_f_n_a.jpg;neutral;incongruent;8;match;;130;170;;2;208;block2_Pilot_2;19;s_n;s_n_weak;;;;;0;1;1;1;0;74;74;74;;;;;;;;;1495.8271496999996;None;1497.5991037000003;1497.8949952000003;1497.8949952000003;1497.9110468;1497.9110468;1497.9519171000002;1497.9519171000002;None;None;0;1497.9519171000002;None;1499.4518363999996;None;['9'];[0.5083684000001085];1499.4518363999996;None;;;;;;;;Emoconpilot040;2021_Dec_15_1247;BackwardMask;2020.2.8;119.87173724068587;
;m;016_y_m_s_a.jpg;sad;7;19;f;019_m_f_n_a.jpg;neutral;incongruent;8;mismatch;;130;170;;18;238;block2_Pilot_2;16;s_n;s_n_strong;;;;;0;1;1;1;0;75;75;75;;;;;;;;;1502.4519840000003;None;1504.4444708;1504.7362640000001;1504.7362640000001;1504.8863061000002;1504.8863061000002;1504.9270881000002;1504.9270881000002;None;7;0;1504.9270881000002;None;1506.4272098000001;None;['7'];[0.7330320999999458];1506.4272098000001;None;;;;;1.1210127999993347;;;Emoconpilot040;2021_Dec_15_1247;BackwardMask;2020.2.8;119.87173724068587;
