Person;primeGender;prime;primeEmotion;corrAnsPrime;targetPerson;targetGender;target;targetEmotion;Cond;corrAnsTar;gender;condition;ID_primer;ID_target;PrimerTime;PrimerTime120;JitterTime;conditionsFile;primePerson;emotion_condition;Condition;example.thisRepN;example.thisTrialN;example.thisN;example.thisIndex;readinBlocks.thisRepN;readinBlocks.thisTrialN;readinBlocks.thisN;readinBlocks.thisIndex;trials.thisRepN;trials.thisTrialN;trials.thisN;trials.thisIndex;text_intro.started;text_intro.stopped;text_probe.started;text_probe.stopped;key_resp_2.keys;key_resp_2.rt;key_resp_2.started;key_resp_2.stopped;polygon_ISI.started;polygon_ISI.stopped;polygon.started;polygon.stopped;primerImage.started;primerImage.stopped;maskImage.started;maskImage.stopped;response.started;response.stopped;key_resp.keys;key_resp.corr;key_resp.started;key_resp.stopped;text.started;text.stopped;key_resp_Rating.keys;key_resp_Rating.started;key_resp_Rating.stopped;key_resp.rt;key_resp_Rating.rt;text_start.started;text_start.stopped;text_pause.started;text_pause.stopped;text_ende.started;text_ende.stopped;participant;date;expName;psychopyVersion;frameRate;
;;;;;;;;;;;;;;;;;;;;;;;;;;;;;;;;;;20.23691640002653;25.20303249999415;25.20303249999415;None;8;15.843090999987908;20.23691640002653;None;;;;;;;;;;;;;;;;;;;;;;;;;;;;Emoconpilot029;2021_Nov_02_1439;BackwardMask;2020.2.8;119.80567511000827;
2;f;1113_y_f_s_a.jpg;sad;7;1;m;1111_m_m_h_a.jpg;happy;incongruent;9;mix;s+h;130;150;1;2;148;;;;;0;0;0;0;;;;;;;;;;;;;;;;;36.19581230008043;None;37.451289499993436;37.768443100037985;37.768443100037985;37.78679420007393;37.78679420007393;37.81937160005327;37.81937160005327;None;None;0;37.81937160005327;None;39.320910800015554;None;None;39.320910800015554;None;;;;;;;;;Emoconpilot029;2021_Nov_02_1439;BackwardMask;2020.2.8;119.80567511000827;
2;f;1111_m_m_h_a.jpg;happy;9;3;f;1113_y_f_s_a.jpg;sad;incongruent;7;mix;h+s;120;160;9;18;195;;;;;0;1;1;1;;;;;;;;;;;;;;;;;42.31978070002515;None;43.97384990006685;44.26267259998713;44.26267259998713;44.412025100085884;44.412025100085884;44.45278910000343;44.45278910000343;None;9;0;44.45278910000343;None;45.9529778000433;None;['9'];45.9529778000433;None;0.9551345000509173;[1.087035599979572];;;;;;;Emoconpilot029;2021_Nov_02_1439;BackwardMask;2020.2.8;119.80567511000827;
2;f;1112_m_f_n_a.jpg;neutral;8;2;f;1112_m_f_n_a.jpg;neutral;congruent;8;match;n+n;140;170;9;18;134;;;;;0;2;2;2;;;;;;;;;;;;;;;;;48.953856999985874;None;50.09659700002521;50.38788539997768;50.38788539997768;50.53726940008346;50.53726940008346;50.57810990000144;50.57810990000144;None;8;1;50.57810990000144;None;52.078516800072975;None;['7'];52.078516800072975;None;0.8779549000319093;[0.8333116999128833];;;;;;;Emoconpilot029;2021_Nov_02_1439;BackwardMask;2020.2.8;119.80567511000827;
;m;033_o_m_h_a.jpg;happy;9;30;f;030_o_f_n_a.jpg;neutral;incongruent;8;mismatch;;120;170;;18;238;block1_Pilot_2;33;h_n;h_n_strong;;;;;0;0;0;0;0;0;0;0;;;;;;;;;56.12879810004961;None;58.12655819999054;58.420987399993464;58.420987399993464;58.57070000004023;58.57070000004023;58.61148650001269;58.61148650001269;None;9;0;58.61148650001269;None;60.11278269998729;None;['7'];60.11278269998729;None;0.8924934000242501;[1.0871172999031842];55.07844800001476;None;None;None;;;Emoconpilot029;2021_Nov_02_1439;BackwardMask;2020.2.8;119.80567511000827;
;m;004_o_m_h_a.jpg;happy;9;12;f;012_o_f_h_a.jpg;happy;congruent;9;mismatch;;120;150;;2;218;block1_Pilot_2;4;h_h;h_h_weak;;;;;0;0;0;0;0;1;1;1;;;;;;;;;63.11224280006718;None;64.96246880001854;65.25491820008028;65.25491820008028;65.2708953000838;65.2708953000838;65.31184009998105;65.31184009998105;None;None;0;65.31184009998105;None;66.81163730006665;None;"['8', '8']";66.81163730006665;None;;"[0.3243361000204459, 0.8281883000163361]";;;;;;;Emoconpilot029;2021_Nov_02_1439;BackwardMask;2020.2.8;119.80567511000827;
;f;012_o_f_h_a.jpg;happy;9;33;m;033_o_m_h_a.jpg;happy;congruent;9;mismatch;;120;150;;2;140;block1_Pilot_2;12;h_h;h_h_weak;;;;;0;0;0;0;0;2;2;2;;;;;;;;;69.81240559997968;None;70.99604400002863;71.28776279999875;71.28776279999875;71.30425500008278;71.30425500008278;71.344962400035;71.344962400035;None;None;0;71.344962400035;None;72.84520500001963;None;"['7', '9']";72.84520500001963;None;;"[0.04281290003564209, 1.0747827000450343]";;;;;;;Emoconpilot029;2021_Nov_02_1439;BackwardMask;2020.2.8;119.80567511000827;
;f;040_y_f_n_a.jpg;neutral;8;40;f;040_y_f_h_a.jpg;happy;incongruent;9;match;;140;150;;2;192;block1_Pilot_2;40;n_h;n_h_weak;;;;;0;0;0;0;0;3;3;3;;;;;;;;;75.84649320004974;None;77.47322050004732;77.76328319997992;77.76328319997992;77.77959920000285;77.77959920000285;77.82032729999628;77.82032729999628;None;8;0;77.82032729999628;None;79.3203164000297;None;"['9', '9']";79.3203164000297;None;1.2837166000390425;"[0.8875155999558046, 0.9437721000285819]";;;;;;;Emoconpilot029;2021_Nov_02_1439;BackwardMask;2020.2.8;119.80567511000827;
;m;013_y_m_s_a.jpg;sad;7;16;m;016_y_m_n_a.jpg;neutral;incongruent;8;match;;130;170;;3;155;block1_Pilot_2;13;s_n;s_n_weak;;;;;0;0;0;0;0;4;4;4;;;;;;;;;82.32115660002455;None;83.62814789998811;83.92135080008302;83.92135080008302;83.94631670007948;83.94631670007948;83.98698410007637;83.98698410007637;None;8;1;83.98698410007637;None;85.48713690007571;None;['8'];85.48713690007571;None;0.9091283999150619;[0.4809178999857977];;;;;;;Emoconpilot029;2021_Nov_02_1439;BackwardMask;2020.2.8;119.80567511000827;
;f;012_o_f_h_a.jpg;happy;9;21;f;021_o_f_h_a.jpg;happy;congruent;9;match;;120;150;;2;216;block1_Pilot_2;12;h_h;h_h_strong;;;;;0;0;0;0;0;5;5;5;;;;;;;;;88.48745370004326;None;90.29550510004628;90.58826180000324;90.58826180000324;90.60470849997364;90.60470849997364;90.64555680006742;90.64555680006742;None;None;0;90.64555680006742;None;92.14563360007014;None;"['7', '8']";92.14563360007014;None;;"[0.08644089999143034, 0.8623659999575466]";;;;;;;Emoconpilot029;2021_Nov_02_1439;BackwardMask;2020.2.8;119.80567511000827;
;f;040_y_f_s_a.jpg;sad;7;40;f;040_y_f_h_a.jpg;happy;incongruent;9;match;;130;150;;1;238;block1_Pilot_2;40;s_h;s_h_weak;;;;;0;0;0;0;0;6;6;6;;;;;;;;;95.14594870002475;None;97.14426420000382;97.43847529997583;97.43847529997583;97.44628390006255;97.44628390006255;97.48739120003302;97.48739120003302;None;None;0;97.48739120003302;None;98.98748650006019;None;"['9', '9']";98.98748650006019;None;;"[0.2605815000133589, 0.8765334999188781]";;;;;;;Emoconpilot029;2021_Nov_02_1439;BackwardMask;2020.2.8;119.80567511000827;
;m;033_o_m_n_a.jpg;neutral;8;27;m;027_o_m_n_a.jpg;neutral;congruent;8;match;;140;170;;18;238;block1_Pilot_2;33;n_n;n_n_weak;;;;;0;0;0;0;0;7;7;7;;;;;;;;;101.9883774999762;None;104.00972400000319;104.30559000000358;104.30559000000358;104.45502970006783;104.45502970006783;104.49605940002948;104.49605940002948;None;8;1;104.49605940002948;None;105.9966512999963;None;['7'];105.9966512999963;None;0.7758798999711871;[0.5393939000787213];;;;;;;Emoconpilot029;2021_Nov_02_1439;BackwardMask;2020.2.8;119.80567511000827;
;f;040_y_f_h_a.jpg;happy;9;19;f;019_m_f_n_a.jpg;neutral;incongruent;8;match;;120;170;;1;238;block1_Pilot_2;40;h_n;h_n_strong;;;;;0;0;0;0;0;8;8;8;;;;;;;;;108.99601760006044;None;110.9959864000557;111.28863630001433;111.28863630001433;111.29705980001017;111.29705980001017;111.33757039997727;111.33757039997727;None;8;1;111.33757039997727;None;112.8377525000833;None;['9'];112.8377525000833;None;0.9184860000386834;[0.48232979991007596];;;;;;;Emoconpilot029;2021_Nov_02_1439;BackwardMask;2020.2.8;119.80567511000827;
;m;013_y_m_h_a.jpg;happy;9;12;f;012_o_f_s_a.jpg;sad;incongruent;7;mismatch;;120;160;;3;198;block1_Pilot_2;13;h_s;h_s_weak;;;;;0;0;0;0;0;9;9;9;;;;;;;;;115.83855730004143;None;117.53754430008121;117.83087409997825;117.83087409997825;117.85528270003852;117.85528270003852;117.89599560003262;117.89599560003262;None;9;0;117.89599560003262;None;119.39594550000038;None;['7'];119.39594550000038;None;1.0560209000250325;[0.5801167000317946];;;;;;;Emoconpilot029;2021_Nov_02_1439;BackwardMask;2020.2.8;119.80567511000827;
;m;008_y_m_h_a.jpg;happy;9;4;m;004_o_m_n_a.jpg;neutral;incongruent;8;match;;120;170;;18;150;block1_Pilot_2;8;h_n;h_n_strong;;;;;0;0;0;0;0;10;10;10;;;;;;;;;122.39702460006811;None;123.66354890004732;123.95557560003363;123.95557560003363;124.10537340003066;124.10537340003066;124.14619570004288;124.14619570004288;None;9;0;124.14619570004288;None;125.64634199999273;None;['7'];125.64634199999273;None;0.8137847000034526;[0.6257480999920517];;;;;;;Emoconpilot029;2021_Nov_02_1439;BackwardMask;2020.2.8;119.80567511000827;
;f;019_m_f_h_a.jpg;happy;9;27;m;027_o_m_s_a.jpg;sad;incongruent;7;mismatch;;120;160;;1;238;block1_Pilot_2;19;h_s;h_s_weak;;;;;0;0;0;0;0;11;11;11;;;;;;;;;128.64644819998648;None;130.64273189997766;130.93909960007295;130.93909960007295;130.94731509999838;130.94731509999838;130.9879897000501;130.9879897000501;None;8;0;130.9879897000501;None;132.4883615000872;None;['9'];132.4883615000872;None;0.9160517000127584;[0.4236869999440387];;;;;;;Emoconpilot029;2021_Nov_02_1439;BackwardMask;2020.2.8;119.80567511000827;
;m;016_y_m_s_a.jpg;sad;7;4;m;004_o_m_s_a.jpg;sad;congruent;7;match;;130;160;;18;142;block1_Pilot_2;16;s_s;s_s_strong;;;;;0;0;0;0;0;12;12;12;;;;;;;;;135.48896760004573;None;136.68727350002155;136.98065669997595;136.98065669997595;137.1305877000559;137.1305877000559;137.17158790002577;137.17158790002577;None;7;1;137.17158790002577;None;138.6715648000827;None;['7'];138.6715648000827;None;0.8444131000433117;[0.7202963999006897];;;;;;;Emoconpilot029;2021_Nov_02_1439;BackwardMask;2020.2.8;119.80567511000827;
;f;021_o_f_n_a.jpg;neutral;8;21;f;021_o_f_h_a.jpg;happy;incongruent;9;match;;140;150;;3;171;block1_Pilot_2;21;n_h;n_h_weak;;;;;0;0;0;0;0;13;13;13;;;;;;;;;141.6722389999777;None;143.12465300003532;143.41468000004534;143.41468000004534;143.43914690008387;143.43914690008387;143.4799529000884;143.4799529000884;None;8;0;143.4799529000884;None;144.98017750005238;None;['7'];144.98017750005238;None;0.8401164000388235;[0.5238610999658704];;;;;;;Emoconpilot029;2021_Nov_02_1439;BackwardMask;2020.2.8;119.80567511000827;
;f;012_o_f_h_a.jpg;happy;9;13;m;013_y_m_h_a.jpg;happy;congruent;9;mismatch;;120;150;;3;213;block1_Pilot_2;12;h_h;h_h_weak;;;;;0;0;0;0;0;14;14;14;;;;;;;;;147.98015090008266;None;149.7632076999871;150.05613550008275;150.05613550008275;150.08089430001564;150.08089430001564;150.12170530005824;150.12170530005824;None;9;1;150.12170530005824;None;151.62179300002754;None;['7'];151.62179300002754;None;0.7904155999422073;[0.5862030000425875];;;;;;;Emoconpilot029;2021_Nov_02_1439;BackwardMask;2020.2.8;119.80567511000827;
;f;021_o_f_s_a.jpg;sad;7;27;m;027_o_m_n_a.jpg;neutral;incongruent;8;mismatch;;130;170;;3;174;block1_Pilot_2;21;s_n;s_n_weak;;;;;0;0;0;0;0;15;15;15;;;;;;;;;154.62290160008706;None;156.08239720005076;156.3728461000137;156.3728461000137;156.3978197000688;156.3978197000688;156.43864559999201;156.43864559999201;None;9;0;156.43864559999201;None;157.93868880008813;None;['8'];157.93868880008813;None;0.8012919999891892;[0.9573137001134455];;;;;;;Emoconpilot029;2021_Nov_02_1439;BackwardMask;2020.2.8;119.80567511000827;
;f;019_m_f_n_a.jpg;neutral;8;19;f;019_m_f_h_a.jpg;happy;incongruent;9;match;;140;150;;3;238;block1_Pilot_2;19;n_h;n_h_weak;;;;;0;0;0;0;0;16;16;16;;;;;;;;;160.93875129998196;None;162.9667889000848;163.2566516000079;163.2566516000079;163.2811434000032;163.2811434000032;163.32202299998607;163.32202299998607;None;8;0;163.32202299998607;None;164.8221055000322;None;['8'];164.8221055000322;None;1.1338617000728846;[0.5139380999607965];;;;;;;Emoconpilot029;2021_Nov_02_1439;BackwardMask;2020.2.8;119.80567511000827;
;f;028_y_f_n_a.jpg;neutral;8;30;f;030_o_f_s_a.jpg;sad;incongruent;7;match;;140;160;;18;219;block1_Pilot_2;28;n_s;n_s_weak;;;;;0;0;0;0;0;17;17;17;;;;;;;;;167.82229919999372;None;169.67373610008508;169.96512970002368;169.96512970002368;170.11470620008186;170.11470620008186;170.15559480001684;170.15559480001684;None;8;0;170.15559480001684;None;171.6557085000677;None;['7'];171.6557085000677;None;0.5882635000161827;[0.44029900000896305];;;;;;;Emoconpilot029;2021_Nov_02_1439;BackwardMask;2020.2.8;119.80567511000827;
;m;008_y_m_h_a.jpg;happy;9;8;m;008_y_m_s_a.jpg;sad;incongruent;7;match;;120;160;;3;176;block1_Pilot_2;8;h_s;h_s_weak;;;;;0;0;0;0;0;18;18;18;;;;;;;;;174.6563362000743;None;176.13166670000646;176.42327849997673;176.42327849997673;176.44824900000822;176.44824900000822;176.4889325000113;176.4889325000113;None;9;0;176.4889325000113;None;177.98905680002645;None;['7'];177.98905680002645;None;0.7910950999939814;[0.8349452000111341];;;;;;;Emoconpilot029;2021_Nov_02_1439;BackwardMask;2020.2.8;119.80567511000827;
;f;019_m_f_h_a.jpg;happy;9;33;m;033_o_m_n_a.jpg;neutral;incongruent;8;mismatch;;120;170;;18;136;block1_Pilot_2;19;h_n;h_n_weak;;;;;0;0;0;0;0;19;19;19;;;;;;;;;180.98990540008526;None;182.13002510007937;182.42336210003123;182.42336210003123;182.57335209997837;182.57335209997837;182.61417479999363;182.61417479999363;None;9;0;182.61417479999363;None;184.11410390003584;None;['7'];184.11410390003584;None;0.5778518000151962;[0.5979709000093862];;;;;;;Emoconpilot029;2021_Nov_02_1439;BackwardMask;2020.2.8;119.80567511000827;
;m;013_y_m_n_a.jpg;neutral;8;12;f;012_o_f_s_a.jpg;sad;incongruent;7;mismatch;;140;160;;2;132;block1_Pilot_2;13;n_s;n_s_strong;;;;;0;0;0;0;0;20;20;20;;;;;;;;;187.1145586000057;None;188.24668189999647;188.54060519998893;188.54060519998893;188.55665580008645;188.55665580008645;188.59774690004997;188.59774690004997;None;9;0;188.59774690004997;None;190.09783510002308;None;['8'];190.09783510002308;None;0.7142217999789864;[0.462145600002259];;;;;;;Emoconpilot029;2021_Nov_02_1439;BackwardMask;2020.2.8;119.80567511000827;
;f;040_y_f_s_a.jpg;sad;7;8;m;008_y_m_h_a.jpg;happy;incongruent;9;mismatch;;130;150;;2;175;block1_Pilot_2;40;s_h;s_h_weak;;;;;0;0;0;0;0;21;21;21;;;;;;;;;193.09842689998914;None;194.56443330005277;194.85703289997764;194.85703289997764;194.87331990001258;194.87331990001258;194.9144374000607;194.9144374000607;None;9;1;194.9144374000607;None;196.41429550002795;None;['9'];196.41429550002795;None;1.0294955000281334;[0.5377517000306398];;;;;;;Emoconpilot029;2021_Nov_02_1439;BackwardMask;2020.2.8;119.80567511000827;
;m;004_o_m_h_a.jpg;happy;9;40;f;040_y_f_s_a.jpg;sad;incongruent;7;mismatch;;120;160;;2;193;block1_Pilot_2;4;h_s;h_s_weak;;;;;0;0;0;0;0;22;22;22;;;;;;;;;199.41530110000167;None;201.04354970005807;201.3325772000244;201.3325772000244;201.3485155000817;201.3485155000817;201.38945900008548;201.38945900008548;None;8;0;201.38945900008548;None;202.8895554000046;None;['9'];202.8895554000046;None;1.290597099927254;[1.030492400052026];;;;;;;Emoconpilot029;2021_Nov_02_1439;BackwardMask;2020.2.8;119.80567511000827;
;f;028_y_f_s_a.jpg;sad;7;13;m;013_y_m_n_a.jpg;neutral;incongruent;8;mismatch;;130;170;;2;126;block1_Pilot_2;28;s_n;s_n_weak;;;;;0;0;0;0;0;23;23;23;;;;;;;;;205.89115739997942;None;206.9565976000158;207.24908530001994;207.24908530001994;207.265635900083;207.265635900083;207.30635750002693;207.30635750002693;None;9;0;207.30635750002693;None;208.80752190004569;None;['8'];208.80752190004569;None;0.693500200053677;[0.7524710999568924];;;;;;;Emoconpilot029;2021_Nov_02_1439;BackwardMask;2020.2.8;119.80567511000827;
;m;004_o_m_h_a.jpg;happy;9;40;f;040_y_f_n_a.jpg;neutral;incongruent;8;mismatch;;120;170;;3;146;block1_Pilot_2;4;h_n;h_n_strong;;;;;0;0;0;0;0;24;24;24;;;;;;;;;211.8076479000738;None;213.0609127000207;213.34958310006186;213.34958310006186;213.37381230003666;213.37381230003666;213.414631200023;213.414631200023;None;9;0;213.414631200023;None;214.91553410002962;None;['7'];214.91553410002962;None;0.6413766000187024;[0.46853099996224046];;;;;;;Emoconpilot029;2021_Nov_02_1439;BackwardMask;2020.2.8;119.80567511000827;
;m;008_y_m_s_a.jpg;sad;7;30;f;030_o_f_n_a.jpg;neutral;incongruent;8;mismatch;;130;170;;3;132;block1_Pilot_2;8;s_n;s_n_strong;;;;;0;0;0;0;0;25;25;25;;;;;;;;;217.9157556000864;None;219.040185400052;219.33285210002214;219.33285210002214;219.35743700002786;219.35743700002786;219.39818740007468;219.39818740007468;None;7;0;219.39818740007468;None;220.89860479999334;None;['8'];220.89860479999334;None;0.9777266999008134;[1.149464700021781];;;;;;;Emoconpilot029;2021_Nov_02_1439;BackwardMask;2020.2.8;119.80567511000827;
;f;040_y_f_n_a.jpg;neutral;8;40;f;040_y_f_s_a.jpg;sad;incongruent;7;match;;140;160;;2;123;block1_Pilot_2;40;n_s;n_s_weak;;;;;0;0;0;0;0;26;26;26;;;;;;;;;223.89939280005638;None;224.94191110006068;225.2329145000549;225.2329145000549;225.24913910008036;225.24913910008036;225.2899765999755;225.2899765999755;None;9;0;225.2899765999755;None;226.79093120002653;None;"['8', '8', '8']";226.79093120002653;None;0.9660745000001043;"[0.6090934999519959, 0.6891781999729574, 2.5210674999980256]";;;;;;;Emoconpilot029;2021_Nov_02_1439;BackwardMask;2020.2.8;119.80567511000827;
;f;028_y_f_s_a.jpg;sad;7;27;m;027_o_m_s_a.jpg;sad;congruent;7;mismatch;;130;160;;3;159;block1_Pilot_2;28;s_s;s_s_weak;;;;;0;0;0;0;0;27;27;27;;;;;;;;;229.79018570005428;None;231.12646270007826;231.41626430000179;231.41626430000179;231.44096919998992;231.44096919998992;231.48183549998794;231.48183549998794;None;None;0;231.48183549998794;None;232.98191390000284;None;"['8', '8']";232.98191390000284;None;;"[0.0019404999911785126, 0.7780010000569746]";;;;;;;Emoconpilot029;2021_Nov_02_1439;BackwardMask;2020.2.8;119.80567511000827;
;f;012_o_f_s_a.jpg;sad;7;27;m;027_o_m_s_a.jpg;sad;congruent;7;mismatch;;130;160;;18;166;block1_Pilot_2;12;s_s;s_s_weak;;;;;0;0;0;0;0;28;28;28;;;;;;;;;235.98194760002661;None;237.37895779998507;237.6744028000394;237.6744028000394;237.82450320001226;237.82450320001226;237.86519460007548;237.86519460007548;None;7;1;237.86519460007548;None;239.36530379997566;None;['7'];239.36530379997566;None;0.5987741999560967;[0.322823999915272];;;;;;;Emoconpilot029;2021_Nov_02_1439;BackwardMask;2020.2.8;119.80567511000827;
;f;028_y_f_n_a.jpg;neutral;8;28;f;028_y_f_h_a.jpg;happy;incongruent;9;match;;140;150;;2;186;block1_Pilot_2;28;n_h;n_h_weak;;;;;0;0;0;0;0;29;29;29;;;;;;;;;242.36631439998746;None;243.93808260001242;244.2334759000223;244.2334759000223;244.2497544999933;244.2497544999933;244.29028930002823;244.29028930002823;None;8;0;244.29028930002823;None;245.79047910007648;None;['7'];245.79047910007648;None;0.773792100022547;[0.585632500005886];;;;;;;Emoconpilot029;2021_Nov_02_1439;BackwardMask;2020.2.8;119.80567511000827;
;m;027_o_m_n_a.jpg;neutral;8;16;m;016_y_m_n_a.jpg;neutral;congruent;8;match;;140;170;;2;188;block1_Pilot_2;27;n_n;n_n_weak;;;;;0;0;0;0;0;30;30;30;;;;;;;;;248.7916834000498;None;250.38398500008043;250.67515869997442;250.67515869997442;250.69131760008167;250.69131760008167;250.73220600001514;250.73220600001514;None;8;1;250.73220600001514;None;252.2322187999962;None;['8'];252.2322187999962;None;1.2916914999950677;[0.7917553000152111];;;;;;;Emoconpilot029;2021_Nov_02_1439;BackwardMask;2020.2.8;119.80567511000827;
;f;012_o_f_s_a.jpg;sad;7;13;m;013_y_m_n_a.jpg;neutral;incongruent;8;mismatch;;130;170;;3;162;block1_Pilot_2;12;s_n;s_n_strong;;;;;0;0;0;0;0;31;31;31;;;;;;;;;255.2323660000693;None;256.58638780005276;256.88301190000493;256.88301190000493;256.9080738000339;256.9080738000339;256.9490343000507;256.9490343000507;None;7;0;256.9490343000507;None;258.4490309000248;None;['9'];258.4490309000248;None;1.2910170999821275;[0.9831720000365749];;;;;;;Emoconpilot029;2021_Nov_02_1439;BackwardMask;2020.2.8;119.80567511000827;
;f;012_o_f_s_a.jpg;sad;7;16;m;016_y_m_h_a.jpg;happy;incongruent;9;mismatch;;130;150;;1;238;block1_Pilot_2;12;s_h;s_h_strong;;;;;0;0;0;0;0;32;32;32;;;;;;;;;261.4495770999929;None;263.43561530008446;263.73338240000885;263.73338240000885;263.7416282000486;263.7416282000486;263.7824510000646;263.7824510000646;None;8;0;263.7824510000646;None;265.2824652000563;None;['9'];265.2824652000563;None;1.3694859999231994;[0.5016849000239745];;;;;;;Emoconpilot029;2021_Nov_02_1439;BackwardMask;2020.2.8;119.80567511000827;
;f;028_y_f_n_a.jpg;neutral;8;21;f;021_o_f_n_a.jpg;neutral;congruent;8;match;;140;170;;3;220;block1_Pilot_2;28;n_n;n_n_weak;;;;;0;0;0;0;0;33;33;33;;;;;;;;;268.28241800004616;None;270.13771699997596;270.4339291000506;270.4339291000506;270.45842360006645;270.45842360006645;270.4991907000076;270.4991907000076;None;9;0;270.4991907000076;None;271.9992667000042;None;['9'];271.9992667000042;None;1.212662999983877;[0.5846788000781089];;;;;;;Emoconpilot029;2021_Nov_02_1439;BackwardMask;2020.2.8;119.80567511000827;
;f;040_y_f_h_a.jpg;happy;9;33;m;033_o_m_s_a.jpg;sad;incongruent;7;mismatch;;120;160;;2;194;block1_Pilot_2;40;h_s;h_s_weak;;;;;0;0;0;0;0;34;34;34;;;;;;;;;275.0002215000568;None;276.6245188000612;276.9171103000408;276.9171103000408;276.9335413000081;276.9335413000081;276.97435979999136;276.97435979999136;None;7;1;276.97435979999136;None;278.4746791999787;None;['9'];278.4746791999787;None;1.2017441000789404;[0.5174219999462366];;;;;;;Emoconpilot029;2021_Nov_02_1439;BackwardMask;2020.2.8;119.80567511000827;
;f;028_y_f_h_a.jpg;happy;9;8;m;008_y_m_n_a.jpg;neutral;incongruent;8;mismatch;;120;170;;3;162;block1_Pilot_2;28;h_n;h_n_weak;;;;;0;0;0;0;0;35;35;35;;;;;;;;;281.47535329998937;None;282.8439687000355;283.13386880001053;283.13386880001053;283.1586909000762;283.1586909000762;283.1994110000087;283.1994110000087;None;9;0;283.1994110000087;None;284.6996154000517;None;['7'];284.6996154000517;None;0.7287456999765709;[0.38036149996332824];;;;;;;Emoconpilot029;2021_Nov_02_1439;BackwardMask;2020.2.8;119.80567511000827;
;m;013_y_m_n_a.jpg;neutral;8;27;m;027_o_m_n_a.jpg;neutral;congruent;8;match;;140;170;;2;126;block1_Pilot_2;13;n_n;n_n_strong;;;;;0;0;0;0;0;36;36;36;;;;;;;;;287.7003434000071;None;288.81879390007816;289.1094286000589;289.1094286000589;289.1255772000877;289.1255772000877;289.16626910003833;289.16626910003833;None;8;1;289.16626910003833;None;290.66674360004254;None;['8'];290.66674360004254;None;0.993561299983412;[0.5253312999848276];;;;;;;Emoconpilot029;2021_Nov_02_1439;BackwardMask;2020.2.8;119.80567511000827;
;f;028_y_f_s_a.jpg;sad;7;19;f;019_m_f_n_a.jpg;neutral;incongruent;8;match;;130;170;;2;156;block1_Pilot_2;28;s_n;s_n_strong;;;;;0;0;0;0;0;37;37;37;;;;;;;;;293.6673890000675;None;294.9768761000596;295.2673125000438;295.2673125000438;295.2839376999764;295.2839376999764;295.3246866000118;295.3246866000118;None;9;0;295.3246866000118;None;296.82478989998344;None;['8'];296.82478989998344;None;1.0673084000591189;[0.3033457000274211];;;;;;;Emoconpilot029;2021_Nov_02_1439;BackwardMask;2020.2.8;119.80567511000827;
;m;016_y_m_s_a.jpg;sad;7;19;f;019_m_f_n_a.jpg;neutral;incongruent;8;mismatch;;130;170;;3;138;block1_Pilot_2;16;s_n;s_n_weak;;;;;0;0;0;0;0;38;38;38;;;;;;;;;299.8258099000668;None;300.982894100016;301.27585099998396;301.27585099998396;301.3006655999925;301.3006655999925;301.34158460004255;301.34158460004255;None;7;0;301.34158460004255;None;302.8417526000412;None;['8'];302.8417526000412;None;1.2425156999379396;[0.4062481999862939];;;;;;;Emoconpilot029;2021_Nov_02_1439;BackwardMask;2020.2.8;119.80567511000827;
;m;033_o_m_s_a.jpg;sad;7;27;m;027_o_m_n_a.jpg;neutral;incongruent;8;match;;130;170;;3;120;block1_Pilot_2;33;s_n;s_n_strong;;;;;0;0;0;0;0;39;39;39;;;;;;;;;305.84257760003675;None;306.8578571000835;307.15103040006943;307.15103040006943;307.1758374000201;307.1758374000201;307.216467600083;307.216467600083;None;7;0;307.216467600083;None;308.7167790000094;None;['8'];308.7167790000094;None;1.3116711999755353;[0.43535290006548166];;;;;;;Emoconpilot029;2021_Nov_02_1439;BackwardMask;2020.2.8;119.80567511000827;
;f;040_y_f_s_a.jpg;sad;7;33;m;033_o_m_n_a.jpg;neutral;incongruent;8;mismatch;;130;170;;1;238;block1_Pilot_2;40;s_n;s_n_weak;;;;;0;0;0;0;0;40;40;40;;;;;;;;;311.718185500009;None;313.70896000007633;314.00117090006825;314.00117090006825;314.0092410000507;314.0092410000507;314.050184700056;314.050184700056;None;None;0;314.050184700056;None;315.55003270006273;None;"['7', '9']";315.55003270006273;None;;"[0.002074899966828525, 0.7539766000118107]";;;;;;;Emoconpilot029;2021_Nov_02_1439;BackwardMask;2020.2.8;119.80567511000827;
;f;021_o_f_n_a.jpg;neutral;8;19;f;019_m_f_s_a.jpg;sad;incongruent;7;match;;140;160;;1;238;block1_Pilot_2;21;n_s;n_s_strong;;;;;0;0;0;0;0;41;41;41;;;;;;;;;318.55095369997434;None;320.5555417999858;320.8517625000095;320.8517625000095;320.85957770003006;320.85957770003006;320.90022329997737;320.90022329997737;None;8;0;320.90022329997737;None;322.400332899997;None;['9'];322.400332899997;None;1.1158735000062734;[0.27962819999083877];;;;;;;Emoconpilot029;2021_Nov_02_1439;BackwardMask;2020.2.8;119.80567511000827;
;m;033_o_m_h_a.jpg;happy;9;27;m;027_o_m_h_a.jpg;happy;congruent;9;match;;120;150;;3;134;block1_Pilot_2;33;h_h;h_h_weak;;;;;0;0;0;0;0;42;42;42;;;;;;;;;325.40117520000786;None;326.5245052999817;326.81808210001327;326.81808210001327;326.84299080003984;326.84299080003984;326.88370060001034;326.88370060001034;None;9;1;326.88370060001034;None;328.3845591000281;None;['7'];328.3845591000281;None;0.636396300047636;[0.27942569996230304];;;;;;;Emoconpilot029;2021_Nov_02_1439;BackwardMask;2020.2.8;119.80567511000827;
;f;040_y_f_s_a.jpg;sad;7;4;m;004_o_m_h_a.jpg;happy;incongruent;9;mismatch;;130;150;;2;225;block1_Pilot_2;40;s_h;s_h_strong;;;;;0;0;0;0;0;43;43;43;;;;;;;;;331.3841183000477;None;333.2669267000165;333.559715099982;333.559715099982;333.57672030001413;333.57672030001413;333.6173034000676;333.6173034000676;None;9;1;333.6173034000676;None;335.1173555999994;None;['8'];335.1173555999994;None;0.8548644999973476;[0.7624962000409141];;;;;;;Emoconpilot029;2021_Nov_02_1439;BackwardMask;2020.2.8;119.80567511000827;
;m;027_o_m_s_a.jpg;sad;7;21;f;021_o_f_n_a.jpg;neutral;incongruent;8;mismatch;;130;170;;18;238;block1_Pilot_2;27;s_n;s_n_weak;;;;;0;0;0;0;0;44;44;44;;;;;;;;;338.11753559997305;None;340.11756330006756;340.41007830004673;340.41007830004673;340.5598312000511;340.5598312000511;340.6006266999757;340.6006266999757;None;8;1;340.6006266999757;None;342.10086770006455;None;['7'];342.10086770006455;None;0.7434073000913486;[0.7472443000879139];;;;;;;Emoconpilot029;2021_Nov_02_1439;BackwardMask;2020.2.8;119.80567511000827;
;m;016_y_m_h_a.jpg;happy;9;16;m;016_y_m_n_a.jpg;neutral;incongruent;8;match;;120;170;;3;202;block1_Pilot_2;16;h_n;h_n_weak;;;;;0;0;0;0;0;45;45;45;;;;;;;;;345.1011142000789;None;346.8004370999988;347.09336569998413;347.09336569998413;347.1183159999782;347.1183159999782;347.15915459999815;347.15915459999815;None;9;0;347.15915459999815;None;348.65932279999834;None;['7'];348.65932279999834;None;0.6087505000177771;[0.43676380009856075];;;;;;;Emoconpilot029;2021_Nov_02_1439;BackwardMask;2020.2.8;119.80567511000827;
;m;033_o_m_h_a.jpg;happy;9;13;m;013_y_m_n_a.jpg;neutral;incongruent;8;match;;120;170;;2;150;block1_Pilot_2;33;h_n;h_n_weak;;;;;0;0;0;0;0;46;46;46;;;;;;;;;351.66034960001707;None;352.917428500019;353.21029140008613;353.21029140008613;353.226764800027;353.226764800027;353.26750680000987;353.26750680000987;None;9;0;353.26750680000987;None;354.7676251999801;None;['8'];354.7676251999801;None;0.7404881999827921;[0.4644395998911932];;;;;;;Emoconpilot029;2021_Nov_02_1439;BackwardMask;2020.2.8;119.80567511000827;
;f;012_o_f_n_a.jpg;neutral;8;16;m;016_y_m_n_a.jpg;neutral;congruent;8;mismatch;;140;170;;1;238;block1_Pilot_2;12;n_n;n_n_strong;;;;;0;0;0;0;0;47;47;47;;;;;;;;;357.7678891000105;None;359.7857950000325;360.0775193000445;360.0775193000445;360.0852728000609;360.0852728000609;360.1260266000172;360.1260266000172;None;9;0;360.1260266000172;None;361.62611700000707;None;['9'];361.62611700000707;None;1.4499719999730587;[0.4697753000073135];;;;;;;Emoconpilot029;2021_Nov_02_1439;BackwardMask;2020.2.8;119.80567511000827;
;f;040_y_f_n_a.jpg;neutral;8;30;f;030_o_f_h_a.jpg;happy;incongruent;9;match;;140;150;;2;194;block1_Pilot_2;40;n_h;n_h_strong;;;;;0;0;0;0;0;48;48;48;;;;;;;;;364.6268290000735;None;366.26207310007885;366.55254330008756;366.55254330008756;366.56884080008604;366.56884080008604;366.60956710006576;366.60956710006576;None;8;0;366.60956710006576;None;368.109777100035;None;['8'];368.109777100035;None;1.0303906999761239;[0.6022711000405252];;;;;;;Emoconpilot029;2021_Nov_02_1439;BackwardMask;2020.2.8;119.80567511000827;
;m;013_y_m_n_a.jpg;neutral;8;12;f;012_o_f_s_a.jpg;sad;incongruent;7;mismatch;;140;160;;18;238;block1_Pilot_2;13;n_s;n_s_weak;;;;;0;0;0;0;0;49;49;49;;;;;;;;;371.11049570003524;None;373.11244830000214;373.4026793000521;373.4026793000521;373.5522856999887;373.5522856999887;373.59308320004493;373.59308320004493;None;8;0;373.59308320004493;None;375.09324900002684;None;['7'];375.09324900002684;None;0.5667929999763146;[0.31469609995838255];;;;;;;Emoconpilot029;2021_Nov_02_1439;BackwardMask;2020.2.8;119.80567511000827;
;f;012_o_f_h_a.jpg;happy;9;12;f;012_o_f_n_a.jpg;neutral;incongruent;8;match;;120;170;;2;125;block1_Pilot_2;12;h_n;h_n_strong;;;;;0;0;0;0;0;50;50;50;;;;;;;;;378.09367299999576;None;379.1438857000321;379.43564410007093;379.43564410007093;379.4523511000443;379.4523511000443;379.49322429997846;379.49322429997846;None;7;0;379.49322429997846;None;380.99322150007356;None;['9'];380.99322150007356;None;1.2586793000809848;[0.8228181999875233];;;;;;;Emoconpilot029;2021_Nov_02_1439;BackwardMask;2020.2.8;119.80567511000827;
;m;008_y_m_s_a.jpg;sad;7;19;f;019_m_f_s_a.jpg;sad;congruent;7;mismatch;;130;160;;2;202;block1_Pilot_2;8;s_s;s_s_strong;;;;;0;0;0;0;0;51;51;51;;;;;;;;;383.99419660004787;None;385.6983914000448;385.99450939998496;385.99450939998496;386.0106199000729;386.0106199000729;386.0516475000186;386.0516475000186;None;8;0;386.0516475000186;None;387.5517556000268;None;['9'];387.5517556000268;None;0.7881954000331461;[0.2483709000516683];;;;;;;Emoconpilot029;2021_Nov_02_1439;BackwardMask;2020.2.8;119.80567511000827;
;f;028_y_f_n_a.jpg;neutral;8;12;f;012_o_f_n_a.jpg;neutral;congruent;8;match;;140;170;;2;214;block1_Pilot_2;28;n_n;n_n_strong;;;;;0;0;0;0;0;52;52;52;;;;;;;;;390.5527044000337;None;392.3545133000007;392.6448308000108;392.6448308000108;392.660994600039;392.660994600039;392.701735700015;392.701735700015;None;8;1;392.701735700015;None;394.20174330007285;None;['8'];394.20174330007285;None;0.5702589000575244;[0.2462072999915108];;;;;;;Emoconpilot029;2021_Nov_02_1439;BackwardMask;2020.2.8;119.80567511000827;
;m;027_o_m_h_a.jpg;happy;9;19;f;019_m_f_h_a.jpg;happy;congruent;9;mismatch;;120;150;;3;165;block1_Pilot_2;27;h_h;h_h_strong;;;;;0;0;0;0;0;53;53;53;;;;;;;;;397.2024980999995;None;398.60495609999634;398.89490040007513;398.89490040007513;398.9194124999922;398.9194124999922;398.96020980004687;398.96020980004687;None;8;0;398.96020980004687;None;400.46035140007734;None;['8'];400.46035140007734;None;0.5278586000204086;[1.0436723999446258];;;;;;;Emoconpilot029;2021_Nov_02_1439;BackwardMask;2020.2.8;119.80567511000827;
;m;008_y_m_s_a.jpg;sad;7;13;m;013_y_m_h_a.jpg;happy;incongruent;9;match;;130;150;;18;200;block1_Pilot_2;8;s_h;s_h_strong;;;;;0;0;0;0;0;54;54;54;;;;;;;;;403.46116920001805;None;405.17987260001246;405.4699533000821;405.4699533000821;405.61953640007414;405.61953640007414;405.6604829999851;405.6604829999851;None;7;0;405.6604829999851;None;407.16027150000446;None;['7'];407.16027150000446;None;0.6834589000791311;[0.35173720004968345];;;;;;;Emoconpilot029;2021_Nov_02_1439;BackwardMask;2020.2.8;119.80567511000827;
;f;030_o_f_n_a.jpg;neutral;8;28;f;028_y_f_s_a.jpg;sad;incongruent;7;match;;140;160;;18;238;block1_Pilot_2;30;n_s;n_s_weak;;;;;0;0;0;0;0;55;55;55;;;;;;;;;410.1608701000223;None;412.1725086000515;412.462103900034;412.462103900034;412.611559699988;412.611559699988;412.652169900015;412.652169900015;None;8;0;412.652169900015;None;414.15218319999985;None;['7'];414.15218319999985;None;0.7078990000300109;[0.3756803000578657];;;;;;;Emoconpilot029;2021_Nov_02_1439;BackwardMask;2020.2.8;119.80567511000827;
;f;019_m_f_h_a.jpg;happy;9;27;m;027_o_m_h_a.jpg;happy;congruent;9;mismatch;;120;150;;1;238;block1_Pilot_2;19;h_h;h_h_strong;;;;;0;0;0;0;0;56;56;56;;;;;;;;;417.1522567999782;None;419.1456466000527;419.4366199000506;419.4366199000506;419.4447534000501;419.4447534000501;419.48565300006885;419.48565300006885;None;7;0;419.48565300006885;None;420.9857380000176;None;['9'];420.9857380000176;None;1.138258699909784;[0.36635330005083233];;;;;;;Emoconpilot029;2021_Nov_02_1439;BackwardMask;2020.2.8;119.80567511000827;
;m;004_o_m_s_a.jpg;sad;7;4;m;004_o_m_h_a.jpg;happy;incongruent;9;match;;130;150;;18;155;block1_Pilot_2;4;s_h;s_h_weak;;;;;0;0;0;0;0;57;57;57;;;;;;;;;423.98666230007075;None;425.29268760001287;425.58672979997937;425.58672979997937;425.73658340005204;425.73658340005204;425.7775213000132;425.7775213000132;None;7;0;425.7775213000132;None;427.27760570007376;None;['7'];427.27760570007376;None;0.5665698000229895;[0.73036389995832];;;;;;;Emoconpilot029;2021_Nov_02_1439;BackwardMask;2020.2.8;119.80567511000827;
;f;021_o_f_s_a.jpg;sad;7;27;m;027_o_m_n_a.jpg;neutral;incongruent;8;mismatch;;130;170;;3;224;block1_Pilot_2;21;s_n;s_n_weak;;;;;0;0;0;0;0;58;58;58;;;;;;;;;430.27756660000887;None;432.15198299998883;432.44524410006125;432.44524410006125;432.4700400000438;432.4700400000438;432.5108557000058;432.5108557000058;None;8;1;432.5108557000058;None;434.01106559997424;None;['9'];434.01106559997424;None;0.6170311999740079;[0.8688957000849769];;;;;;;Emoconpilot029;2021_Nov_02_1439;BackwardMask;2020.2.8;119.80567511000827;
;f;021_o_f_h_a.jpg;happy;9;27;m;027_o_m_n_a.jpg;neutral;incongruent;8;mismatch;;120;170;;2;147;block1_Pilot_2;21;h_n;h_n_strong;;;;;0;0;0;0;0;59;59;59;;;;;;;;;437.0110977999866;None;438.3128794999793;438.60399289999623;438.60399289999623;438.62020100001246;438.62020100001246;438.66117029997986;438.66117029997986;None;8;1;438.66117029997986;None;440.16115770000033;None;['9'];440.16115770000033;None;1.362882300047204;[0.5509327000472695];;;;;;;Emoconpilot029;2021_Nov_02_1439;BackwardMask;2020.2.8;119.80567511000827;
;f;040_y_f_n_a.jpg;neutral;8;13;m;013_y_m_h_a.jpg;happy;incongruent;9;mismatch;;140;150;;3;237;block1_Pilot_2;40;n_h;n_h_strong;;;;;0;0;0;0;0;60;60;60;;;;;;;;;443.16212090000045;None;445.1582145000575;445.45426720008254;445.45426720008254;445.4788236999884;445.4788236999884;445.51952019997407;445.51952019997407;None;8;0;445.51952019997407;None;447.0198421999812;None;['7'];447.0198421999812;None;0.6565605999203399;[0.3723123000236228];;;;;;;Emoconpilot029;2021_Nov_02_1439;BackwardMask;2020.2.8;119.80567511000827;
;m;027_o_m_n_a.jpg;neutral;8;19;f;019_m_f_h_a.jpg;happy;incongruent;9;mismatch;;140;150;;3;199;block1_Pilot_2;27;n_h;n_h_strong;;;;;0;0;0;0;0;61;61;61;;;;;;;;;450.0206209999742;None;451.69798250007443;451.98785660008434;451.98785660008434;452.01205240003765;452.01205240003765;452.05294279998634;452.05294279998634;None;8;0;452.05294279998634;None;453.55310090002604;None;['9'];453.55310090002604;None;0.5550270000239834;[0.8149632000131533];;;;;;;Emoconpilot029;2021_Nov_02_1439;BackwardMask;2020.2.8;119.80567511000827;
;m;027_o_m_h_a.jpg;happy;9;21;f;021_o_f_s_a.jpg;sad;incongruent;7;mismatch;;120;160;;2;169;block1_Pilot_2;27;h_s;h_s_strong;;;;;0;0;0;0;0;62;62;62;;;;;;;;;456.5537664000876;None;458.01690430007875;458.3129218000686;458.3129218000686;458.3289144000737;458.3289144000737;458.3696221000282;458.3696221000282;None;8;0;458.3696221000282;None;459.87001339998096;None;['9'];459.87001339998096;None;1.1984414999606088;[0.28235690004657954];;;;;;;Emoconpilot029;2021_Nov_02_1439;BackwardMask;2020.2.8;119.80567511000827;
;m;013_y_m_n_a.jpg;neutral;8;33;m;033_o_m_h_a.jpg;happy;incongruent;9;match;;140;150;;18;238;block1_Pilot_2;13;n_h;n_h_strong;;;;;0;0;0;0;0;63;63;63;;;;;;;;;462.87082200008444;None;464.87533359997906;465.17138539999723;465.17138539999723;465.3208703000564;465.3208703000564;465.3615768000018;465.3615768000018;None;8;0;465.3615768000018;None;466.8618720000377;None;['7'];466.8618720000377;None;0.550330700003542;[0.6581537999445572];;;;;;;Emoconpilot029;2021_Nov_02_1439;BackwardMask;2020.2.8;119.80567511000827;
;m;033_o_m_n_a.jpg;neutral;8;30;f;030_o_f_s_a.jpg;sad;incongruent;7;mismatch;;140;160;;1;238;block1_Pilot_2;33;n_s;n_s_weak;;;;;0;0;0;0;0;64;64;64;;;;;;;;;469.8622715000529;None;471.89235320000444;472.18813820008654;472.18813820008654;472.1959722000174;472.1959722000174;472.2366832999978;472.2366832999978;None;7;1;472.2366832999978;None;473.73690440005157;None;['9'];473.73690440005157;None;1.131392000010237;[0.38321999995969236];;;;;;;Emoconpilot029;2021_Nov_02_1439;BackwardMask;2020.2.8;119.80567511000827;
;m;033_o_m_s_a.jpg;sad;7;4;m;004_o_m_s_a.jpg;sad;congruent;7;match;;130;160;;18;146;block1_Pilot_2;33;s_s;s_s_weak;;;;;0;0;0;0;0;65;65;65;;;;;;;;;476.73704110004473;None;477.96247450006194;478.2545790000586;478.2545790000586;478.40434960008133;478.40434960008133;478.44523890002165;478.44523890002165;None;7;1;478.44523890002165;None;479.94532759999856;None;['7'];479.94532759999856;None;0.5546040000626817;[0.27073690004181117];;;;;;;Emoconpilot029;2021_Nov_02_1439;BackwardMask;2020.2.8;119.80567511000827;
;m;016_y_m_s_a.jpg;sad;7;28;f;028_y_f_h_a.jpg;happy;incongruent;9;mismatch;;130;150;;18;238;block1_Pilot_2;16;s_h;s_h_strong;;;;;0;0;0;0;0;66;66;66;;;;;;;;;482.94613020005636;None;484.93691100005526;485.22967120003887;485.22967120003887;485.3794856000459;485.3794856000459;485.4203077000566;485.4203077000566;None;7;0;485.4203077000566;None;486.92034840001725;None;['7'];486.92034840001725;None;0.4677342999493703;[0.34378160000778735];;;;;;;Emoconpilot029;2021_Nov_02_1439;BackwardMask;2020.2.8;119.80567511000827;
;f;030_o_f_h_a.jpg;happy;9;28;f;028_y_f_h_a.jpg;happy;congruent;9;match;;120;150;;3;234;block1_Pilot_2;30;h_h;h_h_weak;;;;;0;0;0;0;0;67;67;67;;;;;;;;;489.9218765000114;None;491.9275920999935;492.2218705000123;492.2218705000123;492.2463586999802;492.2463586999802;492.2871202999959;492.2871202999959;None;9;1;492.2871202999959;None;493.7873226000229;None;['7'];493.7873226000229;None;0.9130071999970824;[0.27671160001773387];;;;;;;Emoconpilot029;2021_Nov_02_1439;BackwardMask;2020.2.8;119.80567511000827;
;m;013_y_m_h_a.jpg;happy;9;4;m;004_o_m_h_a.jpg;happy;congruent;9;match;;120;150;;2;141;block1_Pilot_2;13;h_h;h_h_strong;;;;;0;0;0;0;0;68;68;68;;;;;;;;;496.7874286000151;None;497.98342070006765;498.27192740002647;498.27192740002647;498.28806779999286;498.28806779999286;498.3289490999887;498.3289490999887;None;9;1;498.3289490999887;None;499.82928060006816;None;['8'];499.82928060006816;None;0.7750314000295475;[0.3547360999509692];;;;;;;Emoconpilot029;2021_Nov_02_1439;BackwardMask;2020.2.8;119.80567511000827;
;f;028_y_f_s_a.jpg;sad;7;8;m;008_y_m_s_a.jpg;sad;congruent;7;mismatch;;130;160;;1;238;block1_Pilot_2;28;s_s;s_s_strong;;;;;0;0;0;0;0;69;69;69;;;;;;;;;502.83016000001226;None;504.83194090006873;505.12172589998227;505.12172589998227;505.12993739999365;505.12993739999365;505.1708267000504;505.1708267000504;None;8;0;505.1708267000504;None;506.670710699982;None;['9'];506.670710699982;None;1.4613302999641746;[0.5613762999419123];;;;;;;Emoconpilot029;2021_Nov_02_1439;BackwardMask;2020.2.8;119.80567511000827;
;f;028_y_f_s_a.jpg;sad;7;30;f;030_o_f_h_a.jpg;happy;incongruent;9;match;;130;150;;2;199;block1_Pilot_2;28;s_h;s_h_weak;;;;;0;0;0;0;0;70;70;70;;;;;;;;;509.67079190001823;None;511.339476400055;511.63039200007915;511.63039200007915;511.64670929999556;511.64670929999556;511.6875986000523;511.6875986000523;None;9;1;511.6875986000523;None;513.1876671999926;None;None;513.1876671999926;None;1.0164016999769956;;;;;;;;Emoconpilot029;2021_Nov_02_1439;BackwardMask;2020.2.8;119.80567511000827;
;m;008_y_m_h_a.jpg;happy;9;21;f;021_o_f_n_a.jpg;neutral;incongruent;8;mismatch;;120;170;;2;137;block1_Pilot_2;8;h_n;h_n_weak;;;;;0;0;0;0;0;71;71;71;;;;;;;;;516.1876433000434;None;517.339190699975;517.6304245999781;517.6304245999781;517.6469497000799;517.6469497000799;517.6874928000616;517.6874928000616;None;9;0;517.6874928000616;None;519.1878805999877;None;['8'];519.1878805999877;None;1.2485169999999925;[0.30810440005734563];;;;;;;Emoconpilot029;2021_Nov_02_1439;BackwardMask;2020.2.8;119.80567511000827;
;f;012_o_f_n_a.jpg;neutral;8;8;m;008_y_m_s_a.jpg;sad;incongruent;7;mismatch;;140;160;;2;208;block1_Pilot_2;12;n_s;n_s_weak;;;;;0;0;0;0;0;72;72;72;;;;;;;;;522.1887235000031;None;523.9849073999794;524.2808522999985;524.2808522999985;524.2971910000779;524.2971910000779;524.3377407999942;524.3377407999942;None;None;0;524.3377407999942;None;525.8378730000695;None;"['8', '8']";525.8378730000695;None;;"[0.6181533000199124, 0.8501408000010997]";;;;;;;Emoconpilot029;2021_Nov_02_1439;BackwardMask;2020.2.8;119.80567511000827;
;m;016_y_m_n_a.jpg;neutral;8;8;m;008_y_m_n_a.jpg;neutral;congruent;8;match;;140;170;;3;211;block1_Pilot_2;16;n_n;n_n_strong;;;;;0;0;0;0;0;73;73;73;;;;;;;;;528.8388358000666;None;530.6253802999854;530.9141988999909;530.9141988999909;530.9387424000306;530.9387424000306;530.9795660000527;530.9795660000527;None;7;0;530.9795660000527;None;532.4796353999991;None;['8'];532.4796353999991;None;1.1325433999300003;[1.0324244000948966];;;;;;;Emoconpilot029;2021_Nov_02_1439;BackwardMask;2020.2.8;119.80567511000827;
;m;016_y_m_h_a.jpg;happy;9;13;m;013_y_m_s_a.jpg;sad;incongruent;7;match;;120;160;;3;138;block1_Pilot_2;16;h_s;h_s_weak;;;;;0;0;0;0;0;74;74;74;;;;;;;;;535.4804439999862;None;536.6379843000323;536.930737900082;536.930737900082;536.9555584000191;536.9555584000191;536.9964671999915;536.9964671999915;None;9;0;536.9964671999915;None;538.4964173000772;None;['7'];538.4964173000772;None;0.6196174999931827;[0.25559429998975247];;;;;;;Emoconpilot029;2021_Nov_02_1439;BackwardMask;2020.2.8;119.80567511000827;
;m;016_y_m_n_a.jpg;neutral;8;19;f;019_m_f_s_a.jpg;sad;incongruent;7;mismatch;;140;160;;2;185;block1_Pilot_2;16;n_s;n_s_strong;;;;;0;0;0;0;0;75;75;75;;;;;;;;;541.4965164000168;None;543.0749459000072;543.3644758000737;543.3644758000737;543.3806912000291;543.3806912000291;543.4216149999993;543.4216149999993;None;9;0;543.4216149999993;None;544.9217174000805;None;['8'];544.9217174000805;None;0.6502889000112191;[0.3664172999560833];;;;;;;Emoconpilot029;2021_Nov_02_1439;BackwardMask;2020.2.8;119.80567511000827;
;m;027_o_m_s_a.jpg;sad;7;8;m;008_y_m_s_a.jpg;sad;congruent;7;match;;130;160;;1;238;block1_Pilot_2;27;s_s;s_s_strong;;;;;0;0;0;0;0;76;76;76;;;;;;;;;547.921808400075;None;549.9141998999985;550.2061435000505;550.2061435000505;550.2141781999962;550.2141781999962;550.2549919000594;550.2549919000594;None;8;0;550.2549919000594;None;551.7549166000681;None;['9'];551.7549166000681;None;1.4410875999601558;[0.509081199998036];;;;;;;Emoconpilot029;2021_Nov_02_1439;BackwardMask;2020.2.8;119.80567511000827;
;f;019_m_f_n_a.jpg;neutral;8;27;m;027_o_m_n_a.jpg;neutral;congruent;8;mismatch;;140;170;;3;186;block1_Pilot_2;19;n_n;n_n_strong;;;;;0;0;0;0;0;77;77;77;;;;;;;;;554.7551965999883;None;556.3580330000259;556.6482850000029;556.6482850000029;556.6727587999776;556.6727587999776;556.7135231000138;556.7135231000138;None;9;0;556.7135231000138;None;558.2136233000783;None;['7'];558.2136233000783;None;0.7825271000619978;[0.9144178000278771];;;;;;;Emoconpilot029;2021_Nov_02_1439;BackwardMask;2020.2.8;119.80567511000827;
;m;004_o_m_s_a.jpg;sad;7;12;f;012_o_f_s_a.jpg;sad;congruent;7;mismatch;;130;160;;1;238;block1_Pilot_2;4;s_s;s_s_strong;;;;;0;0;0;0;0;78;78;78;;;;;;;;;561.2142381999874;None;563.2059910000535;563.4979407000355;563.4979407000355;563.5061076000566;563.5061076000566;563.5469896000577;563.5469896000577;None;9;0;563.5469896000577;None;565.0468927000184;None;['8'];565.0468927000184;None;0.9008513999870047;[0.32897520007099956];;;;;;;Emoconpilot029;2021_Nov_02_1439;BackwardMask;2020.2.8;119.80567511000827;
;f;019_m_f_n_a.jpg;neutral;8;13;m;013_y_m_s_a.jpg;sad;incongruent;7;mismatch;;140;160;;3;207;block1_Pilot_2;19;n_s;n_s_strong;;;;;0;0;0;0;0;79;79;79;;;;;;;;;568.0477025000146;None;569.7941352999769;570.0901308000321;570.0901308000321;570.1146613999736;570.1146613999736;570.1555244000629;570.1555244000629;None;8;0;570.1555244000629;None;571.6563679000828;None;['7'];571.6563679000828;None;0.7404015000211075;[0.4795763000147417];;;;;;;Emoconpilot029;2021_Nov_02_1439;BackwardMask;2020.2.8;119.80567511000827;
;m;027_o_m_h_a.jpg;happy;9;33;m;033_o_m_h_a.jpg;happy;congruent;9;match;;120;150;;1;238;block1_Pilot_2;27;h_h;h_h_strong;;;;;0;0;0;0;0;80;80;80;;;;;;;;;574.6564119000686;None;576.6582139000529;576.9486181000248;576.9486181000248;576.9563924000831;576.9563924000831;576.9971736000152;576.9971736000152;None;8;0;576.9971736000152;None;578.4973983999807;None;['9'];578.4973983999807;None;0.9388603999977931;[0.31848940008785576];;;;;;;Emoconpilot029;2021_Nov_02_1439;BackwardMask;2020.2.8;119.80567511000827;
;m;027_o_m_h_a.jpg;happy;9;21;f;021_o_f_s_a.jpg;sad;incongruent;7;mismatch;;120;160;;1;238;block1_Pilot_2;27;h_s;h_s_weak;;;;;0;0;0;0;0;81;81;81;;;;;;;;;581.4983842000365;None;583.5010393999983;583.7904961999739;583.7904961999739;583.7983448000159;583.7983448000159;583.8388891000068;583.8388891000068;None;7;1;583.8388891000068;None;585.3389593000757;None;['9'];585.3389593000757;None;1.4731311000650749;[0.6291797999292612];;;;;;;Emoconpilot029;2021_Nov_02_1439;BackwardMask;2020.2.8;119.80567511000827;
;m;033_o_m_s_a.jpg;sad;7;40;f;040_y_f_n_a.jpg;neutral;incongruent;8;mismatch;;130;170;;3;146;block1_Pilot_2;33;s_n;s_n_weak;;;;;0;0;0;0;0;82;82;82;;;;;;;;;588.3393357000314;None;589.5637308000587;589.8568014000775;589.8568014000775;589.8816801999928;589.8816801999928;589.9225711000618;589.9225711000618;None;7;0;589.9225711000618;None;591.4224276000168;None;['9'];591.4224276000168;None;0.9414457000093535;[0.8175102999666706];;;;;;;Emoconpilot029;2021_Nov_02_1439;BackwardMask;2020.2.8;119.80567511000827;
;m;008_y_m_h_a.jpg;happy;9;4;m;004_o_m_s_a.jpg;sad;incongruent;7;match;;120;160;;2;225;block1_Pilot_2;8;h_s;h_s_weak;;;;;0;0;0;0;0;83;83;83;;;;;;;;;594.4233242999762;None;596.3057888000039;596.598639999982;596.598639999982;596.615168999997;596.615168999997;596.6560119000496;596.6560119000496;None;9;0;596.6560119000496;None;598.1569845000049;None;['7'];598.1569845000049;None;0.6719171999720857;[0.44308770005591214];;;;;;;Emoconpilot029;2021_Nov_02_1439;BackwardMask;2020.2.8;119.80567511000827;
;f;012_o_f_n_a.jpg;neutral;8;4;m;004_o_m_s_a.jpg;sad;incongruent;7;mismatch;;140;160;;3;150;block1_Pilot_2;12;n_s;n_s_strong;;;;;0;0;0;0;0;84;84;84;;;;;;;;;601.156283600023;None;602.4279728999827;602.7241659000283;602.7241659000283;602.7487627000082;602.7487627000082;602.7894272999838;602.7894272999838;None;9;0;602.7894272999838;None;604.2896058000624;None;['7'];604.2896058000624;None;0.6745613000821322;[0.4225136999739334];;;;;;;Emoconpilot029;2021_Nov_02_1439;BackwardMask;2020.2.8;119.80567511000827;
;f;021_o_f_s_a.jpg;sad;7;40;f;040_y_f_n_a.jpg;neutral;incongruent;8;match;;130;170;;2;156;block1_Pilot_2;21;s_n;s_n_strong;;;;;0;0;0;0;0;85;85;85;;;;;;;;;607.2902908000397;None;608.5954829000402;608.890443500015;608.890443500015;608.9069442000473;608.9069442000473;608.947786499979;608.947786499979;None;9;0;608.947786499979;None;610.4479189000558;None;['8'];610.4479189000558;None;1.1960856000659987;[0.45617469993885607];;;;;;;Emoconpilot029;2021_Nov_02_1439;BackwardMask;2020.2.8;119.80567511000827;
;m;004_o_m_n_a.jpg;neutral;8;13;m;013_y_m_n_a.jpg;neutral;congruent;8;match;;140;170;;2;225;block1_Pilot_2;4;n_n;n_n_strong;;;;;0;0;0;0;0;86;86;86;;;;;;;;;613.4490341000492;None;615.3683707000455;615.6578142000362;615.6578142000362;615.6736390000442;615.6736390000442;615.7146007000702;615.7146007000702;None;9;0;615.7146007000702;None;617.2147922000149;None;['9'];617.2147922000149;None;1.237483299919404;[0.7451486999634653];;;;;;;Emoconpilot029;2021_Nov_02_1439;BackwardMask;2020.2.8;119.80567511000827;
;m;016_y_m_n_a.jpg;neutral;8;16;m;016_y_m_h_a.jpg;happy;incongruent;9;match;;140;150;;18;193;block1_Pilot_2;16;n_h;n_h_strong;;;;;0;0;0;0;0;87;87;87;;;;;;;;;620.2156420000829;None;621.8446224000072;622.1410678999964;622.1410678999964;622.2906879000366;622.2906879000366;622.3314480000408;622.3314480000408;None;8;0;622.3314480000408;None;623.8314944000449;None;['7'];623.8314944000449;None;0.6205168999731541;[0.7926249000011012];;;;;;;Emoconpilot029;2021_Nov_02_1439;BackwardMask;2020.2.8;119.80567511000827;
;m;033_o_m_h_a.jpg;happy;9;4;m;004_o_m_h_a.jpg;happy;congruent;9;match;;120;150;;2;195;block1_Pilot_2;33;h_h;h_h_strong;;;;;0;0;0;0;0;88;88;88;;;;;;;;;626.8325758000137;None;628.4644336000783;628.7577053999994;628.7577053999994;628.7740807000082;628.7740807000082;628.814903600025;628.814903600025;None;9;1;628.814903600025;None;630.316076499992;None;['7'];630.316076499992;None;0.6330673999618739;[1.1880727000534534];;;;;;;Emoconpilot029;2021_Nov_02_1439;BackwardMask;2020.2.8;119.80567511000827;
;m;027_o_m_h_a.jpg;happy;9;16;m;016_y_m_h_a.jpg;happy;congruent;9;match;;120;150;;3;209;block1_Pilot_2;27;h_h;h_h_weak;;;;;0;0;0;0;0;89;89;89;;;;;;;;;633.3156941999914;None;635.1087180000031;635.399397399975;635.399397399975;635.424159700051;635.424159700051;635.464679100085;635.464679100085;None;9;1;635.464679100085;None;636.9652810000116;None;['7'];636.9652810000116;None;0.6793871999252588;[0.48286640003789216];;;;;;;Emoconpilot029;2021_Nov_02_1439;BackwardMask;2020.2.8;119.80567511000827;
;m;033_o_m_s_a.jpg;sad;7;16;m;016_y_m_s_a.jpg;sad;congruent;7;match;;130;160;;3;128;block1_Pilot_2;33;s_s;s_s_strong;;;;;0;0;0;0;0;90;90;90;;;;;;;;;639.9651539999759;None;641.0400092999917;641.3328775999835;641.3328775999835;641.3579007000662;641.3579007000662;641.3986376000103;641.3986376000103;None;7;1;641.3986376000103;None;642.8987299000146;None;['7'];642.8987299000146;None;1.1053855000063777;[1.0212436000583693];;;;;;;Emoconpilot029;2021_Nov_02_1439;BackwardMask;2020.2.8;119.80567511000827;
;f;021_o_f_s_a.jpg;sad;7;30;f;030_o_f_s_a.jpg;sad;congruent;7;match;;130;160;;1;238;block1_Pilot_2;21;s_s;s_s_strong;;;;;0;0;0;0;0;91;91;91;;;;;;;;;645.8997846000129;None;647.8899582000449;648.1829723999836;648.1829723999836;648.1913209999911;648.1913209999911;648.2320426000515;648.2320426000515;None;8;0;648.2320426000515;None;649.7321985000744;None;['9'];649.7321985000744;None;1.3679677000036463;[0.6678165999474004];;;;;;;Emoconpilot029;2021_Nov_02_1439;BackwardMask;2020.2.8;119.80567511000827;
;m;033_o_m_n_a.jpg;neutral;8;28;f;028_y_f_s_a.jpg;sad;incongruent;7;mismatch;;140;160;;18;166;block1_Pilot_2;33;n_s;n_s_strong;;;;;0;0;0;0;0;92;92;92;;;;;;;;;652.732352900086;None;654.1786101000616;654.4750732000684;654.4750732000684;654.6246866000583;654.6246866000583;654.6656371999998;654.6656371999998;None;8;0;654.6656371999998;None;656.1655397000723;None;['7'];656.1655397000723;None;0.702439000015147;[0.4585079000098631];;;;;;;Emoconpilot029;2021_Nov_02_1439;BackwardMask;2020.2.8;119.80567511000827;
;f;019_m_f_n_a.jpg;neutral;8;30;f;030_o_f_n_a.jpg;neutral;congruent;8;match;;140;170;;18;228;block1_Pilot_2;19;n_n;n_n_weak;;;;;0;0;0;0;0;93;93;93;;;;;;;;;659.1663490000647;None;661.0878474999918;661.3835347000277;661.3835347000277;661.5331237000646;661.5331237000646;661.5739186999854;661.5739186999854;None;8;1;661.5739186999854;None;663.073863800033;None;['7'];663.073863800033;None;0.5621482999995351;[1.5582280999515206];;;;;;;Emoconpilot029;2021_Nov_02_1439;BackwardMask;2020.2.8;119.80567511000827;
;m;008_y_m_s_a.jpg;sad;7;12;f;012_o_f_h_a.jpg;happy;incongruent;9;mismatch;;130;150;;3;130;block1_Pilot_2;8;s_h;s_h_weak;;;;;0;0;0;0;0;94;94;94;;;;;;;;;666.075110899983;None;667.1770596000133;667.467219299986;667.467219299986;667.49161310005;667.49161310005;667.5323935999768;667.5323935999768;None;7;0;667.5323935999768;None;669.0324250999838;None;['7'];669.0324250999838;None;0.947702300036326;[1.2954623000696301];;;;;;;Emoconpilot029;2021_Nov_02_1439;BackwardMask;2020.2.8;119.80567511000827;
;m;016_y_m_n_a.jpg;neutral;8;28;f;028_y_f_n_a.jpg;neutral;congruent;8;mismatch;;140;170;;18;189;block1_Pilot_2;16;n_n;n_n_strong;;;;;0;0;0;0;0;95;95;95;;;;;;;;;672.0333521000575;None;673.6439758000197;673.933955000015;673.933955000015;674.0834623000119;674.0834623000119;674.1243061000714;674.1243061000714;None;8;1;674.1243061000714;None;675.6242364000063;None;['7'];675.6242364000063;None;0.73182669992093;[0.7598220000509173];;;;;;;Emoconpilot029;2021_Nov_02_1439;BackwardMask;2020.2.8;119.80567511000827;
;f;012_o_f_s_a.jpg;sad;7;16;m;016_y_m_h_a.jpg;happy;incongruent;9;mismatch;;130;150;;3;238;block1_Pilot_2;12;s_h;s_h_strong;;;;;0;0;0;0;0;96;96;96;;;;;;;;;678.6251639000839;None;680.6126130999764;680.9086709000403;680.9086709000403;680.9335380999837;680.9335380999837;680.9741378000472;680.9741378000472;None;8;0;680.9741378000472;None;682.4743847000645;None;['9'];682.4743847000645;None;1.3377501999493688;[0.725563499960117];;;;;;;Emoconpilot029;2021_Nov_02_1439;BackwardMask;2020.2.8;119.80567511000827;
;m;013_y_m_h_a.jpg;happy;9;27;m;027_o_m_h_a.jpg;happy;congruent;9;match;;120;150;;18;238;block1_Pilot_2;13;h_h;h_h_strong;;;;;0;0;0;0;0;97;97;97;;;;;;;;;685.4745159000158;None;687.4858334000455;687.7757313000038;687.7757313000038;687.9253105000826;687.9253105000826;687.966299300082;687.966299300082;None;9;1;687.966299300082;None;689.4665093000513;None;['7'];689.4665093000513;None;0.6176766999997199;[0.7175509999506176];;;;;;;Emoconpilot029;2021_Nov_02_1439;BackwardMask;2020.2.8;119.80567511000827;
;m;016_y_m_s_a.jpg;sad;7;33;m;033_o_m_n_a.jpg;neutral;incongruent;8;match;;130;170;;1;238;block1_Pilot_2;16;s_n;s_n_weak;;;;;0;0;0;0;0;98;98;98;;;;;;;;;692.4672656999901;None;694.4574817999965;694.7507478999905;694.7507478999905;694.7590124000562;694.7590124000562;694.7995406000409;694.7995406000409;None;9;0;694.7995406000409;None;696.3003151000012;None;['8'];696.3003151000012;None;1.3524872999405488;[0.5158339000772685];;;;;;;Emoconpilot029;2021_Nov_02_1439;BackwardMask;2020.2.8;119.80567511000827;
;m;008_y_m_n_a.jpg;neutral;8;30;f;030_o_f_n_a.jpg;neutral;congruent;8;mismatch;;140;170;;1;238;block1_Pilot_2;8;n_n;n_n_weak;;;;;0;0;0;0;0;99;99;99;;;;;;;;;699.3005499000428;None;701.3422267000424;701.634453900042;701.634453900042;701.6423338999739;701.6423338999739;701.6830788999796;701.6830788999796;None;8;1;701.6830788999796;None;703.1832065000199;None;['8'];703.1832065000199;None;0.9889801000244915;[0.4488391000777483];;;;;;;Emoconpilot029;2021_Nov_02_1439;BackwardMask;2020.2.8;119.80567511000827;
;m;008_y_m_s_a.jpg;sad;7;30;f;030_o_f_s_a.jpg;sad;congruent;7;mismatch;;130;160;;2;133;block1_Pilot_2;8;s_s;s_s_weak;;;;;0;0;0;0;0;100;100;100;;;;;;;;;706.1841583000496;None;707.3134570000693;707.6097830000799;707.6097830000799;707.6257652000058;707.6257652000058;707.6666661000345;707.6666661000345;None;7;1;707.6666661000345;None;709.1668195000384;None;['9'];709.1668195000384;None;1.381439800024964;[0.7051953999325633];;;;;;;Emoconpilot029;2021_Nov_02_1439;BackwardMask;2020.2.8;119.80567511000827;
;f;040_y_f_n_a.jpg;neutral;8;30;f;030_o_f_s_a.jpg;sad;incongruent;7;match;;140;160;;3;197;block1_Pilot_2;40;n_s;n_s_strong;;;;;0;0;0;0;0;101;101;101;;;;;;;;;712.1674500000663;None;713.8547818000661;714.1514161999803;714.1514161999803;714.1758799999952;714.1758799999952;714.2167135999771;714.2167135999771;None;8;0;714.2167135999771;None;715.7169226000551;None;['7'];715.7169226000551;None;0.7273375000804663;[0.3789360999362543];;;;;;;Emoconpilot029;2021_Nov_02_1439;BackwardMask;2020.2.8;119.80567511000827;
;m;004_o_m_h_a.jpg;happy;9;30;f;030_o_f_s_a.jpg;sad;incongruent;7;mismatch;;120;160;;3;121;block1_Pilot_2;4;h_s;h_s_strong;;;;;0;0;0;0;0;102;102;102;;;;;;;;;718.7179005000507;None;719.7474726000801;720.043313000002;720.043313000002;720.067813700065;720.067813700065;720.1086594000226;720.1086594000226;None;9;0;720.1086594000226;None;721.6087813000195;None;['7'];721.6087813000195;None;0.5874358000000939;[0.26309859997127205];;;;;;;Emoconpilot029;2021_Nov_02_1439;BackwardMask;2020.2.8;119.80567511000827;
;f;040_y_f_h_a.jpg;happy;9;8;m;008_y_m_h_a.jpg;happy;congruent;9;mismatch;;120;150;;18;211;block1_Pilot_2;40;h_h;h_h_weak;;;;;0;0;0;0;0;103;103;103;;;;;;;;;724.6093356000492;None;726.3761784000089;726.6679964000359;726.6679964000359;726.8177852000808;726.8177852000808;726.8588570000138;726.8588570000138;None;9;1;726.8588570000138;None;728.3588485000655;None;['7'];728.3588485000655;None;0.9972259000642225;[0.545130499987863];;;;;;;Emoconpilot029;2021_Nov_02_1439;BackwardMask;2020.2.8;119.80567511000827;
;f;019_m_f_s_a.jpg;sad;7;16;m;016_y_m_n_a.jpg;neutral;incongruent;8;mismatch;;130;170;;2;198;block1_Pilot_2;19;s_n;s_n_strong;;;;;0;0;0;0;0;104;104;104;;;;;;;;;731.3588515000883;None;733.0581764000235;733.3516995999962;733.3516995999962;733.3679131000536;733.3679131000536;733.4088355000131;733.4088355000131;None;8;1;733.4088355000131;None;734.9089678999735;None;['8'];734.9089678999735;None;0.7032294999808073;[0.8111451000440866];;;;;;;Emoconpilot029;2021_Nov_02_1439;BackwardMask;2020.2.8;119.80567511000827;
;f;040_y_f_s_a.jpg;sad;7;12;f;012_o_f_s_a.jpg;sad;congruent;7;match;;130;160;;18;240;block1_Pilot_2;40;s_s;s_s_strong;;;;;0;0;0;0;0;105;105;105;;;;;;;;;737.9097325999755;None;739.9186841000337;740.2099747000029;740.2099747000029;740.3598320999881;740.3598320999881;740.4006128000328;740.4006128000328;None;7;1;740.4006128000328;None;741.9006187000778;None;['7'];741.9006187000778;None;0.6474762000143528;[0.25933959998656064];;;;;;;Emoconpilot029;2021_Nov_02_1439;BackwardMask;2020.2.8;119.80567511000827;
;f;040_y_f_n_a.jpg;neutral;8;33;m;033_o_m_s_a.jpg;sad;incongruent;7;mismatch;;140;160;;3;188;block1_Pilot_2;40;n_s;n_s_weak;;;;;0;0;0;0;0;106;106;106;;;;;;;;;744.9007245000685;None;746.5153203000082;746.8104578000493;746.8104578000493;746.8348884000443;746.8348884000443;746.8756923000328;746.8756923000328;None;8;0;746.8756923000328;None;748.3754719999852;None;['7'];748.3754719999852;None;0.7242782999528572;[1.4884681000839919];;;;;;;Emoconpilot029;2021_Nov_02_1439;BackwardMask;2020.2.8;119.80567511000827;
;f;028_y_f_h_a.jpg;happy;9;21;f;021_o_f_s_a.jpg;sad;incongruent;7;match;;120;160;;3;193;block1_Pilot_2;28;h_s;h_s_strong;;;;;0;0;0;0;0;107;107;107;;;;;;;;;751.376649199985;None;752.9960615000455;753.2853394000558;753.2853394000558;753.3100391000044;753.3100391000044;753.3509388000239;753.3509388000239;None;8;0;753.3509388000239;None;754.8510081000859;None;['9'];754.8510081000859;None;1.065164600033313;[0.4131241000723094];;;;;;;Emoconpilot029;2021_Nov_02_1439;BackwardMask;2020.2.8;119.80567511000827;
;f;040_y_f_s_a.jpg;sad;7;13;m;013_y_m_n_a.jpg;neutral;incongruent;8;mismatch;;130;170;;2;198;block1_Pilot_2;40;s_n;s_n_strong;;;;;0;0;0;0;0;108;108;108;;;;;;;;;757.8509777000872;None;759.5111570000881;759.8020718999906;759.8020718999906;759.8183996999869;759.8183996999869;759.8594077000162;759.8594077000162;None;8;1;759.8594077000162;None;761.3594163000816;None;['8'];761.3594163000816;None;0.796472999965772;[0.36073829990345985];;;;;;;Emoconpilot029;2021_Nov_02_1439;BackwardMask;2020.2.8;119.80567511000827;
;f;030_o_f_n_a.jpg;neutral;8;33;m;033_o_m_s_a.jpg;sad;incongruent;7;mismatch;;140;160;;1;238;block1_Pilot_2;30;n_s;n_s_strong;;;;;0;0;0;0;0;109;109;109;;;;;;;;;764.3595568999881;None;766.3819491000613;766.6776964999735;766.6776964999735;766.6853564999765;766.6853564999765;766.7262043000665;766.7262043000665;None;8;0;766.7262043000665;None;768.226058500004;None;['9'];768.226058500004;None;1.233669799985364;[0.32576869998592883];;;;;;;Emoconpilot029;2021_Nov_02_1439;BackwardMask;2020.2.8;119.80567511000827;
;f;021_o_f_h_a.jpg;happy;9;40;f;040_y_f_n_a.jpg;neutral;incongruent;8;match;;120;170;;2;125;block1_Pilot_2;21;h_n;h_n_weak;;;;;0;0;0;0;0;110;110;110;;;;;;;;;771.2270797999809;None;772.2875342000043;772.57786640001;772.57786640001;772.5938000000315;772.5938000000315;772.6346365000354;772.6346365000354;None;9;0;772.6346365000354;None;774.1346506000264;None;['9'];774.1346506000264;None;0.7014766000211239;[0.7053215999621898];;;;;;;Emoconpilot029;2021_Nov_02_1439;BackwardMask;2020.2.8;119.80567511000827;
;f;021_o_f_h_a.jpg;happy;9;16;m;016_y_m_s_a.jpg;sad;incongruent;7;mismatch;;120;160;;1;238;block1_Pilot_2;21;h_s;h_s_strong;;;;;0;0;0;0;0;111;111;111;;;;;;;;;777.135395099991;None;779.1373497999739;779.427884100005;779.427884100005;779.4356844000285;779.4356844000285;779.4763967000181;779.4763967000181;None;7;1;779.4763967000181;None;780.9764637000626;None;['9'];780.9764637000626;None;1.1714966000290588;[0.31167640001513064];;;;;;;Emoconpilot029;2021_Nov_02_1439;BackwardMask;2020.2.8;119.80567511000827;
;f;012_o_f_h_a.jpg;happy;9;8;m;008_y_m_s_a.jpg;sad;incongruent;7;mismatch;;120;160;;1;238;block1_Pilot_2;12;h_s;h_s_weak;;;;;0;0;0;0;0;112;112;112;;;;;;;;;783.9765506000258;None;785.9679353000829;786.2610754000489;786.2610754000489;786.2691587000154;786.2691587000154;786.3099643000169;786.3099643000169;None;9;0;786.3099643000169;None;787.8100432000356;None;['9'];787.8100432000356;None;1.1701422999612987;[0.6940031000413001];;;;;;;Emoconpilot029;2021_Nov_02_1439;BackwardMask;2020.2.8;119.80567511000827;
;m;013_y_m_h_a.jpg;happy;9;16;m;016_y_m_s_a.jpg;sad;incongruent;7;match;;120;160;;3;202;block1_Pilot_2;13;h_s;h_s_weak;;;;;0;0;0;0;0;113;113;113;;;;;;;;;790.8102133000502;None;792.5154006000375;792.8115292000584;792.8115292000584;792.8358380000573;792.8358380000573;792.8765992000699;792.8765992000699;None;9;0;792.8765992000699;None;794.3766080000205;None;['7'];794.3766080000205;None;0.5874633999774233;[0.3353756000287831];;;;;;;Emoconpilot029;2021_Nov_02_1439;BackwardMask;2020.2.8;119.80567511000827;
;f;019_m_f_s_a.jpg;sad;7;4;m;004_o_m_n_a.jpg;neutral;incongruent;8;mismatch;;130;170;;1;238;block1_Pilot_2;19;s_n;s_n_strong;;;;;0;0;0;0;0;114;114;114;;;;;;;;;797.3768919000868;None;799.3793653000612;799.6698331000516;799.6698331000516;799.677775899996;799.677775899996;799.7185184999835;799.7185184999835;None;8;1;799.7185184999835;None;801.2186007000273;None;['9'];801.2186007000273;None;0.9373660000273958;[0.6454809999559075];;;;;;;Emoconpilot029;2021_Nov_02_1439;BackwardMask;2020.2.8;119.80567511000827;
;f;028_y_f_n_a.jpg;neutral;8;27;m;027_o_m_s_a.jpg;sad;incongruent;7;mismatch;;140;160;;18;238;block1_Pilot_2;28;n_s;n_s_strong;;;;;0;0;0;0;0;115;115;115;;;;;;;;;804.2195191000355;None;806.2209549000254;806.5116503000027;806.5116503000027;806.6612087000394;806.6612087000394;806.7018469000468;806.7018469000468;None;8;0;806.7018469000468;None;808.2019466999918;None;['7'];808.2019466999918;None;0.4902114999713376;[0.8379357000812888];;;;;;;Emoconpilot029;2021_Nov_02_1439;BackwardMask;2020.2.8;119.80567511000827;
;m;013_y_m_s_a.jpg;sad;7;12;f;012_o_f_h_a.jpg;happy;incongruent;9;mismatch;;130;150;;1;238;block1_Pilot_2;13;s_h;s_h_strong;;;;;0;0;0;0;0;116;116;116;;;;;;;;;811.2028158999747;None;813.1931287000189;813.4864257000154;813.4864257000154;813.4946150999749;813.4946150999749;813.5355252000736;813.5355252000736;None;None;0;813.5355252000736;None;815.0354238;None;"['7', '9']";815.0354238;None;;"[0.18867270008195192, 0.6366481999866664]";;;;;;;Emoconpilot029;2021_Nov_02_1439;BackwardMask;2020.2.8;119.80567511000827;
;m;016_y_m_s_a.jpg;sad;7;19;f;019_m_f_h_a.jpg;happy;incongruent;9;mismatch;;130;150;;1;238;block1_Pilot_2;16;s_h;s_h_strong;;;;;0;0;0;0;0;117;117;117;;;;;;;;;818.036153800087;None;820.0269948000787;820.3198963999748;820.3198963999748;820.3278766000876;820.3278766000876;820.3688963999739;820.3688963999739;None;9;1;820.3688963999739;None;821.8692205999978;None;['9'];821.8692205999978;None;1.1111033998895437;[0.3069028001045808];;;;;;;Emoconpilot029;2021_Nov_02_1439;BackwardMask;2020.2.8;119.80567511000827;
;m;013_y_m_s_a.jpg;sad;7;21;f;021_o_f_h_a.jpg;happy;incongruent;9;mismatch;;130;150;;18;238;block1_Pilot_2;13;s_h;s_h_strong;;;;;0;0;0;0;0;118;118;118;;;;;;;;;824.8698656000197;None;826.8602849000599;827.1533146000002;827.1533146000002;827.3032749000704;827.3032749000704;827.3441892000847;827.3441892000847;None;7;0;827.3441892000847;None;828.8441009999951;None;['7'];828.8441009999951;None;0.8479125999147072;[0.33192370005417615];;;;;;;Emoconpilot029;2021_Nov_02_1439;BackwardMask;2020.2.8;119.80567511000827;
;f;012_o_f_s_a.jpg;sad;7;13;m;013_y_m_h_a.jpg;happy;incongruent;9;mismatch;;130;150;;3;235;block1_Pilot_2;12;s_h;s_h_weak;;;;;0;0;0;0;0;119;119;119;;;;;;;;;831.8450026999926;None;833.8066724999808;834.1035863000434;834.1035863000434;834.1282805000665;834.1282805000665;834.1692756999983;834.1692756999983;None;9;1;834.1692756999983;None;835.6692163000116;None;['9'];835.6692163000116;None;1.4467592000728473;[1.0669121000682935];;;;;;;Emoconpilot029;2021_Nov_02_1439;BackwardMask;2020.2.8;119.80567511000827;
;f;019_m_f_s_a.jpg;sad;7;30;f;030_o_f_h_a.jpg;happy;incongruent;9;match;;130;150;;3;235;block2_Pilot_2;19;s_h;s_h_strong;;;;;0;1;1;1;0;0;0;0;;;;;;;;;858.7074849000201;None;860.6750627000583;860.9712124000071;860.9712124000071;860.9955783999758;860.9955783999758;861.0364546000492;861.0364546000492;None;9;1;861.0364546000492;None;862.5373619999737;None;['8'];862.5373619999737;None;0.8276139999506995;[0.8547762999078259];;;838.6703471000073;None;;;Emoconpilot029;2021_Nov_02_1439;BackwardMask;2020.2.8;119.80567511000827;
;m;008_y_m_n_a.jpg;neutral;8;40;f;040_y_f_h_a.jpg;happy;incongruent;9;mismatch;;140;150;;2;121;block2_Pilot_2;8;n_h;n_h_strong;;;;;0;1;1;1;0;1;1;1;;;;;;;;;865.5375689000357;None;866.5641857000301;866.8545489000389;866.8545489000389;866.8707369000185;866.8707369000185;866.911669800058;866.911669800058;None;8;0;866.911669800058;None;868.4121901000617;None;['9'];868.4121901000617;None;1.2324278999585658;[1.0037008000072092];;;;;;;Emoconpilot029;2021_Nov_02_1439;BackwardMask;2020.2.8;119.80567511000827;
;f;012_o_f_h_a.jpg;happy;9;27;m;027_o_m_n_a.jpg;neutral;incongruent;8;mismatch;;120;170;;2;240;block2_Pilot_2;12;h_n;h_n_weak;;;;;0;1;1;1;0;2;2;2;;;;;;;;;871.4125452999724;None;873.420756699983;873.712699900032;873.712699900032;873.7292282000417;873.7292282000417;873.7700443000067;873.7700443000067;None;9;0;873.7700443000067;None;875.2701890000608;None;['7'];875.2701890000608;None;0.7099068000679836;[0.23383519996423274];;;;;;;Emoconpilot029;2021_Nov_02_1439;BackwardMask;2020.2.8;119.80567511000827;
;m;008_y_m_h_a.jpg;happy;9;40;f;040_y_f_h_a.jpg;happy;congruent;9;mismatch;;120;150;;18;195;block2_Pilot_2;8;h_h;h_h_strong;;;;;0;1;1;1;0;3;3;3;;;;;;;;;878.2712052999996;None;879.9022819000529;880.1961219999939;880.1961219999939;880.3460132000037;880.3460132000037;880.3867023000494;880.3867023000494;None;9;1;880.3867023000494;None;881.887161700055;None;['7'];881.887161700055;None;0.6051532999845222;[0.2569730000104755];;;;;;;Emoconpilot029;2021_Nov_02_1439;BackwardMask;2020.2.8;119.80567511000827;
;m;004_o_m_n_a.jpg;neutral;8;33;m;033_o_m_s_a.jpg;sad;incongruent;7;match;;140;160;;18;126;block2_Pilot_2;4;n_s;n_s_weak;;;;;0;1;1;1;0;4;4;4;;;;;;;;;884.8871313000564;None;885.9680267000804;886.2633592999773;886.2633592999773;886.4128483000677;886.4128483000677;886.4536776000168;886.4536776000168;None;8;0;886.4536776000168;None;887.9537234000163;None;['7'];887.9537234000163;None;1.4664389999816194;[0.638276300043799];;;;;;;Emoconpilot029;2021_Nov_02_1439;BackwardMask;2020.2.8;119.80567511000827;
;f;028_y_f_s_a.jpg;sad;7;27;m;027_o_m_n_a.jpg;neutral;incongruent;8;mismatch;;130;170;;18;225;block2_Pilot_2;28;s_n;s_n_strong;;;;;0;1;1;1;0;5;5;5;;;;;;;;;890.9537727000425;None;892.8393461999949;893.1298395000631;893.1298395000631;893.2796764000086;893.2796764000086;893.3203827000689;893.3203827000689;None;8;1;893.3203827000689;None;894.8206014999887;None;['7'];894.8206014999887;None;1.0317112000193447;[0.6753543000668287];;;;;;;Emoconpilot029;2021_Nov_02_1439;BackwardMask;2020.2.8;119.80567511000827;
;m;027_o_m_s_a.jpg;sad;7;30;f;030_o_f_h_a.jpg;happy;incongruent;9;mismatch;;130;150;;18;238;block2_Pilot_2;27;s_h;s_h_weak;;;;;0;1;1;1;0;6;6;6;;;;;;;;;897.8215922000818;None;899.8124223999912;900.1050818000222;900.1050818000222;900.2548007000005;900.2548007000005;900.2958211000077;900.2958211000077;None;7;0;900.2958211000077;None;901.7958102000412;None;['7'];901.7958102000412;None;0.5599951000185683;[0.29212490003556013];;;;;;;Emoconpilot029;2021_Nov_02_1439;BackwardMask;2020.2.8;119.80567511000827;
;m;033_o_m_h_a.jpg;happy;9;40;f;040_y_f_s_a.jpg;sad;incongruent;7;mismatch;;120;160;;1;238;block2_Pilot_2;33;h_s;h_s_strong;;;;;0;1;1;1;0;7;7;7;;;;;;;;;904.7968224000651;None;906.7870369000593;907.0798861000221;907.0798861000221;907.0881729000248;907.0881729000248;907.1289217000594;907.1289217000594;None;7;1;907.1289217000594;None;908.628978200024;None;"['9', '9']";908.628978200024;None;0.8629826999967918;"[0.6670543999643996, 0.6910629000049084]";;;;;;;Emoconpilot029;2021_Nov_02_1439;BackwardMask;2020.2.8;119.80567511000827;
;f;012_o_f_n_a.jpg;neutral;8;12;f;012_o_f_h_a.jpg;happy;incongruent;9;match;;140;150;;2;200;block2_Pilot_2;12;n_h;n_h_weak;;;;;0;1;1;1;0;8;8;8;;;;;;;;;911.629197100061;None;913.3278912000824;913.6222978000296;913.6222978000296;913.6383066000417;913.6383066000417;913.6791508999886;913.6791508999886;None;8;0;913.6791508999886;None;915.1794834000757;None;['7'];915.1794834000757;None;0.9848486999981105;[1.3485345999943092];;;;;;;Emoconpilot029;2021_Nov_02_1439;BackwardMask;2020.2.8;119.80567511000827;
;f;030_o_f_n_a.jpg;neutral;8;19;f;019_m_f_n_a.jpg;neutral;congruent;8;match;;140;170;;1;238;block2_Pilot_2;30;n_n;n_n_weak;;;;;0;1;1;1;0;9;9;9;;;;;;;;;918.1806934999768;None;920.1817700000247;920.472491600085;920.472491600085;920.4802347000223;920.4802347000223;920.5209182000253;920.5209182000253;None;7;0;920.5209182000253;None;922.0210896000499;None;['9'];922.0210896000499;None;1.2871381000149995;[0.3389687000308186];;;;;;;Emoconpilot029;2021_Nov_02_1439;BackwardMask;2020.2.8;119.80567511000827;
;m;013_y_m_h_a.jpg;happy;9;8;m;008_y_m_n_a.jpg;neutral;incongruent;8;match;;120;170;;1;238;block2_Pilot_2;13;h_n;h_n_strong;;;;;0;1;1;1;0;10;10;10;;;;;;;;;925.0216189000057;None;927.0242967000231;927.3141989000142;927.3141989000142;927.3219285000814;927.3219285000814;927.3627600000473;927.3627600000473;None;9;0;927.3627600000473;None;928.8629043999827;None;['9'];928.8629043999827;None;0.6053412000183016;[0.2732082000002265];;;;;;;Emoconpilot029;2021_Nov_02_1439;BackwardMask;2020.2.8;119.80567511000827;
;f;040_y_f_h_a.jpg;happy;9;19;f;019_m_f_s_a.jpg;sad;incongruent;7;match;;120;160;;3;133;block2_Pilot_2;40;h_s;h_s_strong;;;;;0;1;1;1;0;11;11;11;;;;;;;;;931.8635397000471;None;932.9789304999867;933.2722566999728;933.2722566999728;933.2974788000574;933.2974788000574;933.3379176000599;933.3379176000599;None;9;0;933.3379176000599;None;934.8381301000481;None;['7'];934.8381301000481;None;0.5900965000037104;[0.24180710001382977];;;;;;;Emoconpilot029;2021_Nov_02_1439;BackwardMask;2020.2.8;119.80567511000827;
;f;040_y_f_h_a.jpg;happy;9;13;m;013_y_m_s_a.jpg;sad;incongruent;7;mismatch;;120;160;;3;226;block2_Pilot_2;40;h_s;h_s_strong;;;;;0;1;1;1;0;12;12;12;;;;;;;;;937.8393573000794;None;939.7297614000272;940.0225067000138;940.0225067000138;940.0472036000574;940.0472036000574;940.0879378999816;940.0879378999816;None;9;0;940.0879378999816;None;941.588039000053;None;['7'];941.588039000053;None;0.7520273000700399;[0.26006290002260357];;;;;;;Emoconpilot029;2021_Nov_02_1439;BackwardMask;2020.2.8;119.80567511000827;
;f;030_o_f_s_a.jpg;sad;7;27;m;027_o_m_h_a.jpg;happy;incongruent;9;mismatch;;130;150;;1;238;block2_Pilot_2;30;s_h;s_h_strong;;;;;0;1;1;1;0;13;13;13;;;;;;;;;944.5889176999917;None;946.6300641000271;946.9231093000853;946.9231093000853;946.930755599984;946.930755599984;946.9714539999841;946.9714539999841;None;8;0;946.9714539999841;None;948.4716163000558;None;['8'];948.4716163000558;None;0.7886245000408962;[0.7042762999190018];;;;;;;Emoconpilot029;2021_Nov_02_1439;BackwardMask;2020.2.8;119.80567511000827;
;m;033_o_m_h_a.jpg;happy;9;30;f;030_o_f_s_a.jpg;sad;incongruent;7;mismatch;;120;160;;1;238;block2_Pilot_2;33;h_s;h_s_weak;;;;;0;1;1;1;0;14;14;14;;;;;;;;;951.4717912999913;None;953.4639970000135;953.7559897999745;953.7559897999745;953.7642418000614;953.7642418000614;953.8051475000102;953.8051475000102;None;8;0;953.8051475000102;None;955.3050297000445;None;['9'];955.3050297000445;None;1.4589254000457004;[0.37509159999899566];;;;;;;Emoconpilot029;2021_Nov_02_1439;BackwardMask;2020.2.8;119.80567511000827;
;f;030_o_f_s_a.jpg;sad;7;28;f;028_y_f_n_a.jpg;neutral;incongruent;8;match;;130;170;;3;198;block2_Pilot_2;30;s_n;s_n_weak;;;;;0;1;1;1;0;15;15;15;;;;;;;;;958.3051243000664;None;959.9945426000049;960.2899070000276;960.2899070000276;960.3144645000575;960.3144645000575;960.355153099983;960.355153099983;None;9;0;960.355153099983;None;961.855151600088;None;['7'];961.855151600088;None;0.44501940009649843;[0.28083519998472184];;;;;;;Emoconpilot029;2021_Nov_02_1439;BackwardMask;2020.2.8;119.80567511000827;
;f;030_o_f_s_a.jpg;sad;7;33;m;033_o_m_h_a.jpg;happy;incongruent;9;mismatch;;130;150;;3;175;block2_Pilot_2;30;s_h;s_h_weak;;;;;0;1;1;1;0;16;16;16;;;;;;;;;964.8552679000422;None;966.3340617000358;966.6233940999955;966.6233940999955;966.6478241999866;966.6478241999866;966.688810300082;966.688810300082;None;7;0;966.688810300082;None;968.1885366999777;None;['8'];968.1885366999777;None;1.1513788999291137;[0.6116212999913841];;;;;;;Emoconpilot029;2021_Nov_02_1439;BackwardMask;2020.2.8;119.80567511000827;
;f;021_o_f_h_a.jpg;happy;9;30;f;030_o_f_h_a.jpg;happy;congruent;9;match;;120;150;;2;194;block2_Pilot_2;21;h_h;h_h_strong;;;;;0;1;1;1;0;17;17;17;;;;;;;;;971.1896017000545;None;972.8248957999749;973.1151436000364;973.1151436000364;973.1313856000779;973.1313856000779;973.1721798999934;973.1721798999934;None;9;1;973.1721798999934;None;974.6721429000609;None;['7'];974.6721429000609;None;0.6518963000271469;[0.2478653999278322];;;;;;;Emoconpilot029;2021_Nov_02_1439;BackwardMask;2020.2.8;119.80567511000827;
;f;019_m_f_n_a.jpg;neutral;8;16;m;016_y_m_s_a.jpg;sad;incongruent;7;mismatch;;140;160;;18;163;block2_Pilot_2;19;n_s;n_s_weak;;;;;0;1;1;1;0;18;18;18;;;;;;;;;977.672733400017;None;979.0490883999737;979.3402965000132;979.3402965000132;979.4895135000115;979.4895135000115;979.5305954000214;979.5305954000214;None;8;0;979.5305954000214;None;981.0307207000442;None;['7'];981.0307207000442;None;0.5094111999496818;[0.29743429995141923];;;;;;;Emoconpilot029;2021_Nov_02_1439;BackwardMask;2020.2.8;119.80567511000827;
;m;033_o_m_n_a.jpg;neutral;8;13;m;013_y_m_n_a.jpg;neutral;congruent;8;match;;140;170;;2;217;block2_Pilot_2;33;n_n;n_n_strong;;;;;0;1;1;1;0;19;19;19;;;;;;;;;984.0312045000028;None;985.8582685000729;986.1487805000506;986.1487805000506;986.1648336000508;986.1648336000508;986.2056997000473;986.2056997000473;None;9;0;986.2056997000473;None;987.7061196999857;None;['8'];987.7061196999857;None;1.0261549999704584;[0.19798590010032058];;;;;;;Emoconpilot029;2021_Nov_02_1439;BackwardMask;2020.2.8;119.80567511000827;
;m;033_o_m_h_a.jpg;happy;9;13;m;013_y_m_n_a.jpg;neutral;incongruent;8;match;;120;170;;2;227;block2_Pilot_2;33;h_n;h_n_weak;;;;;0;1;1;1;0;20;20;20;;;;;;;;;990.7066932000453;None;992.607483800035;992.898560600006;992.898560600006;992.9149748000782;992.9149748000782;992.9557902000379;992.9557902000379;None;None;0;992.9557902000379;None;994.4560088000726;None;"['8', '8']";994.4560088000726;None;;"[1.000057499972172, 1.2160967999370769]";;;;;;;Emoconpilot029;2021_Nov_02_1439;BackwardMask;2020.2.8;119.80567511000827;
;f;012_o_f_s_a.jpg;sad;7;16;m;016_y_m_n_a.jpg;neutral;incongruent;8;mismatch;;130;170;;1;238;block2_Pilot_2;12;s_n;s_n_weak;;;;;0;1;1;1;0;21;21;21;;;;;;;;;997.4565657000057;None;999.4423250000691;999.7402174000163;999.7402174000163;999.7485372000374;999.7485372000374;999.7894028000301;999.7894028000301;None;8;1;999.7894028000301;None;1001.2892974000424;None;['9'];1001.2892974000424;None;1.4506170999957249;[0.47869739995803684];;;;;;;Emoconpilot029;2021_Nov_02_1439;BackwardMask;2020.2.8;119.80567511000827;
;f;028_y_f_n_a.jpg;neutral;8;21;f;021_o_f_h_a.jpg;happy;incongruent;9;match;;140;150;;18;202;block2_Pilot_2;28;n_h;n_h_strong;;;;;0;1;1;1;0;22;22;22;;;;;;;;;1004.2900905000279;None;1006.0293720000191;1006.3240567999892;1006.3240567999892;1006.4736966000637;1006.4736966000637;1006.5145013000583;1006.5145013000583;None;8;0;1006.5145013000583;None;1008.0143843999831;None;['7'];1008.0143843999831;None;0.48560150002595037;[0.43357770005241036];;;;;;;Emoconpilot029;2021_Nov_02_1439;BackwardMask;2020.2.8;119.80567511000827;
;f;028_y_f_s_a.jpg;sad;7;30;f;030_o_f_n_a.jpg;neutral;incongruent;8;match;;130;170;;2;127;block2_Pilot_2;28;s_n;s_n_weak;;;;;0;1;1;1;0;23;23;23;;;;;;;;;1011.0147146000527;None;1012.0950781999854;1012.3906982999761;1012.3906982999761;1012.406992000062;1012.406992000062;1012.4476227000123;1012.4476227000123;None;8;1;1012.4476227000123;None;1013.9478318999754;None;['7'];1013.9478318999754;None;0.648484000004828;[0.6842124999966472];;;;;;;Emoconpilot029;2021_Nov_02_1439;BackwardMask;2020.2.8;119.80567511000827;
;m;004_o_m_n_a.jpg;neutral;8;40;f;040_y_f_n_a.jpg;neutral;congruent;8;mismatch;;140;170;;1;238;block2_Pilot_2;4;n_n;n_n_weak;;;;;0;1;1;1;0;24;24;24;;;;;;;;;1016.9489112000447;None;1018.9669199000346;1019.2579343999969;1019.2579343999969;1019.2655054000206;1019.2655054000206;1019.3063628000673;1019.3063628000673;None;7;0;1019.3063628000673;None;1020.8067316000815;None;['9'];1020.8067316000815;None;0.8136888999724761;[0.32925269997213036];;;;;;;Emoconpilot029;2021_Nov_02_1439;BackwardMask;2020.2.8;119.80567511000827;
;m;016_y_m_n_a.jpg;neutral;8;16;m;016_y_m_h_a.jpg;happy;incongruent;9;match;;140;150;;18;239;block2_Pilot_2;16;n_h;n_h_weak;;;;;0;1;1;1;0;25;25;25;;;;;;;;;1023.8072978000855;None;1025.8186218000483;1026.1079802999739;1026.1079802999739;1026.2573513999814;1026.2573513999814;1026.2984211000148;1026.2984211000148;None;8;0;1026.2984211000148;None;1027.7984121000627;None;['7'];1027.7984121000627;None;0.47755339997820556;[0.36956469994038343];;;;;;;Emoconpilot029;2021_Nov_02_1439;BackwardMask;2020.2.8;119.80567511000827;
;f;012_o_f_n_a.jpg;neutral;8;33;m;033_o_m_n_a.jpg;neutral;congruent;8;mismatch;;140;170;;3;134;block2_Pilot_2;12;n_n;n_n_weak;;;;;0;1;1;1;0;26;26;26;;;;;;;;;1030.799317200086;None;1031.9340145000024;1032.2248286000686;1032.2248286000686;1032.2490796999773;1032.2490796999773;1032.2899866000516;1032.2899866000516;None;8;1;1032.2899866000516;None;1033.7899427000666;None;['8'];1033.7899427000666;None;0.5342210000380874;[1.1622419999912381];;;;;;;Emoconpilot029;2021_Nov_02_1439;BackwardMask;2020.2.8;119.80567511000827;
;m;013_y_m_h_a.jpg;happy;9;27;m;027_o_m_s_a.jpg;sad;incongruent;7;match;;120;160;;2;194;block2_Pilot_2;13;h_s;h_s_strong;;;;;0;1;1;1;0;27;27;27;;;;;;;;;1036.7901889000786;None;1038.4258269000566;1038.7163652000017;1038.7163652000017;1038.732534000068;1038.732534000068;1038.7733757999958;1038.7733757999958;None;9;0;1038.7733757999958;None;1040.2742851000512;None;['7'];1040.2742851000512;None;0.7307493999833241;[0.4776298999786377];;;;;;;Emoconpilot029;2021_Nov_02_1439;BackwardMask;2020.2.8;119.80567511000827;
;m;013_y_m_n_a.jpg;neutral;8;28;f;028_y_f_n_a.jpg;neutral;congruent;8;mismatch;;140;170;;1;238;block2_Pilot_2;13;n_n;n_n_weak;;;;;0;1;1;1;0;28;28;28;;;;;;;;;1043.2744760999922;None;1045.2761256999802;1045.5666603000136;1045.5666603000136;1045.574367400026;1045.574367400026;1045.6152423999738;1045.6152423999738;None;None;0;1045.6152423999738;None;1047.1152796000242;None;"['7', '9']";1047.1152796000242;None;;"[0.05277509998995811, 0.4688616000348702]";;;;;;;Emoconpilot029;2021_Nov_02_1439;BackwardMask;2020.2.8;119.80567511000827;
;f;030_o_f_s_a.jpg;sad;7;33;m;033_o_m_h_a.jpg;happy;incongruent;9;mismatch;;130;150;;3;168;block2_Pilot_2;30;s_h;s_h_weak;;;;;0;1;1;1;0;29;29;29;;;;;;;;;1050.116092500044;None;1051.5340641000075;1051.825105200056;1051.825105200056;1051.8495268999832;1051.8495268999832;1051.8903286000714;1051.8903286000714;None;8;0;1051.8903286000714;None;1053.3904556999914;None;['9'];1053.3904556999914;None;0.6215784999076277;[0.5856872000731528];;;;;;;Emoconpilot029;2021_Nov_02_1439;BackwardMask;2020.2.8;119.80567511000827;
;m;008_y_m_n_a.jpg;neutral;8;12;f;012_o_f_n_a.jpg;neutral;congruent;8;mismatch;;140;170;;18;208;block2_Pilot_2;8;n_n;n_n_weak;;;;;0;1;1;1;0;30;30;30;;;;;;;;;1056.3904459000332;None;1058.1426986000733;1058.433517800062;1058.433517800062;1058.5831044000806;1058.5831044000806;1058.6239919000072;1058.6239919000072;None;8;1;1058.6239919000072;None;1060.1239102000836;None;['7'];1060.1239102000836;None;0.5920795999700204;[0.5322519999463111];;;;;;;Emoconpilot029;2021_Nov_02_1439;BackwardMask;2020.2.8;119.80567511000827;
;m;008_y_m_s_a.jpg;sad;7;4;m;004_o_m_n_a.jpg;neutral;incongruent;8;match;;130;170;;2;231;block2_Pilot_2;8;s_n;s_n_weak;;;;;0;1;1;1;0;31;31;31;;;;;;;;;1063.124874799978;None;1065.067473000032;1065.3589606999885;1065.3589606999885;1065.3748042000225;1065.3748042000225;1065.415613600053;1065.415613600053;None;None;0;1065.415613600053;None;1066.9158520000055;None;"['9', '9']";1066.9158520000055;None;;"[0.7082797000184655, 0.9802497000200674]";;;;;;;Emoconpilot029;2021_Nov_02_1439;BackwardMask;2020.2.8;119.80567511000827;
;m;016_y_m_n_a.jpg;neutral;8;28;f;028_y_f_n_a.jpg;neutral;congruent;8;mismatch;;140;170;;2;218;block2_Pilot_2;16;n_n;n_n_weak;;;;;0;1;1;1;0;32;32;32;;;;;;;;;1069.9167479000753;None;1071.7512719000224;1072.0421926000854;1072.0421926000854;1072.0582735000644;1072.0582735000644;1072.09913029999;1072.09913029999;None;None;0;1072.09913029999;None;1073.5992603000486;None;['9'];1073.5992603000486;None;;[0.19281599996611476];;;;;;;Emoconpilot029;2021_Nov_02_1439;BackwardMask;2020.2.8;119.80567511000827;
;m;033_o_m_n_a.jpg;neutral;8;33;m;033_o_m_s_a.jpg;sad;incongruent;7;match;;140;160;;3;141;block2_Pilot_2;33;n_s;n_s_weak;;;;;0;1;1;1;0;33;33;33;;;;;;;;;1076.5998188999947;None;1077.7933054000605;1078.0840072000865;1078.0840072000865;1078.1084092999808;1078.1084092999808;1078.1492595999734;1078.1492595999734;None;8;0;1078.1492595999734;None;1079.649258700083;None;['7'];1079.649258700083;None;0.6348176999017596;[0.28664179996121675];;;;;;;Emoconpilot029;2021_Nov_02_1439;BackwardMask;2020.2.8;119.80567511000827;
;m;016_y_m_n_a.jpg;neutral;8;13;m;013_y_m_s_a.jpg;sad;incongruent;7;match;;140;160;;1;238;block2_Pilot_2;16;n_s;n_s_weak;;;;;0;1;1;1;0;34;34;34;;;;;;;;;1082.649891500012;None;1084.652305399999;1084.9425442999927;1084.9425442999927;1084.9503299000207;1084.9503299000207;1084.991020900081;1084.991020900081;None;8;0;1084.991020900081;None;1086.4910685999785;None;['9'];1086.4910685999785;None;0.8731148999650031;[0.33317019999958575];;;;;;;Emoconpilot029;2021_Nov_02_1439;BackwardMask;2020.2.8;119.80567511000827;
;f;030_o_f_h_a.jpg;happy;9;12;f;012_o_f_n_a.jpg;neutral;incongruent;8;match;;120;170;;3;190;block2_Pilot_2;30;h_n;h_n_weak;;;;;0;1;1;1;0;35;35;35;;;;;;;;;1089.491281600087;None;1091.093939500046;1091.3841649000533;1091.3841649000533;1091.4086632999824;1091.4086632999824;1091.4496350000845;1091.4496350000845;None;9;0;1091.4496350000845;None;1092.9496236999985;None;['7'];1092.9496236999985;None;0.5105332999955863;[0.26651159999892116];;;;;;;Emoconpilot029;2021_Nov_02_1439;BackwardMask;2020.2.8;119.80567511000827;
;f;030_o_f_s_a.jpg;sad;7;12;f;012_o_f_n_a.jpg;neutral;incongruent;8;match;;130;170;;3;197;block2_Pilot_2;30;s_n;s_n_strong;;;;;0;1;1;1;0;36;36;36;;;;;;;;;1095.9497894999804;None;1097.6102400000673;1097.9011034000432;1097.9011034000432;1097.925385700073;1097.925385700073;1097.9664509000722;1097.9664509000722;None;9;0;1097.9664509000722;None;1099.466372200055;None;['7'];1099.466372200055;None;0.6176417999668047;[0.6697421999415383];;;;;;;Emoconpilot029;2021_Nov_02_1439;BackwardMask;2020.2.8;119.80567511000827;
;m;004_o_m_s_a.jpg;sad;7;8;m;008_y_m_h_a.jpg;happy;incongruent;9;match;;130;150;;3;201;block2_Pilot_2;4;s_h;s_h_strong;;;;;0;1;1;1;0;37;37;37;;;;;;;;;1102.4665931999916;None;1104.1491556999972;1104.4423240000615;1104.4423240000615;1104.4674845000263;1104.4674845000263;1104.508109800052;1104.508109800052;None;None;0;1104.508109800052;None;1106.0082307000412;None;['9'];1106.0082307000412;None;;[2.2717058999696746];;;;;;;Emoconpilot029;2021_Nov_02_1439;BackwardMask;2020.2.8;119.80567511000827;
;f;040_y_f_n_a.jpg;neutral;8;16;m;016_y_m_n_a.jpg;neutral;congruent;8;mismatch;;140;170;;3;198;block2_Pilot_2;40;n_n;n_n_strong;;;;;0;1;1;1;0;38;38;38;;;;;;;;;1109.0089697000803;None;1110.6942640000489;1110.9847123000072;1110.9847123000072;1111.0091591000091;1111.0091591000091;1111.0500639000675;1111.0500639000675;None;8;1;1111.0500639000675;None;1112.5500090999994;None;['7'];1112.5500090999994;None;0.9101184000028297;[1.2102235000347719];;;;;;;Emoconpilot029;2021_Nov_02_1439;BackwardMask;2020.2.8;119.80567511000827;
;m;027_o_m_n_a.jpg;neutral;8;16;m;016_y_m_s_a.jpg;sad;incongruent;7;match;;140;160;;1;238;block2_Pilot_2;27;n_s;n_s_strong;;;;;0;1;1;1;0;39;39;39;;;;;;;;;1115.5509081999771;None;1117.5529835000634;1117.843311100034;1117.843311100034;1117.8508630000288;1117.8508630000288;1117.8918862000573;1117.8918862000573;None;8;0;1117.8918862000573;None;1119.3917580000125;None;['9'];1119.3917580000125;None;0.7881702999584377;[1.4723258999874815];;;;;;;Emoconpilot029;2021_Nov_02_1439;BackwardMask;2020.2.8;119.80567511000827;
;m;033_o_m_n_a.jpg;neutral;8;40;f;040_y_f_h_a.jpg;happy;incongruent;9;mismatch;;140;150;;2;137;block2_Pilot_2;33;n_h;n_h_strong;;;;;0;1;1;1;0;40;40;40;;;;;;;;;1122.3920967000304;None;1123.5529256000882;1123.8433374000015;1123.8433374000015;1123.8594685000135;1123.8594685000135;1123.900052800076;1123.900052800076;None;8;0;1123.900052800076;None;1125.4001455000835;None;['9'];1125.4001455000835;None;0.6519460999406874;[0.5519995999056846];;;;;;;Emoconpilot029;2021_Nov_02_1439;BackwardMask;2020.2.8;119.80567511000827;
;m;004_o_m_s_a.jpg;sad;7;8;m;008_y_m_h_a.jpg;happy;incongruent;9;match;;130;150;;18;193;block2_Pilot_2;4;s_h;s_h_strong;;;;;0;1;1;1;0;41;41;41;;;;;;;;;1128.401253500022;None;1130.0170448999852;1130.309727700078;1130.309727700078;1130.459368800046;1130.459368800046;1130.500314300065;1130.500314300065;None;7;0;1130.500314300065;None;1132.0005494999932;None;['7'];1132.0005494999932;None;0.6278165999101475;[0.24760320002678782];;;;;;;Emoconpilot029;2021_Nov_02_1439;BackwardMask;2020.2.8;119.80567511000827;
;f;012_o_f_h_a.jpg;happy;9;4;m;004_o_m_s_a.jpg;sad;incongruent;7;mismatch;;120;160;;3;198;block2_Pilot_2;12;h_s;h_s_weak;;;;;0;1;1;1;0;42;42;42;;;;;;;;;1135.001144799986;None;1136.6582894000458;1136.951549999998;1136.951549999998;1136.9763783999952;1136.9763783999952;1137.0170765999937;1137.0170765999937;None;9;0;1137.0170765999937;None;1138.5172542000655;None;['7'];1138.5172542000655;None;0.4550335000967607;[0.32285230001434684];;;;;;;Emoconpilot029;2021_Nov_02_1439;BackwardMask;2020.2.8;119.80567511000827;
;f;012_o_f_n_a.jpg;neutral;8;8;m;008_y_m_s_a.jpg;sad;incongruent;7;mismatch;;140;160;;1;238;block2_Pilot_2;12;n_s;n_s_strong;;;;;0;1;1;1;0;43;43;43;;;;;;;;;1141.5181238000514;None;1143.5374488000525;1143.827077700058;1143.827077700058;1143.8347044000402;1143.8347044000402;1143.875546000083;1143.875546000083;None;None;0;1143.875546000083;None;1145.3757096000481;None;"['8', '9']";1145.3757096000481;None;;"[0.07238170003984123, 0.552347999997437]";;;;;;;Emoconpilot029;2021_Nov_02_1439;BackwardMask;2020.2.8;119.80567511000827;
;f;040_y_f_n_a.jpg;neutral;8;8;m;008_y_m_n_a.jpg;neutral;congruent;8;mismatch;;140;170;;3;165;block2_Pilot_2;40;n_n;n_n_weak;;;;;0;1;1;1;0;44;44;44;;;;;;;;;1148.3765358000528;None;1149.7710494999774;1150.0604408000363;1150.0604408000363;1150.0848244000226;1150.0848244000226;1150.1257908000844;1150.1257908000844;None;8;1;1150.1257908000844;None;1151.625760700088;None;['7'];1151.625760700088;None;0.6184182999422774;[0.38230299996212125];;;;;;;Emoconpilot029;2021_Nov_02_1439;BackwardMask;2020.2.8;119.80567511000827;
;f;028_y_f_h_a.jpg;happy;9;33;m;033_o_m_n_a.jpg;neutral;incongruent;8;mismatch;;120;170;;1;238;block2_Pilot_2;28;h_n;h_n_strong;;;;;0;1;1;1;0;45;45;45;;;;;;;;;1154.6260005000513;None;1156.6198764999863;1156.9102731000166;1156.9102731000166;1156.9183871999849;1156.9183871999849;1156.9591073000338;1156.9591073000338;None;7;0;1156.9591073000338;None;1158.4593067000387;None;['9'];1158.4593067000387;None;1.0250010000308976;[0.3888296999502927];;;;;;;Emoconpilot029;2021_Nov_02_1439;BackwardMask;2020.2.8;119.80567511000827;
;m;027_o_m_s_a.jpg;sad;7;19;f;019_m_f_n_a.jpg;neutral;incongruent;8;mismatch;;130;170;;2;236;block2_Pilot_2;27;s_n;s_n_weak;;;;;0;1;1;1;0;46;46;46;;;;;;;;;1161.459432200063;None;1163.434020500048;1163.7270457000704;1163.7270457000704;1163.7435061000288;1163.7435061000288;1163.7843611000571;1163.7843611000571;None;7;0;1163.7843611000571;None;1165.2844339000294;None;['8'];1165.2844339000294;None;1.2237648000009358;[0.9156403000233695];;;;;;;Emoconpilot029;2021_Nov_02_1439;BackwardMask;2020.2.8;119.80567511000827;
;m;027_o_m_h_a.jpg;happy;9;19;f;019_m_f_s_a.jpg;sad;incongruent;7;mismatch;;120;160;;1;238;block2_Pilot_2;27;h_s;h_s_strong;;;;;0;1;1;1;0;47;47;47;;;;;;;;;1168.285331799998;None;1170.297463200055;1170.594152100035;1170.594152100035;1170.601745699998;1170.601745699998;1170.642981300014;1170.642981300014;None;8;0;1170.642981300014;None;1172.1427388000302;None;['9'];1172.1427388000302;None;1.469187100068666;[0.6893257000483572];;;;;;;Emoconpilot029;2021_Nov_02_1439;BackwardMask;2020.2.8;119.80567511000827;
;m;016_y_m_h_a.jpg;happy;9;4;m;004_o_m_s_a.jpg;sad;incongruent;7;match;;120;160;;3;227;block2_Pilot_2;16;h_s;h_s_strong;;;;;0;1;1;1;0;48;48;48;;;;;;;;;1175.1429836000316;None;1177.0427289999789;1177.3356189000187;1177.3356189000187;1177.3607396000298;1177.3607396000298;1177.4012958999956;1177.4012958999956;None;9;0;1177.4012958999956;None;1178.901386499987;None;['7'];1178.901386499987;None;0.8707928999792784;[1.2187688000267372];;;;;;;Emoconpilot029;2021_Nov_02_1439;BackwardMask;2020.2.8;119.80567511000827;
;f;040_y_f_h_a.jpg;happy;9;13;m;013_y_m_h_a.jpg;happy;congruent;9;mismatch;;120;150;;3;165;block2_Pilot_2;40;h_h;h_h_strong;;;;;0;1;1;1;0;49;49;49;;;;;;;;;1181.9022434999933;None;1183.2846001000144;1183.5773886999814;1183.5773886999814;1183.6022213000106;1183.6022213000106;1183.6430284000235;1183.6430284000235;None;9;1;1183.6430284000235;None;1185.1434117000317;None;['7'];1185.1434117000317;None;0.7410249999957159;[0.45671800000127405];;;;;;;Emoconpilot029;2021_Nov_02_1439;BackwardMask;2020.2.8;119.80567511000827;
;m;033_o_m_s_a.jpg;sad;7;28;f;028_y_f_n_a.jpg;neutral;incongruent;8;mismatch;;130;170;;2;227;block2_Pilot_2;33;s_n;s_n_weak;;;;;0;1;1;1;0;50;50;50;;;;;;;;;1188.143989300006;None;1190.0425538000418;1190.335821500048;1190.335821500048;1190.3521833000705;1190.3521833000705;1190.3932066999841;1190.3932066999841;None;8;1;1190.3932066999841;None;1191.8933142999886;None;['8'];1191.8933142999886;None;0.6229567000409588;[0.27485749998595566];;;;;;;Emoconpilot029;2021_Nov_02_1439;BackwardMask;2020.2.8;119.80567511000827;
;f;019_m_f_s_a.jpg;sad;7;27;m;027_o_m_h_a.jpg;happy;incongruent;9;mismatch;;130;150;;1;238;block2_Pilot_2;19;s_h;s_h_weak;;;;;0;1;1;1;0;51;51;51;;;;;;;;;1194.8941798000596;None;1196.9017100000056;1197.1947780000046;1197.1947780000046;1197.202575400006;1197.202575400006;1197.2434019000502;1197.2434019000502;None;7;0;1197.2434019000502;None;1198.74395620008;None;['9'];1198.74395620008;None;1.1487359999446198;[0.25619169999845326];;;;;;;Emoconpilot029;2021_Nov_02_1439;BackwardMask;2020.2.8;119.80567511000827;
;m;016_y_m_h_a.jpg;happy;9;19;f;019_m_f_n_a.jpg;neutral;incongruent;8;mismatch;;120;170;;18;238;block2_Pilot_2;16;h_n;h_n_strong;;;;;0;1;1;1;0;52;52;52;;;;;;;;;1201.7448017999995;None;1203.7350909999805;1204.0278432000196;1204.0278432000196;1204.177710600081;1204.177710600081;1204.218513000058;1204.218513000058;None;9;0;1204.218513000058;None;1205.7187366000144;None;['7'];1205.7187366000144;None;0.4214505000272766;[0.32123970007523894];;;;;;;Emoconpilot029;2021_Nov_02_1439;BackwardMask;2020.2.8;119.80567511000827;
;f;021_o_f_s_a.jpg;sad;7;8;m;008_y_m_n_a.jpg;neutral;incongruent;8;mismatch;;130;170;;1;238;block2_Pilot_2;21;s_n;s_n_strong;;;;;0;1;1;1;0;53;53;53;;;;;;;;;1208.7194637000794;None;1210.7073880999815;1211.002954000025;1211.002954000025;1211.0111161000095;1211.0111161000095;1211.0521143000806;1211.0521143000806;None;8;1;1211.0521143000806;None;1212.552140600048;None;['9'];1212.552140600048;None;0.6120492999907583;[0.4559267000295222];;;;;;;Emoconpilot029;2021_Nov_02_1439;BackwardMask;2020.2.8;119.80567511000827;
;f;012_o_f_s_a.jpg;sad;7;33;m;033_o_m_s_a.jpg;sad;congruent;7;mismatch;;130;160;;2;148;block2_Pilot_2;12;s_s;s_s_weak;;;;;0;1;1;1;0;54;54;54;;;;;;;;;1215.5521875000559;None;1216.7884010000853;1217.0863677000161;1217.0863677000161;1217.1028909999877;1217.1028909999877;1217.1439136000117;1217.1439136000117;None;7;1;1217.1439136000117;None;1218.6438902000664;None;['9'];1218.6438902000664;None;0.9601256999885663;[0.5562581999693066];;;;;;;Emoconpilot029;2021_Nov_02_1439;BackwardMask;2020.2.8;119.80567511000827;
;f;030_o_f_s_a.jpg;sad;7;40;f;040_y_f_s_a.jpg;sad;congruent;7;match;;130;160;;3;136;block2_Pilot_2;30;s_s;s_s_strong;;;;;0;1;1;1;0;55;55;55;;;;;;;;;1221.645053800079;None;1222.8012406000635;1223.0954172000056;1223.0954172000056;1223.1196743000764;1223.1196743000764;1223.1605787000153;1223.1605787000153;None;9;0;1223.1605787000153;None;1224.6607031000312;None;['8'];1224.6607031000312;None;0.9834140000166371;[0.6994130000239238];;;;;;;Emoconpilot029;2021_Nov_02_1439;BackwardMask;2020.2.8;119.80567511000827;
;m;027_o_m_s_a.jpg;sad;7;28;f;028_y_f_h_a.jpg;happy;incongruent;9;mismatch;;130;150;;1;238;block2_Pilot_2;27;s_h;s_h_weak;;;;;0;1;1;1;0;56;56;56;;;;;;;;;1227.6607852000743;None;1229.652158800047;1229.9450579000404;1229.9450579000404;1229.9531667000847;1229.9531667000847;1229.9940608000616;1229.9940608000616;None;7;0;1229.9940608000616;None;1231.4940408000257;None;['9'];1231.4940408000257;None;1.2299645999446511;[1.0581844999687746];;;;;;;Emoconpilot029;2021_Nov_02_1439;BackwardMask;2020.2.8;119.80567511000827;
;m;004_o_m_n_a.jpg;neutral;8;8;m;008_y_m_s_a.jpg;sad;incongruent;7;match;;140;160;;3;225;block2_Pilot_2;4;n_s;n_s_strong;;;;;0;1;1;1;0;57;57;57;;;;;;;;;1234.4950962000294;None;1236.4041776000522;1236.6954608000815;1236.6954608000815;1236.720012200065;1236.720012200065;1236.7608122000238;1236.7608122000238;None;8;0;1236.7608122000238;None;1238.260958100087;None;['7'];1238.260958100087;None;0.775145799969323;[1.2110169999068603];;;;;;;Emoconpilot029;2021_Nov_02_1439;BackwardMask;2020.2.8;119.80567511000827;
;f;012_o_f_s_a.jpg;sad;7;40;f;040_y_f_s_a.jpg;sad;congruent;7;match;;130;160;;1;238;block2_Pilot_2;12;s_s;s_s_strong;;;;;0;1;1;1;0;58;58;58;;;;;;;;;1241.2616175999865;None;1243.2483598000836;1243.54535400006;1243.54535400006;1243.5534806000069;1243.5534806000069;1243.5944907000521;1243.5944907000521;None;8;0;1243.5944907000521;None;1245.0943264000816;None;['9'];1245.0943264000816;None;0.829663599957712;[1.0337179999332875];;;;;;;Emoconpilot029;2021_Nov_02_1439;BackwardMask;2020.2.8;119.80567511000827;
;f;021_o_f_h_a.jpg;happy;9;4;m;004_o_m_n_a.jpg;neutral;incongruent;8;mismatch;;120;170;;1;238;block2_Pilot_2;21;h_n;h_n_weak;;;;;0;1;1;1;0;59;59;59;;;;;;;;;1248.095463500009;None;1250.098733699997;1250.3875798999798;1250.3875798999798;1250.3952829000773;1250.3952829000773;1250.4363046999788;1250.4363046999788;None;8;1;1250.4363046999788;None;1251.9365146000637;None;['9'];1251.9365146000637;None;1.4757912000641227;[0.5033919999841601];;;;;;;Emoconpilot029;2021_Nov_02_1439;BackwardMask;2020.2.8;119.80567511000827;
;f;040_y_f_h_a.jpg;happy;9;16;m;016_y_m_n_a.jpg;neutral;incongruent;8;mismatch;;120;170;;2;154;block2_Pilot_2;40;h_n;h_n_weak;;;;;0;1;1;1;0;60;60;60;;;;;;;;;1254.9369802;None;1256.2287649000064;1256.5206650000764;1256.5206650000764;1256.5372218000703;1256.5372218000703;1256.5779322000453;1256.5779322000453;None;9;0;1256.5779322000453;None;1258.0780782999936;None;['8'];1258.0780782999936;None;0.9661630999762565;[0.2741030000615865];;;;;;;Emoconpilot029;2021_Nov_02_1439;BackwardMask;2020.2.8;119.80567511000827;
;m;008_y_m_n_a.jpg;neutral;8;4;m;004_o_m_s_a.jpg;sad;incongruent;7;match;;140;160;;18;145;block2_Pilot_2;8;n_s;n_s_strong;;;;;0;1;1;1;0;61;61;61;;;;;;;;;1261.0788681000704;None;1262.3200528000016;1262.6126550000627;1262.6126550000627;1262.7623020000756;1262.7623020000756;1262.8029168000212;1262.8029168000212;None;8;0;1262.8029168000212;None;1264.3037262000144;None;['7'];1264.3037262000144;None;0.4451882999856025;[0.5605816000606865];;;;;;;Emoconpilot029;2021_Nov_02_1439;BackwardMask;2020.2.8;119.80567511000827;
;f;021_o_f_s_a.jpg;sad;7;33;m;033_o_m_h_a.jpg;happy;incongruent;9;mismatch;;130;150;;1;238;block2_Pilot_2;21;s_h;s_h_strong;;;;;0;1;1;1;0;62;62;62;;;;;;;;;1267.3037862000056;None;1269.2922705999808;1269.5876331999898;1269.5876331999898;1269.5956893999828;1269.5956893999828;1269.636474900064;1269.636474900064;None;7;0;1269.636474900064;None;1271.136634399998;None;['9'];1271.136634399998;None;1.3794867999386042;[0.7115424000658095];;;;;;;Emoconpilot029;2021_Nov_02_1439;BackwardMask;2020.2.8;119.80567511000827;
;m;033_o_m_n_a.jpg;neutral;8;30;f;030_o_f_h_a.jpg;happy;incongruent;9;mismatch;;140;150;;18;171;block2_Pilot_2;33;n_h;n_h_weak;;;;;0;1;1;1;0;63;63;63;;;;;;;;;1274.1376860999735;None;1275.5830934999976;1275.879778200062;1275.879778200062;1276.0292570000747;1276.0292570000747;1276.0701027000323;1276.0701027000323;None;8;0;1276.0701027000323;None;1277.5700872000307;None;['7'];1277.5700872000307;None;0.4418356999522075;[0.341985399951227];;;;;;;Emoconpilot029;2021_Nov_02_1439;BackwardMask;2020.2.8;119.80567511000827;
;m;027_o_m_n_a.jpg;neutral;8;27;m;027_o_m_h_a.jpg;happy;incongruent;9;match;;140;150;;2;164;block2_Pilot_2;27;n_h;n_h_weak;;;;;0;1;1;1;0;64;64;64;;;;;;;;;1280.5710878000828;None;1281.9557924000546;1282.2464682999998;1282.2464682999998;1282.262562100077;1282.262562100077;1282.3034712000517;1282.3034712000517;None;8;0;1282.3034712000517;None;1283.804076600005;None;['9'];1283.804076600005;None;1.0406465999549255;[0.6600157000357285];;;;;;;Emoconpilot029;2021_Nov_02_1439;BackwardMask;2020.2.8;119.80567511000827;
;m;008_y_m_n_a.jpg;neutral;8;40;f;040_y_f_n_a.jpg;neutral;congruent;8;mismatch;;140;170;;1;238;block2_Pilot_2;8;n_n;n_n_strong;;;;;0;1;1;1;0;65;65;65;;;;;;;;;1286.8044909000164;None;1288.806005200022;1289.0966645000735;1289.0966645000735;1289.1043667000486;1289.1043667000486;1289.1451770000858;1289.1451770000858;None;8;1;1289.1451770000858;None;1290.6452305000275;None;['8'];1290.6452305000275;None;0.7988821999169886;[0.21883100003469735];;;;;;;Emoconpilot029;2021_Nov_02_1439;BackwardMask;2020.2.8;119.80567511000827;
;f;040_y_f_h_a.jpg;happy;9;21;f;021_o_f_n_a.jpg;neutral;incongruent;8;match;;120;170;;18;239;block2_Pilot_2;40;h_n;h_n_strong;;;;;0;1;1;1;0;66;66;66;;;;;;;;;1293.6454161000438;None;1295.6456438000314;1295.9383105000015;1295.9383105000015;1296.0879983999766;1296.0879983999766;1296.128728599986;1296.128728599986;None;9;0;1296.128728599986;None;1297.6286950000795;None;['7'];1297.6286950000795;None;0.4873192000668496;[0.5632134999614209];;;;;;;Emoconpilot029;2021_Nov_02_1439;BackwardMask;2020.2.8;119.80567511000827;
;f;021_o_f_s_a.jpg;sad;7;28;f;028_y_f_h_a.jpg;happy;incongruent;9;match;;130;150;;1;238;block2_Pilot_2;21;s_h;s_h_weak;;;;;0;1;1;1;0;67;67;67;;;;;;;;;1300.6296701000538;None;1302.6185223000357;1302.9131069000578;1302.9131069000578;1302.9215415000217;1302.9215415000217;1302.9620560000185;1302.9620560000185;None;8;0;1302.9620560000185;None;1304.462112899986;None;None;1304.462112899986;None;0.6378646000521258;;;;;;;;Emoconpilot029;2021_Nov_02_1439;BackwardMask;2020.2.8;119.80567511000827;
;f;021_o_f_n_a.jpg;neutral;8;30;f;030_o_f_n_a.jpg;neutral;congruent;8;match;;140;170;;2;209;block2_Pilot_2;21;n_n;n_n_strong;;;;;0;1;1;1;0;68;68;68;;;;;;;;;1307.4624436000595;None;1309.2756857000059;1309.5720734000206;1309.5720734000206;1309.5882151999976;1309.5882151999976;1309.6289353000466;1309.6289353000466;None;8;1;1309.6289353000466;None;1311.1292416000506;None;['8'];1311.1292416000506;None;0.8350778999738395;[1.2626924000214785];;;;;;;Emoconpilot029;2021_Nov_02_1439;BackwardMask;2020.2.8;119.80567511000827;
