Person;primeGender;prime;primeEmotion;corrAnsPrime;targetPerson;targetGender;target;targetEmotion;Cond;corrAnsTar;gender;condition;ID_primer;ID_target;PrimerTime;PrimerTime120;JitterTime;conditionsFile;primePerson;emotion_condition;Condition;example.thisRepN;example.thisTrialN;example.thisN;example.thisIndex;readinBlocks.thisRepN;readinBlocks.thisTrialN;readinBlocks.thisN;readinBlocks.thisIndex;trials.thisRepN;trials.thisTrialN;trials.thisN;trials.thisIndex;text_intro.started;text_intro.stopped;text_probe.started;text_probe.stopped;key_resp_2.keys;key_resp_2.rt;key_resp_2.started;key_resp_2.stopped;polygon_ISI.started;polygon_ISI.stopped;polygon.started;polygon.stopped;primerImage.started;primerImage.stopped;maskImage.started;maskImage.stopped;response.started;response.stopped;key_resp.keys;key_resp.corr;key_resp.started;key_resp.stopped;text.started;text.stopped;key_resp_Rating.keys;key_resp_Rating.rt;key_resp_Rating.started;key_resp_Rating.stopped;key_resp.rt;text_start.started;text_start.stopped;text_pause.started;text_pause.stopped;participant;date;expName;psychopyVersion;frameRate;
;;;;;;;;;;;;;;;;;;;;;;;;;;;;;;;;;;41.86326440004632;46.83156800013967;46.83156800013967;None;7;12.838612500112504;41.86326440004632;None;;;;;;;;;;;;;;;;;;;;;;;;;;Emoconpilot036;2021_Nov_10_1254;BackwardMask;2020.2.8;120.24780677529289;
2;f;1113_y_f_s_a.jpg;sad;7;1;m;1111_m_m_h_a.jpg;happy;incongruent;9;mix;s+h;130;150;1;2;148;;;;;0;0;0;0;;;;;;;;;;;;;;;;;54.73422190011479;None;55.97849220014177;56.292707700049505;56.292707700049505;56.31133419997059;56.31133419997059;56.34699400002137;56.34699400002137;None;None;0;56.34699400002137;None;57.84851979999803;None;['9'];[2.109607300022617];57.84851979999803;None;;;;;;Emoconpilot036;2021_Nov_10_1254;BackwardMask;2020.2.8;120.24780677529289;
2;f;1111_m_m_h_a.jpg;happy;9;3;f;1113_y_f_s_a.jpg;sad;incongruent;7;mix;h+s;120;160;9;18;195;;;;;0;1;1;1;;;;;;;;;;;;;;;;;60.84810489998199;None;62.49113179999404;62.7819540000055;62.7819540000055;62.93144199997187;62.93144199997187;62.97224480006844;62.97224480006844;None;9;0;62.97224480006844;None;64.47227889997885;None;['7'];[1.205860699992627];64.47227889997885;None;0.8418214998673648;;;;;Emoconpilot036;2021_Nov_10_1254;BackwardMask;2020.2.8;120.24780677529289;
2;f;1112_m_f_n_a.jpg;neutral;8;2;f;1112_m_f_n_a.jpg;neutral;congruent;8;match;n+n;140;170;9;18;134;;;;;0;2;2;2;;;;;;;;;;;;;;;;;67.472597300075;None;68.60834689997137;68.89869080018252;68.89869080018252;69.04831059998833;69.04831059998833;69.08913440001197;69.08913440001197;None;8;1;69.08913440001197;None;70.5891434000805;None;['7'];[0.7609119999688119];70.5891434000805;None;0.5409540999680758;;;;;Emoconpilot036;2021_Nov_10_1254;BackwardMask;2020.2.8;120.24780677529289;
;m;033_o_m_h_a.jpg;happy;9;30;f;030_o_f_n_a.jpg;neutral;incongruent;8;mismatch;;120;170;;18;238;block1_Pilot_2;33;h_n;h_n_strong;;;;;0;0;0;0;0;0;0;0;;;;;;;;;74.62146309996024;None;76.6106053001713;76.90676559996791;76.90676559996791;77.05672070011497;77.05672070011497;77.09753350005485;77.09753350005485;None;9;0;77.09753350005485;None;78.59851950011216;None;['7'];[0.44749819999560714];78.59851950011216;None;0.5883539998903871;73.58973190002143;None;None;None;Emoconpilot036;2021_Nov_10_1254;BackwardMask;2020.2.8;120.24780677529289;
;m;004_o_m_h_a.jpg;happy;9;12;f;012_o_f_h_a.jpg;happy;congruent;9;mismatch;;120;150;;2;218;block1_Pilot_2;4;h_h;h_h_weak;;;;;0;0;0;0;0;1;1;1;;;;;;;;;81.59790090005845;None;83.43554750015028;83.72402680013329;83.72402680013329;83.74000720004551;83.74000720004551;83.78094150009565;83.78094150009565;None;None;0;83.78094150009565;None;85.28092320007272;None;['9'];[0.5091305000241846];85.28092320007272;None;;;;;;Emoconpilot036;2021_Nov_10_1254;BackwardMask;2020.2.8;120.24780677529289;
;f;012_o_f_h_a.jpg;happy;9;33;m;033_o_m_h_a.jpg;happy;congruent;9;mismatch;;120;150;;2;140;block1_Pilot_2;12;h_h;h_h_weak;;;;;0;0;0;0;0;2;2;2;;;;;;;;;88.28100650012493;None;89.45645200018771;89.7486417000182;89.7486417000182;89.76526590017602;89.76526590017602;89.80608600005507;89.80608600005507;None;9;1;89.80608600005507;None;91.30676960013807;None;['8'];[0.5311704000923783];91.30676960013807;None;0.8480208998080343;;;;;Emoconpilot036;2021_Nov_10_1254;BackwardMask;2020.2.8;120.24780677529289;
;f;040_y_f_n_a.jpg;neutral;8;40;f;040_y_f_h_a.jpg;happy;incongruent;9;match;;140;150;;2;192;block1_Pilot_2;40;n_h;n_h_weak;;;;;0;0;0;0;0;3;3;3;;;;;;;;;94.3061933000572;None;95.92794440011494;96.22434139996767;96.22434139996767;96.24045390007086;96.24045390007086;96.2813605000265;96.2813605000265;None;8;0;96.2813605000265;None;97.78132320009172;None;['8'];[0.8728053001686931];97.78132320009172;None;0.9807855000253767;;;;;Emoconpilot036;2021_Nov_10_1254;BackwardMask;2020.2.8;120.24780677529289;
;m;013_y_m_s_a.jpg;sad;7;16;m;016_y_m_n_a.jpg;neutral;incongruent;8;match;;130;170;;3;155;block1_Pilot_2;13;s_n;s_n_weak;;;;;0;0;0;0;0;4;4;4;;;;;;;;;100.78204359998927;None;102.08104160008952;102.37401779997163;102.37401779997163;102.39887859998271;102.39887859998271;102.43988600000739;102.43988600000739;None;7;0;102.43988600000739;None;103.94003130006604;None;['8'];[0.39408989995718];103.94003130006604;None;0.9582374999299645;;;;;Emoconpilot036;2021_Nov_10_1254;BackwardMask;2020.2.8;120.24780677529289;
;f;012_o_f_h_a.jpg;happy;9;21;f;021_o_f_h_a.jpg;happy;congruent;9;match;;120;150;;2;216;block1_Pilot_2;12;h_h;h_h_strong;;;;;0;0;0;0;0;5;5;5;;;;;;;;;106.94092910015024;None;108.74768070015125;109.04080280009657;109.04080280009657;109.05749929999001;109.05749929999001;109.09825769998133;109.09825769998133;None;9;1;109.09825769998133;None;110.59837800008245;None;['8'];[0.24763270001858473];110.59837800008245;None;0.7157962000928819;;;;;Emoconpilot036;2021_Nov_10_1254;BackwardMask;2020.2.8;120.24780677529289;
;f;040_y_f_s_a.jpg;sad;7;40;f;040_y_f_h_a.jpg;happy;incongruent;9;match;;130;150;;1;238;block1_Pilot_2;40;s_h;s_h_weak;;;;;0;0;0;0;0;6;6;6;;;;;;;;;113.59844160010107;None;115.58921730006114;115.88285940000787;115.88285940000787;115.89088240009733;115.89088240009733;115.93164670001715;115.93164670001715;None;None;0;115.93164670001715;None;117.43160140002146;None;['9'];[0.4303985999431461];117.43160140002146;None;;;;;;Emoconpilot036;2021_Nov_10_1254;BackwardMask;2020.2.8;120.24780677529289;
;m;033_o_m_n_a.jpg;neutral;8;27;m;027_o_m_n_a.jpg;neutral;congruent;8;match;;140;170;;18;238;block1_Pilot_2;33;n_n;n_n_weak;;;;;0;0;0;0;0;7;7;7;;;;;;;;;120.43173369998112;None;122.43728479999118;122.73318099998869;122.73318099998869;122.88263780018315;122.88263780018315;122.9235932000447;122.9235932000447;None;8;1;122.9235932000447;None;124.42364230006933;None;['7'];[0.4145344002172351];124.42364230006933;None;0.5545488998759538;;;;;Emoconpilot036;2021_Nov_10_1254;BackwardMask;2020.2.8;120.24780677529289;
;f;040_y_f_h_a.jpg;happy;9;19;f;019_m_f_n_a.jpg;neutral;incongruent;8;match;;120;170;;1;238;block1_Pilot_2;40;h_n;h_n_strong;;;;;0;0;0;0;0;8;8;8;;;;;;;;;127.42352510010824;None;129.41511130006984;129.70782020012848;129.70782020012848;129.71632850007154;129.71632850007154;129.757012499962;129.757012499962;None;None;0;129.757012499962;None;131.25698120007291;None;['9'];[0.38910589995794];131.25698120007291;None;;;;;;Emoconpilot036;2021_Nov_10_1254;BackwardMask;2020.2.8;120.24780677529289;
;m;013_y_m_h_a.jpg;happy;9;12;f;012_o_f_s_a.jpg;sad;incongruent;7;mismatch;;120;160;;3;198;block1_Pilot_2;13;h_s;h_s_weak;;;;;0;0;0;0;0;9;9;9;;;;;;;;;134.25806500017643;None;135.928254700033;136.2166655000765;136.2166655000765;136.24127520015463;136.24127520015463;136.28215960017405;136.28215960017405;None;9;0;136.28215960017405;None;137.78232780005783;None;['7'];[0.3916303999722004];137.78232780005783;None;0.547820599982515;;;;;Emoconpilot036;2021_Nov_10_1254;BackwardMask;2020.2.8;120.24780677529289;
;m;008_y_m_h_a.jpg;happy;9;4;m;004_o_m_n_a.jpg;neutral;incongruent;8;match;;120;170;;18;150;block1_Pilot_2;8;h_n;h_n_strong;;;;;0;0;0;0;0;10;10;10;;;;;;;;;140.78282040008344;None;142.04001060011797;142.3331886001397;142.3331886001397;142.48311080015264;142.48311080015264;142.52395229996182;142.52395229996182;None;9;0;142.52395229996182;None;144.02433110005222;None;['7'];[0.3817245999816805];144.02433110005222;None;0.4661570000462234;;;;;Emoconpilot036;2021_Nov_10_1254;BackwardMask;2020.2.8;120.24780677529289;
;f;019_m_f_h_a.jpg;happy;9;27;m;027_o_m_s_a.jpg;sad;incongruent;7;mismatch;;120;160;;1;238;block1_Pilot_2;19;h_s;h_s_weak;;;;;0;0;0;0;0;11;11;11;;;;;;;;;147.02471700008027;None;149.01565199997276;149.30826630000956;149.30826630000956;149.31651390017942;149.31651390017942;149.3574188000057;149.3574188000057;None;None;0;149.3574188000057;None;150.85759280016646;None;['9'];[0.4444387999828905];150.85759280016646;None;;;;;;Emoconpilot036;2021_Nov_10_1254;BackwardMask;2020.2.8;120.24780677529289;
;m;016_y_m_s_a.jpg;sad;7;4;m;004_o_m_s_a.jpg;sad;congruent;7;match;;130;160;;18;142;block1_Pilot_2;16;s_s;s_s_strong;;;;;0;0;0;0;0;12;12;12;;;;;;;;;153.85818810015917;None;155.04912950005382;155.34178650006652;155.34178650006652;155.49166040006094;155.49166040006094;155.53245549998246;155.53245549998246;None;7;1;155.53245549998246;None;157.03251500008628;None;['7'];[0.39754340006038547];157.03251500008628;None;0.7136258999817073;;;;;Emoconpilot036;2021_Nov_10_1254;BackwardMask;2020.2.8;120.24780677529289;
;f;021_o_f_n_a.jpg;neutral;8;21;f;021_o_f_h_a.jpg;happy;incongruent;9;match;;140;150;;3;171;block1_Pilot_2;21;n_h;n_h_weak;;;;;0;0;0;0;0;13;13;13;;;;;;;;;160.03333710017614;None;161.4784423999954;161.76743240002543;161.76743240002543;161.79175149998628;161.79175149998628;161.83262730017304;161.83262730017304;None;9;1;161.83262730017304;None;163.33289159997366;None;['8'];[0.9130293000489473];163.33289159997366;None;1.2213259998243302;;;;;Emoconpilot036;2021_Nov_10_1254;BackwardMask;2020.2.8;120.24780677529289;
;f;012_o_f_h_a.jpg;happy;9;13;m;013_y_m_h_a.jpg;happy;congruent;9;mismatch;;120;150;;3;213;block1_Pilot_2;12;h_h;h_h_weak;;;;;0;0;0;0;0;14;14;14;;;;;;;;;166.3329090999905;None;168.115831800038;168.40915019996464;168.40915019996464;168.4333801001776;168.4333801001776;168.47450110013597;168.47450110013597;None;9;1;168.47450110013597;None;169.97455910011195;None;['7'];[0.43151569995097816];169.97455910011195;None;0.5076690998394042;;;;;Emoconpilot036;2021_Nov_10_1254;BackwardMask;2020.2.8;120.24780677529289;
;f;021_o_f_s_a.jpg;sad;7;27;m;027_o_m_n_a.jpg;neutral;incongruent;8;mismatch;;130;170;;3;174;block1_Pilot_2;21;s_n;s_n_weak;;;;;0;0;0;0;0;15;15;15;;;;;;;;;172.97545350017026;None;174.4305867999792;174.72568290005438;174.72568290005438;174.75033159996383;174.75033159996383;174.791173200123;174.791173200123;None;None;0;174.791173200123;None;176.29124579997733;None;None;;176.29124579997733;None;;;;;;Emoconpilot036;2021_Nov_10_1254;BackwardMask;2020.2.8;120.24780677529289;
;f;019_m_f_n_a.jpg;neutral;8;19;f;019_m_f_h_a.jpg;happy;incongruent;9;match;;140;150;;3;238;block1_Pilot_2;19;n_h;n_h_weak;;;;;0;0;0;0;0;16;16;16;;;;;;;;;179.29126940015703;None;181.29562990018167;181.58444710006006;181.58444710006006;181.60890110000037;181.60890110000037;181.64977700007148;181.64977700007148;None;8;0;181.64977700007148;None;183.14968080003746;None;['7'];[0.8324555999133736];183.14968080003746;None;0.6762838999275118;;;;;Emoconpilot036;2021_Nov_10_1254;BackwardMask;2020.2.8;120.24780677529289;
;f;028_y_f_n_a.jpg;neutral;8;30;f;030_o_f_s_a.jpg;sad;incongruent;7;match;;140;160;;18;219;block1_Pilot_2;28;n_s;n_s_weak;;;;;0;0;0;0;0;17;17;17;;;;;;;;;186.15059880004264;None;187.99392370018177;188.28442810010165;188.28442810010165;188.43399290018715;188.43399290018715;188.4747597000096;188.4747597000096;None;8;0;188.4747597000096;None;189.9747062001843;None;['7'];[0.27948240004479885];189.9747062001843;None;0.5073082000017166;;;;;Emoconpilot036;2021_Nov_10_1254;BackwardMask;2020.2.8;120.24780677529289;
;m;008_y_m_h_a.jpg;happy;9;8;m;008_y_m_s_a.jpg;sad;incongruent;7;match;;120;160;;3;176;block1_Pilot_2;8;h_s;h_s_weak;;;;;0;0;0;0;0;18;18;18;;;;;;;;;192.9756086000707;None;194.44968449999578;194.7425919000525;194.7425919000525;194.7674496001564;194.7674496001564;194.80831190012395;194.80831190012395;None;9;0;194.80831190012395;None;196.30849560000934;None;['7'];[0.2414707001298666];196.30849560000934;None;0.48572269990108907;;;;;Emoconpilot036;2021_Nov_10_1254;BackwardMask;2020.2.8;120.24780677529289;
;f;019_m_f_h_a.jpg;happy;9;33;m;033_o_m_n_a.jpg;neutral;incongruent;8;mismatch;;120;170;;18;136;block1_Pilot_2;19;h_n;h_n_weak;;;;;0;0;0;0;0;19;19;19;;;;;;;;;199.30914210015908;None;200.449974300107;200.74279440008104;200.74279440008104;200.892703599995;200.892703599995;200.93352940003388;200.93352940003388;None;9;0;200.93352940003388;None;202.43346270010807;None;['7'];[0.444639400113374];202.43346270010807;None;0.31236799992620945;;;;;Emoconpilot036;2021_Nov_10_1254;BackwardMask;2020.2.8;120.24780677529289;
;m;013_y_m_n_a.jpg;neutral;8;12;f;012_o_f_s_a.jpg;sad;incongruent;7;mismatch;;140;160;;2;132;block1_Pilot_2;13;n_s;n_s_strong;;;;;0;0;0;0;0;20;20;20;;;;;;;;;205.43364410009235;None;206.55408710008487;206.8432784001343;206.8432784001343;206.85938589996658;206.85938589996658;206.90018880018033;206.90018880018033;None;8;0;206.90018880018033;None;208.40036240010522;None;['8'];[0.6457340999040753];208.40036240010522;None;0.6178154998924583;;;;;Emoconpilot036;2021_Nov_10_1254;BackwardMask;2020.2.8;120.24780677529289;
;f;040_y_f_s_a.jpg;sad;7;8;m;008_y_m_h_a.jpg;happy;incongruent;9;mismatch;;130;150;;2;175;block1_Pilot_2;40;s_h;s_h_weak;;;;;0;0;0;0;0;21;21;21;;;;;;;;;211.40076230000705;None;212.86597779998556;213.15967190009542;213.15967190009542;213.17606800002977;213.17606800002977;213.21707869996317;213.21707869996317;None;None;0;213.21707869996317;None;214.71703950013034;None;['9'];[0.3611067000310868];214.71703950013034;None;;;;;;Emoconpilot036;2021_Nov_10_1254;BackwardMask;2020.2.8;120.24780677529289;
;m;004_o_m_h_a.jpg;happy;9;40;f;040_y_f_s_a.jpg;sad;incongruent;7;mismatch;;120;160;;2;193;block1_Pilot_2;4;h_s;h_s_weak;;;;;0;0;0;0;0;22;22;22;;;;;;;;;217.71775180008262;None;219.3463630999904;219.635136900004;219.635136900004;219.65130020002834;219.65130020002834;219.69220940000378;219.69220940000378;None;9;0;219.69220940000378;None;221.19220459996723;None;['8'];[0.3978581998962909];221.19220459996723;None;0.6979545999784023;;;;;Emoconpilot036;2021_Nov_10_1254;BackwardMask;2020.2.8;120.24780677529289;
;f;028_y_f_s_a.jpg;sad;7;13;m;013_y_m_n_a.jpg;neutral;incongruent;8;mismatch;;130;170;;2;126;block1_Pilot_2;28;s_n;s_n_weak;;;;;0;0;0;0;0;23;23;23;;;;;;;;;224.19230180000886;None;225.25354319997132;225.5434324000962;225.5434324000962;225.55985780013725;225.55985780013725;225.60060850018635;225.60060850018635;None;None;0;225.60060850018635;None;227.10069540003315;None;['9'];[0.2734072001185268];227.10069540003315;None;;;;;;Emoconpilot036;2021_Nov_10_1254;BackwardMask;2020.2.8;120.24780677529289;
;m;004_o_m_h_a.jpg;happy;9;40;f;040_y_f_n_a.jpg;neutral;incongruent;8;mismatch;;120;170;;3;146;block1_Pilot_2;4;h_n;h_n_strong;;;;;0;0;0;0;0;24;24;24;;;;;;;;;230.10141490004025;None;231.3385217001196;231.6270292000845;231.6270292000845;231.65164549998008;231.65164549998008;231.69230260001495;231.69230260001495;None;9;0;231.69230260001495;None;233.19235799997114;None;['7'];[0.49373069987632334];233.19235799997114;None;0.5457787001505494;;;;;Emoconpilot036;2021_Nov_10_1254;BackwardMask;2020.2.8;120.24780677529289;
;m;008_y_m_s_a.jpg;sad;7;30;f;030_o_f_n_a.jpg;neutral;incongruent;8;mismatch;;130;170;;3;132;block1_Pilot_2;8;s_n;s_n_strong;;;;;0;0;0;0;0;25;25;25;;;;;;;;;236.19400510005653;None;237.31184870004654;237.60243820003234;237.60243820003234;237.6266546000261;237.6266546000261;237.66750610014424;237.66750610014424;None;7;0;237.66750610014424;None;239.16764550004154;None;['7'];[0.6225288000423461];239.16764550004154;None;0.7466541000176221;;;;;Emoconpilot036;2021_Nov_10_1254;BackwardMask;2020.2.8;120.24780677529289;
;f;040_y_f_n_a.jpg;neutral;8;40;f;040_y_f_s_a.jpg;sad;incongruent;7;match;;140;160;;2;123;block1_Pilot_2;40;n_s;n_s_weak;;;;;0;0;0;0;0;26;26;26;;;;;;;;;242.16844090004452;None;243.21185720013455;243.50234450004064;243.50234450004064;243.51846559997648;243.51846559997648;243.55930970003828;243.55930970003828;None;None;0;243.55930970003828;None;245.05919710011221;None;['9'];[0.522880099946633];245.05919710011221;None;;;;;;Emoconpilot036;2021_Nov_10_1254;BackwardMask;2020.2.8;120.24780677529289;
;f;028_y_f_s_a.jpg;sad;7;27;m;027_o_m_s_a.jpg;sad;congruent;7;mismatch;;130;160;;3;159;block1_Pilot_2;28;s_s;s_s_weak;;;;;0;0;0;0;0;27;27;27;;;;;;;;;248.06024789996445;None;249.39638060005382;249.685468000127;249.685468000127;249.7102946001105;249.7102946001105;249.75111080007628;249.75111080007628;None;7;1;249.75111080007628;None;251.2515617001336;None;['8'];[0.48252810002304614];251.2515617001336;None;1.1668090000748634;;;;;Emoconpilot036;2021_Nov_10_1254;BackwardMask;2020.2.8;120.24780677529289;
;f;012_o_f_s_a.jpg;sad;7;27;m;027_o_m_s_a.jpg;sad;congruent;7;mismatch;;130;160;;18;166;block1_Pilot_2;12;s_s;s_s_weak;;;;;0;0;0;0;0;28;28;28;;;;;;;;;254.2521830999758;None;255.6404289000202;255.93552709999494;255.93552709999494;256.08540800004266;256.08540800004266;256.1262229999993;256.1262229999993;None;7;1;256.1262229999993;None;257.6262549001258;None;['7'];[0.6439773000311106];257.6262549001258;None;0.6956865000538528;;;;;Emoconpilot036;2021_Nov_10_1254;BackwardMask;2020.2.8;120.24780677529289;
;f;028_y_f_n_a.jpg;neutral;8;28;f;028_y_f_h_a.jpg;happy;incongruent;9;match;;140;150;;2;186;block1_Pilot_2;28;n_h;n_h_weak;;;;;0;0;0;0;0;29;29;29;;;;;;;;;260.627134000184;None;262.19911719998345;262.4941763000097;262.4941763000097;262.51063690008596;262.51063690008596;262.55140050011687;262.55140050011687;None;8;0;262.55140050011687;None;264.05134520004503;None;['8'];[0.44277639989741147];264.05134520004503;None;0.9826509999111295;;;;;Emoconpilot036;2021_Nov_10_1254;BackwardMask;2020.2.8;120.24780677529289;
;m;027_o_m_n_a.jpg;neutral;8;16;m;016_y_m_n_a.jpg;neutral;congruent;8;match;;140;170;;2;188;block1_Pilot_2;27;n_n;n_n_weak;;;;;0;0;0;0;0;30;30;30;;;;;;;;;267.0519159999676;None;268.6369436001405;268.92796120001003;268.92796120001003;268.9439910000656;268.9439910000656;268.98479090002365;268.98479090002365;None;8;1;268.98479090002365;None;270.48476170003414;None;['8'];[0.6973854000680149];270.48476170003414;None;0.8612776000518352;;;;;Emoconpilot036;2021_Nov_10_1254;BackwardMask;2020.2.8;120.24780677529289;
;f;012_o_f_s_a.jpg;sad;7;13;m;013_y_m_n_a.jpg;neutral;incongruent;8;mismatch;;130;170;;3;162;block1_Pilot_2;12;s_n;s_n_strong;;;;;0;0;0;0;0;31;31;31;;;;;;;;;273.4857624999713;None;274.83895030012354;275.1358678000979;275.1358678000979;275.16077790013514;275.16077790013514;275.2015546001494;275.2015546001494;None;7;0;275.2015546001494;None;276.701801400166;None;['8'];[0.33617680007591844];276.701801400166;None;1.1244980001356453;;;;;Emoconpilot036;2021_Nov_10_1254;BackwardMask;2020.2.8;120.24780677529289;
;f;012_o_f_s_a.jpg;sad;7;16;m;016_y_m_h_a.jpg;happy;incongruent;9;mismatch;;130;150;;1;238;block1_Pilot_2;12;s_h;s_h_strong;;;;;0;0;0;0;0;32;32;32;;;;;;;;;279.7024801000953;None;281.6874716000166;281.98589360015467;281.98589360015467;281.9943085999694;281.9943085999694;282.0351721001789;282.0351721001789;None;None;0;282.0351721001789;None;283.5353596000932;None;['9'];[0.30275120004080236];283.5353596000932;None;;;;;;Emoconpilot036;2021_Nov_10_1254;BackwardMask;2020.2.8;120.24780677529289;
;f;028_y_f_n_a.jpg;neutral;8;21;f;021_o_f_n_a.jpg;neutral;congruent;8;match;;140;170;;3;220;block1_Pilot_2;28;n_n;n_n_weak;;;;;0;0;0;0;0;33;33;33;;;;;;;;;286.53692220011726;None;288.38900290010497;288.6782450999599;288.6782450999599;288.70270270016044;288.70270270016044;288.7435067000333;288.7435067000333;None;8;1;288.7435067000333;None;290.24363630008884;None;['8'];[0.27450890000909567];290.24363630008884;None;0.5746253000106663;;;;;Emoconpilot036;2021_Nov_10_1254;BackwardMask;2020.2.8;120.24780677529289;
;f;040_y_f_h_a.jpg;happy;9;33;m;033_o_m_s_a.jpg;sad;incongruent;7;mismatch;;120;160;;2;194;block1_Pilot_2;40;h_s;h_s_weak;;;;;0;0;0;0;0;34;34;34;;;;;;;;;293.2444356000051;None;294.8681322000921;295.1612378000282;295.1612378000282;295.1779267999809;295.1779267999809;295.21878770017065;295.21878770017065;None;9;0;295.21878770017065;None;296.7186163000297;None;['8'];[0.3434810000471771];296.7186163000297;None;0.6593967000953853;;;;;Emoconpilot036;2021_Nov_10_1254;BackwardMask;2020.2.8;120.24780677529289;
;f;028_y_f_h_a.jpg;happy;9;8;m;008_y_m_n_a.jpg;neutral;incongruent;8;mismatch;;120;170;;3;162;block1_Pilot_2;28;h_n;h_n_weak;;;;;0;0;0;0;0;35;35;35;;;;;;;;;299.71867870003916;None;301.07877430017106;301.369872600073;301.369872600073;301.39485629997216;301.39485629997216;301.43549529998563;301.43549529998563;None;9;0;301.43549529998563;None;302.93560890015215;None;['7'];[0.2542885998263955];302.93560890015215;None;0.44263139995746315;;;;;Emoconpilot036;2021_Nov_10_1254;BackwardMask;2020.2.8;120.24780677529289;
;m;013_y_m_n_a.jpg;neutral;8;27;m;027_o_m_n_a.jpg;neutral;congruent;8;match;;140;170;;2;126;block1_Pilot_2;13;n_n;n_n_strong;;;;;0;0;0;0;0;36;36;36;;;;;;;;;305.93567120004445;None;307.00594960013404;307.29530210001394;307.29530210001394;307.31124740000814;307.31124740000814;307.3523669000715;307.3523669000715;None;8;1;307.3523669000715;None;308.852458300069;None;['8'];[0.2576673000585288];308.852458300069;None;0.7258208999410272;;;;;Emoconpilot036;2021_Nov_10_1254;BackwardMask;2020.2.8;120.24780677529289;
;f;028_y_f_s_a.jpg;sad;7;19;f;019_m_f_n_a.jpg;neutral;incongruent;8;match;;130;170;;2;156;block1_Pilot_2;28;s_n;s_n_strong;;;;;0;0;0;0;0;37;37;37;;;;;;;;;311.85334010003135;None;313.16343090008013;313.45350469998084;313.45350469998084;313.4698592000641;313.4698592000641;313.51072100014426;313.51072100014426;None;8;1;313.51072100014426;None;315.0109588999767;None;['8'];[1.1151928999461234];315.0109588999767;None;0.647435599938035;;;;;Emoconpilot036;2021_Nov_10_1254;BackwardMask;2020.2.8;120.24780677529289;
;m;016_y_m_s_a.jpg;sad;7;19;f;019_m_f_n_a.jpg;neutral;incongruent;8;mismatch;;130;170;;3;138;block1_Pilot_2;16;s_n;s_n_weak;;;;;0;0;0;0;0;38;38;38;;;;;;;;;318.0116693000309;None;319.1688974001445;319.46192630007863;319.46192630007863;319.4866687001195;319.4866687001195;319.527612300124;319.527612300124;None;7;0;319.527612300124;None;321.0276660001837;None;['7'];[0.8984395998995751];321.0276660001837;None;0.8785313998814672;;;;;Emoconpilot036;2021_Nov_10_1254;BackwardMask;2020.2.8;120.24780677529289;
;m;033_o_m_s_a.jpg;sad;7;27;m;027_o_m_n_a.jpg;neutral;incongruent;8;match;;130;170;;3;120;block1_Pilot_2;33;s_n;s_n_strong;;;;;0;0;0;0;0;39;39;39;;;;;;;;;324.02782070008107;None;325.0349974001292;325.32839730009437;325.32839730009437;325.35346919996664;325.35346919996664;325.3943600000348;325.3943600000348;None;8;1;325.3943600000348;None;326.89436170016415;None;['8'];[0.4477979999501258];326.89436170016415;None;1.2435982001479715;;;;;Emoconpilot036;2021_Nov_10_1254;BackwardMask;2020.2.8;120.24780677529289;
;f;040_y_f_s_a.jpg;sad;7;33;m;033_o_m_n_a.jpg;neutral;incongruent;8;mismatch;;130;170;;1;238;block1_Pilot_2;40;s_n;s_n_weak;;;;;0;0;0;0;0;40;40;40;;;;;;;;;329.89524010010064;None;331.8858316000551;332.17876840010285;332.17876840010285;332.1868939001579;332.1868939001579;332.22791859996505;332.22791859996505;None;None;0;332.22791859996505;None;333.7278227000497;None;['9'];[0.3102502999827266];333.7278227000497;None;;;;;;Emoconpilot036;2021_Nov_10_1254;BackwardMask;2020.2.8;120.24780677529289;
;f;021_o_f_n_a.jpg;neutral;8;19;f;019_m_f_s_a.jpg;sad;incongruent;7;match;;140;160;;1;238;block1_Pilot_2;21;n_s;n_s_strong;;;;;0;0;0;0;0;41;41;41;;;;;;;;;336.7288598001469;None;338.7326385001652;339.0294333000202;339.0294333000202;339.03706580004655;339.03706580004655;339.0779842999764;339.0779842999764;None;None;0;339.0779842999764;None;340.57786980015226;None;['9'];[0.4120618000160903];340.57786980015226;None;;;;;;Emoconpilot036;2021_Nov_10_1254;BackwardMask;2020.2.8;120.24780677529289;
;m;033_o_m_h_a.jpg;happy;9;27;m;027_o_m_h_a.jpg;happy;congruent;9;match;;120;150;;3;134;block1_Pilot_2;33;h_h;h_h_weak;;;;;0;0;0;0;0;42;42;42;;;;;;;;;343.57891350006685;None;344.7029789001681;344.99567029997706;344.99567029997706;345.02055100002326;345.02055100002326;345.06139490008354;345.06139490008354;None;9;1;345.06139490008354;None;346.5615880000405;None;['7'];[0.4125961000099778];346.5615880000405;None;0.6085373000241816;;;;;Emoconpilot036;2021_Nov_10_1254;BackwardMask;2020.2.8;120.24780677529289;
;f;040_y_f_s_a.jpg;sad;7;4;m;004_o_m_h_a.jpg;happy;incongruent;9;mismatch;;130;150;;2;225;block1_Pilot_2;40;s_h;s_h_strong;;;;;0;0;0;0;0;43;43;43;;;;;;;;;349.5623197001405;None;351.44474090007134;351.737518500071;351.737518500071;351.75403179996647;351.75403179996647;351.7949240000453;351.7949240000453;None;None;0;351.7949240000453;None;353.29496520012617;None;['9'];[0.34319330006837845];353.29496520012617;None;;;;;;Emoconpilot036;2021_Nov_10_1254;BackwardMask;2020.2.8;120.24780677529289;
;m;027_o_m_s_a.jpg;sad;7;21;f;021_o_f_n_a.jpg;neutral;incongruent;8;mismatch;;130;170;;18;238;block1_Pilot_2;27;s_n;s_n_weak;;;;;0;0;0;0;0;44;44;44;;;;;;;;;356.2951951001305;None;358.2860696001444;358.57947050011717;358.57947050011717;358.72915380005725;358.72915380005725;358.7699300001841;358.7699300001841;None;8;1;358.7699300001841;None;360.2699579000473;None;['7'];[0.8962574999313802];360.2699579000473;None;1.1401394999120384;;;;;Emoconpilot036;2021_Nov_10_1254;BackwardMask;2020.2.8;120.24780677529289;
;m;016_y_m_h_a.jpg;happy;9;16;m;016_y_m_n_a.jpg;neutral;incongruent;8;match;;120;170;;3;202;block1_Pilot_2;16;h_n;h_n_weak;;;;;0;0;0;0;0;45;45;45;;;;;;;;;363.2701378001366;None;364.9616160001606;365.2545078000985;365.2545078000985;365.2793127000332;365.2793127000332;365.32006120006554;365.32006120006554;None;9;0;365.32006120006554;None;366.8202579000499;None;['7'];[0.08172350004315376];366.8202579000499;None;0.574037800077349;;;;;Emoconpilot036;2021_Nov_10_1254;BackwardMask;2020.2.8;120.24780677529289;
;m;033_o_m_h_a.jpg;happy;9;13;m;013_y_m_n_a.jpg;neutral;incongruent;8;match;;120;170;;2;150;block1_Pilot_2;33;h_n;h_n_weak;;;;;0;0;0;0;0;46;46;46;;;;;;;;;369.820235399995;None;371.07685189996846;371.37120470008813;371.37120470008813;371.38772250013426;371.38772250013426;371.42872079997323;371.42872079997323;None;9;0;371.42872079997323;None;372.92880780017003;None;['8'];[0.36536369984969497];372.92880780017003;None;0.7534036000724882;;;;;Emoconpilot036;2021_Nov_10_1254;BackwardMask;2020.2.8;120.24780677529289;
;f;012_o_f_n_a.jpg;neutral;8;16;m;016_y_m_n_a.jpg;neutral;congruent;8;mismatch;;140;170;;1;238;block1_Pilot_2;12;n_n;n_n_strong;;;;;0;0;0;0;0;47;47;47;;;;;;;;;375.9293337999843;None;377.9329421001021;378.22177359997295;378.22177359997295;378.2294052001089;378.2294052001089;378.2702242999803;378.2702242999803;None;None;0;378.2702242999803;None;379.77037949999794;None;['9'];[0.6917582000605762];379.77037949999794;None;;;;;;Emoconpilot036;2021_Nov_10_1254;BackwardMask;2020.2.8;120.24780677529289;
;f;040_y_f_n_a.jpg;neutral;8;30;f;030_o_f_h_a.jpg;happy;incongruent;9;match;;140;150;;2;194;block1_Pilot_2;40;n_h;n_h_strong;;;;;0;0;0;0;0;48;48;48;;;;;;;;;382.77037800010294;None;384.40678029996343;384.69689220003784;384.69689220003784;384.7129639000632;384.7129639000632;384.75383369997144;384.75383369997144;None;8;0;384.75383369997144;None;386.2540478000883;None;['8'];[0.3919136000331491];386.2540478000883;None;0.7642906000837684;;;;;Emoconpilot036;2021_Nov_10_1254;BackwardMask;2020.2.8;120.24780677529289;
;m;013_y_m_n_a.jpg;neutral;8;12;f;012_o_f_s_a.jpg;sad;incongruent;7;mismatch;;140;160;;18;238;block1_Pilot_2;13;n_s;n_s_weak;;;;;0;0;0;0;0;49;49;49;;;;;;;;;389.2543242999818;None;391.2568473999854;391.5468803001568;391.5468803001568;391.69657810009085;391.69657810009085;391.73732100008056;391.73732100008056;None;8;0;391.73732100008056;None;393.2373814000748;None;['7'];[0.2728186999447644];393.2373814000748;None;0.38072129990905523;;;;;Emoconpilot036;2021_Nov_10_1254;BackwardMask;2020.2.8;120.24780677529289;
;f;012_o_f_h_a.jpg;happy;9;12;f;012_o_f_n_a.jpg;neutral;incongruent;8;match;;120;170;;2;125;block1_Pilot_2;12;h_n;h_n_strong;;;;;0;0;0;0;0;50;50;50;;;;;;;;;396.2374567000661;None;397.28750590002164;397.5802464000881;397.5802464000881;397.59666860010475;397.59666860010475;397.6374054001644;397.6374054001644;None;9;0;397.6374054001644;None;399.1376492001582;None;['7'];[0.4365529001224786];399.1376492001582;None;0.46469820011407137;;;;;Emoconpilot036;2021_Nov_10_1254;BackwardMask;2020.2.8;120.24780677529289;
;m;008_y_m_s_a.jpg;sad;7;19;f;019_m_f_s_a.jpg;sad;congruent;7;mismatch;;130;160;;2;202;block1_Pilot_2;8;s_s;s_s_strong;;;;;0;0;0;0;0;51;51;51;;;;;;;;;402.13765859999694;None;403.84110780013725;404.1305772999767;404.1305772999767;404.14685480017215;404.14685480017215;404.18757180008106;404.18757180008106;None;7;1;404.18757180008106;None;405.6875244001858;None;['8'];[0.42269450007006526];405.6875244001858;None;0.8745765001513064;;;;;Emoconpilot036;2021_Nov_10_1254;BackwardMask;2020.2.8;120.24780677529289;
;f;028_y_f_n_a.jpg;neutral;8;12;f;012_o_f_n_a.jpg;neutral;congruent;8;match;;140;170;;2;214;block1_Pilot_2;28;n_n;n_n_strong;;;;;0;0;0;0;0;52;52;52;;;;;;;;;408.6880433000624;None;410.49032540014014;410.780671000015;410.780671000015;410.7969027000945;410.7969027000945;410.8377364000771;410.8377364000771;None;8;1;410.8377364000771;None;412.33788400003687;None;['7'];[0.6842720001004636];412.33788400003687;None;0.6243741000071168;;;;;Emoconpilot036;2021_Nov_10_1254;BackwardMask;2020.2.8;120.24780677529289;
;m;027_o_m_h_a.jpg;happy;9;19;f;019_m_f_h_a.jpg;happy;congruent;9;mismatch;;120;150;;3;165;block1_Pilot_2;27;h_h;h_h_strong;;;;;0;0;0;0;0;53;53;53;;;;;;;;;415.33868070016615;None;416.73375879996456;417.02252750005573;417.02252750005573;417.0471020000987;417.0471020000987;417.0879582001362;417.0879582001362;None;9;1;417.0879582001362;None;418.58797200000845;None;['7'];[0.2500587000977248];418.58797200000845;None;0.5820355999749154;;;;;Emoconpilot036;2021_Nov_10_1254;BackwardMask;2020.2.8;120.24780677529289;
;m;008_y_m_s_a.jpg;sad;7;13;m;013_y_m_h_a.jpg;happy;incongruent;9;match;;130;150;;18;200;block1_Pilot_2;8;s_h;s_h_strong;;;;;0;0;0;0;0;54;54;54;;;;;;;;;421.58903230004944;None;423.27334140008315;423.564366000006;423.564366000006;423.7137853000313;423.7137853000313;423.7546268000733;423.7546268000733;None;7;0;423.7546268000733;None;425.2548711001873;None;['7'];[0.4313238998875022];425.2548711001873;None;0.5874100001528859;;;;;Emoconpilot036;2021_Nov_10_1254;BackwardMask;2020.2.8;120.24780677529289;
;f;030_o_f_n_a.jpg;neutral;8;28;f;028_y_f_s_a.jpg;sad;incongruent;7;match;;140;160;;18;238;block1_Pilot_2;30;n_s;n_s_weak;;;;;0;0;0;0;0;55;55;55;;;;;;;;;428.25675810012035;None;430.2572524000425;430.547974599991;430.547974599991;430.69732480007224;430.69732480007224;430.7381957999896;430.7381957999896;None;8;0;430.7381957999896;None;432.23837950010784;None;['7'];[0.39162520016543567];432.23837950010784;None;0.4917803001590073;;;;;Emoconpilot036;2021_Nov_10_1254;BackwardMask;2020.2.8;120.24780677529289;
;f;019_m_f_h_a.jpg;happy;9;27;m;027_o_m_h_a.jpg;happy;congruent;9;mismatch;;120;150;;1;238;block1_Pilot_2;19;h_h;h_h_strong;;;;;0;0;0;0;0;56;56;56;;;;;;;;;435.23922420013696;None;437.2296021000948;437.5225728000514;437.5225728000514;437.5308479999658;437.5308479999658;437.57163730007596;437.57163730007596;None;None;0;437.57163730007596;None;439.07165329996496;None;['9'];[0.2224394001532346];439.07165329996496;None;;;;;;Emoconpilot036;2021_Nov_10_1254;BackwardMask;2020.2.8;120.24780677529289;
;m;004_o_m_s_a.jpg;sad;7;4;m;004_o_m_h_a.jpg;happy;incongruent;9;match;;130;150;;18;155;block1_Pilot_2;4;s_h;s_h_weak;;;;;0;0;0;0;0;57;57;57;;;;;;;;;442.07264450006187;None;443.36991180013865;443.66438400000334;443.66438400000334;443.8141316000838;443.8141316000838;443.85498950001784;443.85498950001784;None;7;0;443.85498950001784;None;445.35518410010263;None;['7'];[0.418923000106588];445.35518410010263;None;1.1270570999477059;;;;;Emoconpilot036;2021_Nov_10_1254;BackwardMask;2020.2.8;120.24780677529289;
;f;021_o_f_s_a.jpg;sad;7;27;m;027_o_m_n_a.jpg;neutral;incongruent;8;mismatch;;130;170;;3;224;block1_Pilot_2;21;s_n;s_n_weak;;;;;0;0;0;0;0;58;58;58;;;;;;;;;448.3553156000562;None;450.22842549998313;450.52281770017;450.52281770017;450.5475099000614;450.5475099000614;450.58842950011604;450.58842950011604;None;8;1;450.58842950011604;None;452.0885171999689;None;['8'];[0.5495867000427097];452.0885171999689;None;1.3776858998462558;;;;;Emoconpilot036;2021_Nov_10_1254;BackwardMask;2020.2.8;120.24780677529289;
;f;021_o_f_h_a.jpg;happy;9;27;m;027_o_m_n_a.jpg;neutral;incongruent;8;mismatch;;120;170;;2;147;block1_Pilot_2;21;h_n;h_n_strong;;;;;0;0;0;0;0;59;59;59;;;;;;;;;455.08963280008174;None;456.33523500012234;456.6316556001548;456.6316556001548;456.6481302001048;456.6481302001048;456.6886548001785;456.6886548001785;None;9;0;456.6886548001785;None;458.18882150016725;None;['8'];[0.8652395999524742];458.18882150016725;None;0.5414426999632269;;;;;Emoconpilot036;2021_Nov_10_1254;BackwardMask;2020.2.8;120.24780677529289;
;f;040_y_f_n_a.jpg;neutral;8;13;m;013_y_m_h_a.jpg;happy;incongruent;9;mismatch;;140;150;;3;237;block1_Pilot_2;40;n_h;n_h_strong;;;;;0;0;0;0;0;60;60;60;;;;;;;;;461.1888739001006;None;463.18320660013705;463.47345739998855;463.47345739998855;463.4979724001605;463.4979724001605;463.5388150999788;463.5388150999788;None;8;0;463.5388150999788;None;465.03894030000083;None;['7'];[0.7111194999888539];465.03894030000083;None;0.6192689000163227;;;;;Emoconpilot036;2021_Nov_10_1254;BackwardMask;2020.2.8;120.24780677529289;
;m;027_o_m_n_a.jpg;neutral;8;19;f;019_m_f_h_a.jpg;happy;incongruent;9;mismatch;;140;150;;3;199;block1_Pilot_2;27;n_h;n_h_strong;;;;;0;0;0;0;0;61;61;61;;;;;;;;;468.0388665001374;None;469.7167416000739;470.0074086000677;470.0074086000677;470.03146730014123;470.03146730014123;470.0722336000763;470.0722336000763;None;8;0;470.0722336000763;None;471.572709399974;None;['8'];[0.5451902998611331];471.572709399974;None;0.7017636001110077;;;;;Emoconpilot036;2021_Nov_10_1254;BackwardMask;2020.2.8;120.24780677529289;
;m;027_o_m_h_a.jpg;happy;9;21;f;021_o_f_s_a.jpg;sad;incongruent;7;mismatch;;120;160;;2;169;block1_Pilot_2;27;h_s;h_s_strong;;;;;0;0;0;0;0;62;62;62;;;;;;;;;474.5733370000962;None;475.9999548001215;476.2905477001332;476.2905477001332;476.30660220002756;476.30660220002756;476.3474992001429;476.3474992001429;None;9;0;476.3474992001429;None;477.8482783001382;None;['8'];[0.29378690011799335];477.8482783001382;None;0.7545219999738038;;;;;Emoconpilot036;2021_Nov_10_1254;BackwardMask;2020.2.8;120.24780677529289;
;m;013_y_m_n_a.jpg;neutral;8;33;m;033_o_m_h_a.jpg;happy;incongruent;9;match;;140;150;;18;238;block1_Pilot_2;13;n_h;n_h_strong;;;;;0;0;0;0;0;63;63;63;;;;;;;;;480.848334700102;None;482.850427800091;483.14065290009603;483.14065290009603;483.29008130007423;483.29008130007423;483.3309284001589;483.3309284001589;None;8;0;483.3309284001589;None;484.83092120010406;None;['7'];[0.9912874000146985];484.83092120010406;None;0.3630177001468837;;;;;Emoconpilot036;2021_Nov_10_1254;BackwardMask;2020.2.8;120.24780677529289;
;m;033_o_m_n_a.jpg;neutral;8;30;f;030_o_f_s_a.jpg;sad;incongruent;7;mismatch;;140;160;;1;238;block1_Pilot_2;33;n_s;n_s_weak;;;;;0;0;0;0;0;64;64;64;;;;;;;;;487.83100630017;None;489.8331669999752;490.12405950017273;490.12405950017273;490.1316031999886;490.1316031999886;490.17284260015003;490.17284260015003;None;None;0;490.17284260015003;None;491.6728998001199;None;['9'];[0.22110179997980595];491.6728998001199;None;;;;;;Emoconpilot036;2021_Nov_10_1254;BackwardMask;2020.2.8;120.24780677529289;
;m;033_o_m_s_a.jpg;sad;7;4;m;004_o_m_s_a.jpg;sad;congruent;7;match;;130;160;;18;146;block1_Pilot_2;33;s_s;s_s_weak;;;;;0;0;0;0;0;65;65;65;;;;;;;;;494.67278100014664;None;495.8975100000389;496.19062760006636;496.19062760006636;496.3402824001387;496.3402824001387;496.381185100181;496.381185100181;None;8;0;496.381185100181;None;497.8811321000103;None;['7'];[0.508772199973464];497.8811321000103;None;0.5128245998639613;;;;;Emoconpilot036;2021_Nov_10_1254;BackwardMask;2020.2.8;120.24780677529289;
;m;016_y_m_s_a.jpg;sad;7;28;f;028_y_f_h_a.jpg;happy;incongruent;9;mismatch;;130;150;;18;238;block1_Pilot_2;16;s_h;s_h_strong;;;;;0;0;0;0;0;66;66;66;;;;;;;;;500.8824257000815;None;502.8726071000565;503.1660120000597;503.1660120000597;503.3153297000099;503.3153297000099;503.356291500153;503.356291500153;None;8;0;503.356291500153;None;504.8564926001709;None;['7'];[0.4454344999976456];504.8564926001709;None;1.0096789998933673;;;;;Emoconpilot036;2021_Nov_10_1254;BackwardMask;2020.2.8;120.24780677529289;
;f;030_o_f_h_a.jpg;happy;9;28;f;028_y_f_h_a.jpg;happy;congruent;9;match;;120;150;;3;234;block1_Pilot_2;30;h_h;h_h_weak;;;;;0;0;0;0;0;67;67;67;;;;;;;;;507.8571621000301;None;509.8273585001007;510.1162807000801;510.1162807000801;510.1405452999752;510.1405452999752;510.1814847001806;510.1814847001806;None;9;1;510.1814847001806;None;511.6823903999757;None;['7'];[0.5556463000830263];511.6823903999757;None;0.5366305999923497;;;;;Emoconpilot036;2021_Nov_10_1254;BackwardMask;2020.2.8;120.24780677529289;
;m;013_y_m_h_a.jpg;happy;9;4;m;004_o_m_h_a.jpg;happy;congruent;9;match;;120;150;;2;141;block1_Pilot_2;13;h_h;h_h_strong;;;;;0;0;0;0;0;68;68;68;;;;;;;;;514.6816365001723;None;515.8744443999603;516.1662457999773;516.1662457999773;516.182397400029;516.182397400029;516.2233136000577;516.2233136000577;None;9;1;516.2233136000577;None;517.7233772999607;None;['8'];[0.39453790010884404];517.7233772999607;None;0.5747630998957902;;;;;Emoconpilot036;2021_Nov_10_1254;BackwardMask;2020.2.8;120.24780677529289;
;f;028_y_f_s_a.jpg;sad;7;8;m;008_y_m_s_a.jpg;sad;congruent;7;mismatch;;130;160;;1;238;block1_Pilot_2;28;s_s;s_s_strong;;;;;0;0;0;0;0;69;69;69;;;;;;;;;520.7235310000833;None;522.7190124001354;523.00777929998;523.00777929998;523.0158720000181;523.0158720000181;523.0566809000447;523.0566809000447;None;None;0;523.0566809000447;None;524.5567861001473;None;['9'];[0.433326399885118];524.5567861001473;None;;;;;;Emoconpilot036;2021_Nov_10_1254;BackwardMask;2020.2.8;120.24780677529289;
;f;028_y_f_s_a.jpg;sad;7;30;f;030_o_f_h_a.jpg;happy;incongruent;9;match;;130;150;;2;199;block1_Pilot_2;28;s_h;s_h_weak;;;;;0;0;0;0;0;70;70;70;;;;;;;;;527.5576820001006;None;529.2252091001719;529.5162178000901;529.5162178000901;529.5327221001498;529.5327221001498;529.5735091001261;529.5735091001261;None;8;0;529.5735091001261;None;531.0736784001347;None;['9'];[0.5564786000177264];531.0736784001347;None;0.7765585000161082;;;;;Emoconpilot036;2021_Nov_10_1254;BackwardMask;2020.2.8;120.24780677529289;
;m;008_y_m_h_a.jpg;happy;9;21;f;021_o_f_n_a.jpg;neutral;incongruent;8;mismatch;;120;170;;2;137;block1_Pilot_2;8;h_n;h_n_weak;;;;;0;0;0;0;0;71;71;71;;;;;;;;;534.0744572000112;None;535.2240059999749;535.5164672001265;535.5164672001265;535.5330759000499;535.5330759000499;535.5737124001607;535.5737124001607;None;None;0;535.5737124001607;None;537.0738608001266;None;['9'];[0.5162974998820573];537.0738608001266;None;;;;;;Emoconpilot036;2021_Nov_10_1254;BackwardMask;2020.2.8;120.24780677529289;
;f;012_o_f_n_a.jpg;neutral;8;8;m;008_y_m_s_a.jpg;sad;incongruent;7;mismatch;;140;160;;2;208;block1_Pilot_2;12;n_s;n_s_weak;;;;;0;0;0;0;0;72;72;72;;;;;;;;;540.0740515000653;None;541.828094500117;542.1169824001845;542.1169824001845;542.1329495001119;542.1329495001119;542.1738687001634;542.1738687001634;None;8;0;542.1738687001634;None;543.6739950999618;None;['8'];[1.012034900020808];543.6739950999618;None;0.6000500000081956;;;;;Emoconpilot036;2021_Nov_10_1254;BackwardMask;2020.2.8;120.24780677529289;
;m;016_y_m_n_a.jpg;neutral;8;8;m;008_y_m_n_a.jpg;neutral;congruent;8;match;;140;170;;3;211;block1_Pilot_2;16;n_n;n_n_strong;;;;;0;0;0;0;0;73;73;73;;;;;;;;;546.6746875001118;None;548.4514747001231;548.7420893001836;548.7420893001836;548.766464299988;548.766464299988;548.8071949000005;548.8071949000005;None;8;1;548.8071949000005;None;550.3081024000421;None;['8'];[0.46593619999475777];550.3081024000421;None;0.5509142999071628;;;;;Emoconpilot036;2021_Nov_10_1254;BackwardMask;2020.2.8;120.24780677529289;
;m;016_y_m_h_a.jpg;happy;9;13;m;013_y_m_s_a.jpg;sad;incongruent;7;match;;120;160;;3;138;block1_Pilot_2;16;h_s;h_s_weak;;;;;0;0;0;0;0;74;74;74;;;;;;;;;553.3073954000138;None;554.465596199967;554.7584313000552;554.7584313000552;554.7833512001671;554.7833512001671;554.8240803000517;554.8240803000517;None;None;0;554.8240803000517;None;556.3242946001701;None;['9'];[0.2257509999908507];556.3242946001701;None;;;;;;Emoconpilot036;2021_Nov_10_1254;BackwardMask;2020.2.8;120.24780677529289;
;m;016_y_m_n_a.jpg;neutral;8;19;f;019_m_f_s_a.jpg;sad;incongruent;7;mismatch;;140;160;;2;185;block1_Pilot_2;16;n_s;n_s_strong;;;;;0;0;0;0;0;75;75;75;;;;;;;;;559.3256286000833;None;560.8856739001349;561.1756674000062;561.1756674000062;561.1915955999866;561.1915955999866;561.232584600104;561.232584600104;None;8;0;561.232584600104;None;562.7325279000215;None;['8'];[0.3614655998535454];562.7325279000215;None;0.5654402000363916;;;;;Emoconpilot036;2021_Nov_10_1254;BackwardMask;2020.2.8;120.24780677529289;
;m;027_o_m_s_a.jpg;sad;7;8;m;008_y_m_s_a.jpg;sad;congruent;7;match;;130;160;;1;238;block1_Pilot_2;27;s_s;s_s_strong;;;;;0;0;0;0;0;76;76;76;;;;;;;;;565.7333466999698;None;567.7241950000171;568.0168145999778;568.0168145999778;568.0251166000962;568.0251166000962;568.0661257000174;568.0661257000174;None;None;0;568.0661257000174;None;569.5659186001867;None;['9'];[0.3200059002265334];569.5659186001867;None;;;;;;Emoconpilot036;2021_Nov_10_1254;BackwardMask;2020.2.8;120.24780677529289;
;f;019_m_f_n_a.jpg;neutral;8;27;m;027_o_m_n_a.jpg;neutral;congruent;8;mismatch;;140;170;;3;186;block1_Pilot_2;19;n_n;n_n_strong;;;;;0;0;0;0;0;77;77;77;;;;;;;;;572.5662944000214;None;574.1373529001139;574.425863499986;574.425863499986;574.4502499001101;574.4502499001101;574.4909606999718;574.4909606999718;None;8;1;574.4909606999718;None;575.9911442000885;None;['8'];[0.39891160000115633];575.9911442000885;None;0.5791666998993605;;;;;Emoconpilot036;2021_Nov_10_1254;BackwardMask;2020.2.8;120.24780677529289;
;m;004_o_m_s_a.jpg;sad;7;12;f;012_o_f_s_a.jpg;sad;congruent;7;mismatch;;130;160;;1;238;block1_Pilot_2;4;s_s;s_s_strong;;;;;0;0;0;0;0;78;78;78;;;;;;;;;578.9912443000358;None;580.9819881001022;581.2756823999807;581.2756823999807;581.2837722001132;581.2837722001132;581.3245433000848;581.3245433000848;None;None;0;581.3245433000848;None;582.8244855001103;None;['9'];[0.32546509988605976];582.8244855001103;None;;;;;;Emoconpilot036;2021_Nov_10_1254;BackwardMask;2020.2.8;120.24780677529289;
;f;019_m_f_n_a.jpg;neutral;8;13;m;013_y_m_s_a.jpg;sad;incongruent;7;mismatch;;140;160;;3;207;block1_Pilot_2;19;n_s;n_s_strong;;;;;0;0;0;0;0;79;79;79;;;;;;;;;585.8250208001118;None;587.5714225000702;587.8679600001778;587.8679600001778;587.8921752001625;587.8921752001625;587.9330657001119;587.9330657001119;None;None;0;587.9330657001119;None;589.4332705000415;None;['8'];[0.6848237998783588];589.4332705000415;None;;;;;;Emoconpilot036;2021_Nov_10_1254;BackwardMask;2020.2.8;120.24780677529289;
;m;027_o_m_h_a.jpg;happy;9;33;m;033_o_m_h_a.jpg;happy;congruent;9;match;;120;150;;1;238;block1_Pilot_2;27;h_h;h_h_strong;;;;;0;0;0;0;0;80;80;80;;;;;;;;;592.4339676001109;None;594.4359502000734;594.7264225999825;594.7264225999825;594.7340041000862;594.7340041000862;594.7750079000834;594.7750079000834;None;None;0;594.7750079000834;None;596.2748962000478;None;['9'];[0.33933129999786615];596.2748962000478;None;;;;;;Emoconpilot036;2021_Nov_10_1254;BackwardMask;2020.2.8;120.24780677529289;
;m;027_o_m_h_a.jpg;happy;9;21;f;021_o_f_s_a.jpg;sad;incongruent;7;mismatch;;120;160;;1;238;block1_Pilot_2;27;h_s;h_s_weak;;;;;0;0;0;0;0;81;81;81;;;;;;;;;599.2757359000389;None;601.2777585999575;601.5681231000926;601.5681231000926;601.5756904999726;601.5756904999726;601.616633299971;601.616633299971;None;None;0;601.616633299971;None;603.1166048001032;None;['9'];[0.30546750011853874];603.1166048001032;None;;;;;;Emoconpilot036;2021_Nov_10_1254;BackwardMask;2020.2.8;120.24780677529289;
;m;033_o_m_s_a.jpg;sad;7;40;f;040_y_f_n_a.jpg;neutral;incongruent;8;mismatch;;130;170;;3;146;block1_Pilot_2;33;s_n;s_n_weak;;;;;0;0;0;0;0;82;82;82;;;;;;;;;606.1169235999696;None;607.3418978999835;607.6346214001533;607.6346214001533;607.6593858001288;607.6593858001288;607.7001243999694;607.7001243999694;None;8;1;607.7001243999694;None;609.2001294000074;None;['8'];[0.3979390999302268];609.2001294000074;None;0.5938826000783592;;;;;Emoconpilot036;2021_Nov_10_1254;BackwardMask;2020.2.8;120.24780677529289;
;m;008_y_m_h_a.jpg;happy;9;4;m;004_o_m_s_a.jpg;sad;incongruent;7;match;;120;160;;2;225;block1_Pilot_2;8;h_s;h_s_weak;;;;;0;0;0;0;0;83;83;83;;;;;;;;;612.2003423999995;None;614.0824699001387;614.3757397001609;614.3757397001609;614.3923995001242;614.3923995001242;614.4332046001218;614.4332046001218;None;9;0;614.4332046001218;None;615.9333254999947;None;['8'];[0.5126535000745207];615.9333254999947;None;0.8767246000934392;;;;;Emoconpilot036;2021_Nov_10_1254;BackwardMask;2020.2.8;120.24780677529289;
;f;012_o_f_n_a.jpg;neutral;8;4;m;004_o_m_s_a.jpg;sad;incongruent;7;mismatch;;140;160;;3;150;block1_Pilot_2;12;n_s;n_s_strong;;;;;0;0;0;0;0;84;84;84;;;;;;;;;618.9351262000855;None;620.2045405001845;620.4934111000039;620.4934111000039;620.5178869001102;620.5178869001102;620.5587603000458;620.5587603000458;None;8;0;620.5587603000458;None;622.0585620000493;None;['7'];[0.4595397000666708];622.0585620000493;None;0.5594053000677377;;;;;Emoconpilot036;2021_Nov_10_1254;BackwardMask;2020.2.8;120.24780677529289;
;f;021_o_f_s_a.jpg;sad;7;40;f;040_y_f_n_a.jpg;neutral;incongruent;8;match;;130;170;;2;156;block1_Pilot_2;21;s_n;s_n_strong;;;;;0;0;0;0;0;85;85;85;;;;;;;;;625.058834400028;None;626.3649087001104;626.6598015001509;626.6598015001509;626.6763098000083;626.6763098000083;626.7171175000258;626.7171175000258;None;None;0;626.7171175000258;None;628.2172813999932;None;['9'];[0.32485219999216497];628.2172813999932;None;;;;;;Emoconpilot036;2021_Nov_10_1254;BackwardMask;2020.2.8;120.24780677529289;
;m;004_o_m_n_a.jpg;neutral;8;13;m;013_y_m_n_a.jpg;neutral;congruent;8;match;;140;170;;2;225;block1_Pilot_2;4;n_n;n_n_strong;;;;;0;0;0;0;0;86;86;86;;;;;;;;;631.2177015000489;None;633.1133534000255;633.4020575000905;633.4020575000905;633.4182374000084;633.4182374000084;633.4590688000899;633.4590688000899;None;None;0;633.4590688000899;None;634.9592681999784;None;['9'];[0.4068928000051528];634.9592681999784;None;;;;;;Emoconpilot036;2021_Nov_10_1254;BackwardMask;2020.2.8;120.24780677529289;
;m;016_y_m_n_a.jpg;neutral;8;16;m;016_y_m_h_a.jpg;happy;incongruent;9;match;;140;150;;18;193;block1_Pilot_2;16;n_h;n_h_strong;;;;;0;0;0;0;0;87;87;87;;;;;;;;;637.9592454000376;None;639.5861886001658;639.8770720001776;639.8770720001776;640.0266728000715;640.0266728000715;640.0676023000851;640.0676023000851;None;8;0;640.0676023000851;None;641.5674475000706;None;['7'];[0.350584700005129];641.5674475000706;None;0.4103820000309497;;;;;Emoconpilot036;2021_Nov_10_1254;BackwardMask;2020.2.8;120.24780677529289;
;m;033_o_m_h_a.jpg;happy;9;4;m;004_o_m_h_a.jpg;happy;congruent;9;match;;120;150;;2;195;block1_Pilot_2;33;h_h;h_h_strong;;;;;0;0;0;0;0;88;88;88;;;;;;;;;644.5685722001363;None;646.2006461999845;646.4934931001626;646.4934931001626;646.5099780000746;646.5099780000746;646.5508624999784;646.5508624999784;None;9;1;646.5508624999784;None;648.0509818000719;None;['8'];[0.24304399988614023];648.0509818000719;None;0.6393353000748903;;;;;Emoconpilot036;2021_Nov_10_1254;BackwardMask;2020.2.8;120.24780677529289;
;m;027_o_m_h_a.jpg;happy;9;16;m;016_y_m_h_a.jpg;happy;congruent;9;match;;120;150;;3;209;block1_Pilot_2;27;h_h;h_h_weak;;;;;0;0;0;0;0;89;89;89;;;;;;;;;651.0513383999933;None;652.814805699978;653.1109770000912;653.1109770000912;653.1353566001635;653.1353566001635;653.1761899001431;653.1761899001431;None;9;1;653.1761899001431;None;654.675824600039;None;['7'];[0.3461212001275271];654.675824600039;None;0.5099009999539703;;;;;Emoconpilot036;2021_Nov_10_1254;BackwardMask;2020.2.8;120.24780677529289;
;m;033_o_m_s_a.jpg;sad;7;16;m;016_y_m_s_a.jpg;sad;congruent;7;match;;130;160;;3;128;block1_Pilot_2;33;s_s;s_s_strong;;;;;0;0;0;0;0;90;90;90;;;;;;;;;657.6771438999567;None;658.7520163001027;659.0438761000987;659.0438761000987;659.0688545000739;659.0688545000739;659.1094804999884;659.1094804999884;None;8;0;659.1094804999884;None;660.609719300177;None;['8'];[0.25242069992236793];660.609719300177;None;0.640682099852711;;;;;Emoconpilot036;2021_Nov_10_1254;BackwardMask;2020.2.8;120.24780677529289;
;f;021_o_f_s_a.jpg;sad;7;30;f;030_o_f_s_a.jpg;sad;congruent;7;match;;130;160;;1;238;block1_Pilot_2;21;s_s;s_s_strong;;;;;0;0;0;0;0;91;91;91;;;;;;;;;663.6109808001202;None;665.5988001001533;665.8940852000378;665.8940852000378;665.9021226000041;665.9021226000041;665.9429759001359;665.9429759001359;None;None;0;665.9429759001359;None;667.4431078999769;None;['9'];[0.3070441000163555];667.4431078999769;None;;;;;;Emoconpilot036;2021_Nov_10_1254;BackwardMask;2020.2.8;120.24780677529289;
;m;033_o_m_n_a.jpg;neutral;8;28;f;028_y_f_s_a.jpg;sad;incongruent;7;mismatch;;140;160;;18;166;block1_Pilot_2;33;n_s;n_s_strong;;;;;0;0;0;0;0;92;92;92;;;;;;;;;670.443169800099;None;671.857590700034;672.1528219000902;672.1528219000902;672.302047500154;672.302047500154;672.3431605000515;672.3431605000515;None;8;0;672.3431605000515;None;673.8432178001385;None;['7'];[0.3229219999630004];673.8432178001385;None;0.41499999980442226;;;;;Emoconpilot036;2021_Nov_10_1254;BackwardMask;2020.2.8;120.24780677529289;
;f;019_m_f_n_a.jpg;neutral;8;30;f;030_o_f_n_a.jpg;neutral;congruent;8;match;;140;170;;18;228;block1_Pilot_2;19;n_n;n_n_weak;;;;;0;0;0;0;0;93;93;93;;;;;;;;;676.8439591999631;None;678.7632730000187;679.0529100000858;679.0529100000858;679.2023685001768;679.2023685001768;679.2433913999703;679.2433913999703;None;8;1;679.2433913999703;None;680.743939800188;None;['7'];[0.31835300009697676];680.743939800188;None;0.42667159996926785;;;;;Emoconpilot036;2021_Nov_10_1254;BackwardMask;2020.2.8;120.24780677529289;
;m;008_y_m_s_a.jpg;sad;7;12;f;012_o_f_h_a.jpg;happy;incongruent;9;mismatch;;130;150;;3;130;block1_Pilot_2;8;s_h;s_h_weak;;;;;0;0;0;0;0;94;94;94;;;;;;;;;683.743697399972;None;684.8458064000588;685.1365912000183;685.1365912000183;685.1608081001323;685.1608081001323;685.2017190000042;685.2017190000042;None;9;1;685.2017190000042;None;686.7017713000532;None;None;;686.7017713000532;None;0.628464300185442;;;;;Emoconpilot036;2021_Nov_10_1254;BackwardMask;2020.2.8;120.24780677529289;
;m;016_y_m_n_a.jpg;neutral;8;28;f;028_y_f_n_a.jpg;neutral;congruent;8;mismatch;;140;170;;18;189;block1_Pilot_2;16;n_n;n_n_strong;;;;;0;0;0;0;0;95;95;95;;;;;;;;;689.701946400106;None;691.29618880013;691.586742100073;691.586742100073;691.736009699991;691.736009699991;691.7768878999632;691.7768878999632;None;8;1;691.7768878999632;None;693.277085600188;None;['7'];[0.3288728001061827];693.277085600188;None;0.46931270021013916;;;;;Emoconpilot036;2021_Nov_10_1254;BackwardMask;2020.2.8;120.24780677529289;
;f;012_o_f_s_a.jpg;sad;7;16;m;016_y_m_h_a.jpg;happy;incongruent;9;mismatch;;130;150;;3;238;block1_Pilot_2;12;s_h;s_h_strong;;;;;0;0;0;0;0;96;96;96;;;;;;;;;696.2778883001301;None;698.2639864999801;698.5612439000979;698.5612439000979;698.5859466001857;698.5859466001857;698.6270384001546;698.6270384001546;None;7;0;698.6270384001546;None;700.1271075000986;None;['8'];[0.2630777000449598];700.1271075000986;None;0.8430413000751287;;;;;Emoconpilot036;2021_Nov_10_1254;BackwardMask;2020.2.8;120.24780677529289;
;m;013_y_m_h_a.jpg;happy;9;27;m;027_o_m_h_a.jpg;happy;congruent;9;match;;120;150;;18;238;block1_Pilot_2;13;h_h;h_h_strong;;;;;0;0;0;0;0;97;97;97;;;;;;;;;703.1281743000727;None;705.1304981999565;705.4202690999955;705.4202690999955;705.5696569001302;705.5696569001302;705.6104956001509;705.6104956001509;None;9;1;705.6104956001509;None;707.1106458001304;None;['7'];[0.29538369993679225];707.1106458001304;None;0.5797798000276089;;;;;Emoconpilot036;2021_Nov_10_1254;BackwardMask;2020.2.8;120.24780677529289;
;m;016_y_m_s_a.jpg;sad;7;33;m;033_o_m_n_a.jpg;neutral;incongruent;8;match;;130;170;;1;238;block1_Pilot_2;16;s_n;s_n_weak;;;;;0;0;0;0;0;98;98;98;;;;;;;;;710.1114436001517;None;712.1019382001832;712.3951389000285;712.3951389000285;712.4031136999838;712.4031136999838;712.4440361000597;712.4440361000597;None;None;0;712.4440361000597;None;713.9440900001209;None;['9'];[0.33398859994485974];713.9440900001209;None;;;;;;Emoconpilot036;2021_Nov_10_1254;BackwardMask;2020.2.8;120.24780677529289;
;m;008_y_m_n_a.jpg;neutral;8;30;f;030_o_f_n_a.jpg;neutral;congruent;8;mismatch;;140;170;;1;238;block1_Pilot_2;8;n_n;n_n_weak;;;;;0;0;0;0;0;99;99;99;;;;;;;;;716.9451393999625;None;718.9575589001179;719.2537126000971;719.2537126000971;719.2615943001583;719.2615943001583;719.3022656000685;719.3022656000685;None;None;0;719.3022656000685;None;720.8023221001495;None;['9'];[0.31591779994778335];720.8023221001495;None;;;;;;Emoconpilot036;2021_Nov_10_1254;BackwardMask;2020.2.8;120.24780677529289;
;m;008_y_m_s_a.jpg;sad;7;30;f;030_o_f_s_a.jpg;sad;congruent;7;mismatch;;130;160;;2;133;block1_Pilot_2;8;s_s;s_s_weak;;;;;0;0;0;0;0;100;100;100;;;;;;;;;723.8033911001403;None;724.9308953001164;725.2206892000977;725.2206892000977;725.2367082999554;725.2367082999554;725.27752220002;725.27752220002;None;None;0;725.27752220002;None;726.7776431001257;None;['9'];[0.3085302000399679];726.7776431001257;None;;;;;;Emoconpilot036;2021_Nov_10_1254;BackwardMask;2020.2.8;120.24780677529289;
;f;040_y_f_n_a.jpg;neutral;8;30;f;030_o_f_s_a.jpg;sad;incongruent;7;match;;140;160;;3;197;block1_Pilot_2;40;n_s;n_s_strong;;;;;0;0;0;0;0;101;101;101;;;;;;;;;729.7776460000314;None;731.4384298999794;731.7291125999764;731.7291125999764;731.7533576001879;731.7533576001879;731.7942957000341;731.7942957000341;None;8;0;731.7942957000341;None;733.2943325000815;None;['8'];[0.479695700109005];733.2943325000815;None;1.2198298999574035;;;;;Emoconpilot036;2021_Nov_10_1254;BackwardMask;2020.2.8;120.24780677529289;
;m;004_o_m_h_a.jpg;happy;9;30;f;030_o_f_s_a.jpg;sad;incongruent;7;mismatch;;120;160;;3;121;block1_Pilot_2;4;h_s;h_s_strong;;;;;0;0;0;0;0;102;102;102;;;;;;;;;736.2959682000801;None;737.3233805000782;737.6125897001475;737.6125897001475;737.6369833000936;737.6369833000936;737.6780302000698;737.6780302000698;None;9;0;737.6780302000698;None;739.1779011001345;None;['7'];[0.6120325999800116];739.1779011001345;None;0.5921269000973552;;;;;Emoconpilot036;2021_Nov_10_1254;BackwardMask;2020.2.8;120.24780677529289;
;f;040_y_f_h_a.jpg;happy;9;8;m;008_y_m_h_a.jpg;happy;congruent;9;mismatch;;120;150;;18;211;block1_Pilot_2;40;h_h;h_h_weak;;;;;0;0;0;0;0;103;103;103;;;;;;;;;742.1780381000135;None;743.9459726000205;744.2373369999696;744.2373369999696;744.3872555000708;744.3872555000708;744.4281187001616;744.4281187001616;None;9;1;744.4281187001616;None;745.9279815000482;None;['7'];[0.3662270999047905];745.9279815000482;None;0.4261207999661565;;;;;Emoconpilot036;2021_Nov_10_1254;BackwardMask;2020.2.8;120.24780677529289;
;f;019_m_f_s_a.jpg;sad;7;16;m;016_y_m_n_a.jpg;neutral;incongruent;8;mismatch;;130;170;;2;198;block1_Pilot_2;19;s_n;s_n_strong;;;;;0;0;0;0;0;104;104;104;;;;;;;;;748.9290183000267;None;750.6034278001171;750.8961565000936;750.8961565000936;750.9124044000637;750.9124044000637;750.9530056000222;750.9530056000222;None;None;0;750.9530056000222;None;752.453263200121;None;['9'];[0.32883980008773506];752.453263200121;None;;;;;;Emoconpilot036;2021_Nov_10_1254;BackwardMask;2020.2.8;120.24780677529289;
;f;040_y_f_s_a.jpg;sad;7;12;f;012_o_f_s_a.jpg;sad;congruent;7;match;;130;160;;18;240;block1_Pilot_2;40;s_s;s_s_strong;;;;;0;0;0;0;0;105;105;105;;;;;;;;;755.4540608001407;None;757.4613577001728;757.7544007999822;757.7544007999822;757.9040654001292;757.9040654001292;757.9448174000718;757.9448174000718;None;7;1;757.9448174000718;None;759.4450171999633;None;['7'];[0.6490865000523627];759.4450171999633;None;0.8131083999760449;;;;;Emoconpilot036;2021_Nov_10_1254;BackwardMask;2020.2.8;120.24780677529289;
;f;040_y_f_n_a.jpg;neutral;8;33;m;033_o_m_s_a.jpg;sad;incongruent;7;mismatch;;140;160;;3;188;block1_Pilot_2;40;n_s;n_s_weak;;;;;0;0;0;0;0;106;106;106;;;;;;;;;762.4460853000637;None;764.0505566999782;764.3464473001659;764.3464473001659;764.3710114001296;764.3710114001296;764.41167400009;764.41167400009;None;8;0;764.41167400009;None;765.9118364001624;None;['7'];[0.2861639999318868];765.9118364001624;None;0.6503533001523465;;;;;Emoconpilot036;2021_Nov_10_1254;BackwardMask;2020.2.8;120.24780677529289;
;f;028_y_f_h_a.jpg;happy;9;21;f;021_o_f_s_a.jpg;sad;incongruent;7;match;;120;160;;3;193;block1_Pilot_2;28;h_s;h_s_strong;;;;;0;0;0;0;0;107;107;107;;;;;;;;;768.9127719001845;None;770.5313214999624;770.8211912000552;770.8211912000552;770.8461337999906;770.8461337999906;770.8868691001553;770.8868691001553;None;9;0;770.8868691001553;None;772.3869839999825;None;['7'];[0.2750138998962939];772.3869839999825;None;0.5032810000702739;;;;;Emoconpilot036;2021_Nov_10_1254;BackwardMask;2020.2.8;120.24780677529289;
;f;040_y_f_s_a.jpg;sad;7;13;m;013_y_m_n_a.jpg;neutral;incongruent;8;mismatch;;130;170;;2;198;block1_Pilot_2;40;s_n;s_n_strong;;;;;0;0;0;0;0;108;108;108;;;;;;;;;775.3877516000066;None;777.0442915000021;777.3379524999764;777.3379524999764;777.3544908000622;777.3544908000622;777.3952043000609;777.3952043000609;None;8;1;777.3952043000609;None;778.8952838000841;None;['8'];[0.262737900018692];778.8952838000841;None;0.5947256998624653;;;;;Emoconpilot036;2021_Nov_10_1254;BackwardMask;2020.2.8;120.24780677529289;
;f;030_o_f_n_a.jpg;neutral;8;33;m;033_o_m_s_a.jpg;sad;incongruent;7;mismatch;;140;160;;1;238;block1_Pilot_2;30;n_s;n_s_strong;;;;;0;0;0;0;0;109;109;109;;;;;;;;;781.895380300004;None;783.9024753000122;784.1968668999616;784.1968668999616;784.2045968000311;784.2045968000311;784.2454864999745;784.2454864999745;None;None;0;784.2454864999745;None;785.7455981001258;None;['9'];[0.3725994999986142];785.7455981001258;None;;;;;;Emoconpilot036;2021_Nov_10_1254;BackwardMask;2020.2.8;120.24780677529289;
;f;021_o_f_h_a.jpg;happy;9;40;f;040_y_f_n_a.jpg;neutral;incongruent;8;match;;120;170;;2;125;block1_Pilot_2;21;h_n;h_n_weak;;;;;0;0;0;0;0;110;110;110;;;;;;;;;788.746439000126;None;789.806205100147;790.0970364001114;790.0970364001114;790.1131027000956;790.1131027000956;790.1538329999894;790.1538329999894;None;9;0;790.1538329999894;None;791.6540729000699;None;['8'];[0.20808970020152628];791.6540729000699;None;0.6363764000125229;;;;;Emoconpilot036;2021_Nov_10_1254;BackwardMask;2020.2.8;120.24780677529289;
;f;021_o_f_h_a.jpg;happy;9;16;m;016_y_m_s_a.jpg;sad;incongruent;7;mismatch;;120;160;;1;238;block1_Pilot_2;21;h_s;h_s_strong;;;;;0;0;0;0;0;111;111;111;;;;;;;;;794.6550609001424;None;796.6567713001277;796.9472146001644;796.9472146001644;796.9548806000967;796.9548806000967;796.9956309001427;796.9956309001427;None;None;0;796.9956309001427;None;798.4958673999645;None;['9'];[0.2941803000867367];798.4958673999645;None;;;;;;Emoconpilot036;2021_Nov_10_1254;BackwardMask;2020.2.8;120.24780677529289;
;f;012_o_f_h_a.jpg;happy;9;8;m;008_y_m_s_a.jpg;sad;incongruent;7;mismatch;;120;160;;1;238;block1_Pilot_2;12;h_s;h_s_weak;;;;;0;0;0;0;0;112;112;112;;;;;;;;;801.495986700058;None;803.4875394999981;803.7802808000706;803.7802808000706;803.7883204000536;803.7883204000536;803.8292295001447;803.8292295001447;None;None;0;803.8292295001447;None;805.3295787000097;None;['9'];[0.33251640014350414];805.3295787000097;None;;;;;;Emoconpilot036;2021_Nov_10_1254;BackwardMask;2020.2.8;120.24780677529289;
;m;013_y_m_h_a.jpg;happy;9;16;m;016_y_m_s_a.jpg;sad;incongruent;7;match;;120;160;;3;202;block1_Pilot_2;13;h_s;h_s_weak;;;;;0;0;0;0;0;113;113;113;;;;;;;;;808.329231900163;None;810.0336456000805;810.322437700117;810.322437700117;810.3468484999612;810.3468484999612;810.3876316000242;810.3876316000242;None;9;0;810.3876316000242;None;811.8876213000622;None;['7'];[0.3744437999557704];811.8876213000622;None;0.5705148000270128;;;;;Emoconpilot036;2021_Nov_10_1254;BackwardMask;2020.2.8;120.24780677529289;
;f;019_m_f_s_a.jpg;sad;7;4;m;004_o_m_n_a.jpg;neutral;incongruent;8;mismatch;;130;170;;1;238;block1_Pilot_2;19;s_n;s_n_strong;;;;;0;0;0;0;0;114;114;114;;;;;;;;;814.88857810013;None;816.8904619000386;817.180989000015;817.180989000015;817.1886156999972;817.1886156999972;817.2294895001687;817.2294895001687;None;None;0;817.2294895001687;None;818.729501800146;None;['9'];[0.3405990998726338];818.729501800146;None;;;;;;Emoconpilot036;2021_Nov_10_1254;BackwardMask;2020.2.8;120.24780677529289;
;f;028_y_f_n_a.jpg;neutral;8;27;m;027_o_m_s_a.jpg;sad;incongruent;7;mismatch;;140;160;;18;238;block1_Pilot_2;28;n_s;n_s_strong;;;;;0;0;0;0;0;115;115;115;;;;;;;;;821.7296290001832;None;823.7318271000404;824.0227088001557;824.0227088001557;824.1720975001808;824.1720975001808;824.2129504000768;824.2129504000768;None;8;0;824.2129504000768;None;825.7132131999824;None;['7'];[0.3089511999860406];825.7132131999824;None;0.4731548000127077;;;;;Emoconpilot036;2021_Nov_10_1254;BackwardMask;2020.2.8;120.24780677529289;
;m;013_y_m_s_a.jpg;sad;7;12;f;012_o_f_h_a.jpg;happy;incongruent;9;mismatch;;130;150;;1;238;block1_Pilot_2;13;s_h;s_h_strong;;;;;0;0;0;0;0;116;116;116;;;;;;;;;828.713778299978;None;830.7042133000214;830.997558800038;830.997558800038;831.0056459000334;831.0056459000334;831.0463541999925;831.0463541999925;None;None;0;831.0463541999925;None;832.5467391000129;None;['9'];[0.3393401000648737];832.5467391000129;None;;;;;;Emoconpilot036;2021_Nov_10_1254;BackwardMask;2020.2.8;120.24780677529289;
;m;016_y_m_s_a.jpg;sad;7;19;f;019_m_f_h_a.jpg;happy;incongruent;9;mismatch;;130;150;;1;238;block1_Pilot_2;16;s_h;s_h_strong;;;;;0;0;0;0;0;117;117;117;;;;;;;;;835.5473496001214;None;837.5367654000875;837.8309090000112;837.8309090000112;837.8392433000263;837.8392433000263;837.8798211000394;837.8798211000394;None;None;0;837.8798211000394;None;839.3799686001148;None;['9'];[0.4262113000731915];839.3799686001148;None;;;;;;Emoconpilot036;2021_Nov_10_1254;BackwardMask;2020.2.8;120.24780677529289;
;m;013_y_m_s_a.jpg;sad;7;21;f;021_o_f_h_a.jpg;happy;incongruent;9;mismatch;;130;150;;18;238;block1_Pilot_2;13;s_h;s_h_strong;;;;;0;0;0;0;0;118;118;118;;;;;;;;;842.3798923001159;None;844.3716804999858;844.6643799000885;844.6643799000885;844.814235100057;844.814235100057;844.8550213000271;844.8550213000271;None;7;0;844.8550213000271;None;846.3552837001625;None;['7'];[0.3388412999920547];846.3552837001625;None;0.8071703999303281;;;;;Emoconpilot036;2021_Nov_10_1254;BackwardMask;2020.2.8;120.24780677529289;
;f;012_o_f_s_a.jpg;sad;7;13;m;013_y_m_h_a.jpg;happy;incongruent;9;mismatch;;130;150;;3;235;block1_Pilot_2;12;s_h;s_h_weak;;;;;0;0;0;0;0;119;119;119;;;;;;;;;849.3560524000786;None;851.3168822999578;851.6144257001579;851.6144257001579;851.6393122000154;851.6393122000154;851.680173400091;851.680173400091;None;7;0;851.680173400091;None;853.1801679001655;None;['8'];[0.2740536998026073];853.1801679001655;None;0.7980045001022518;;;;;Emoconpilot036;2021_Nov_10_1254;BackwardMask;2020.2.8;120.24780677529289;
;f;019_m_f_s_a.jpg;sad;7;30;f;030_o_f_h_a.jpg;happy;incongruent;9;match;;130;150;;3;235;block2_Pilot_2;19;s_h;s_h_strong;;;;;0;1;1;1;0;0;0;0;;;;;;;;;876.2087751000654;None;878.1761064000893;878.4655565000139;878.4655565000139;878.4899526999798;878.4899526999798;878.5307609001175;878.5307609001175;None;7;0;878.5307609001175;None;880.0315066000912;None;['8'];[0.2784474000800401];880.0315066000912;None;0.7234012000262737;;;856.1811500999611;None;Emoconpilot036;2021_Nov_10_1254;BackwardMask;2020.2.8;120.24780677529289;
;m;008_y_m_n_a.jpg;neutral;8;40;f;040_y_f_h_a.jpg;happy;incongruent;9;mismatch;;140;150;;2;121;block2_Pilot_2;8;n_h;n_h_strong;;;;;0;1;1;1;0;1;1;1;;;;;;;;;883.0312946999911;None;884.0583252999932;884.3490586001426;884.3490586001426;884.3648506000172;884.3648506000172;884.4058126001619;884.4058126001619;None;None;0;884.4058126001619;None;885.9059417999815;None;None;;885.9059417999815;None;;;;;;Emoconpilot036;2021_Nov_10_1254;BackwardMask;2020.2.8;120.24780677529289;
;f;012_o_f_h_a.jpg;happy;9;27;m;027_o_m_n_a.jpg;neutral;incongruent;8;mismatch;;120;170;;2;240;block2_Pilot_2;12;h_n;h_n_weak;;;;;0;1;1;1;0;2;2;2;;;;;;;;;888.9060337999836;None;890.9162566000596;891.2070333000738;891.2070333000738;891.2235155000817;891.2235155000817;891.2643067999743;891.2643067999743;None;9;0;891.2643067999743;None;892.764418900013;None;['8'];[0.3137564999051392];892.764418900013;None;0.5503680999390781;;;;;Emoconpilot036;2021_Nov_10_1254;BackwardMask;2020.2.8;120.24780677529289;
;m;008_y_m_h_a.jpg;happy;9;40;f;040_y_f_h_a.jpg;happy;congruent;9;mismatch;;120;150;;18;195;block2_Pilot_2;8;h_h;h_h_strong;;;;;0;1;1;1;0;3;3;3;;;;;;;;;895.7657588000875;None;897.3975241000298;897.6904528001323;897.6904528001323;897.8403150001541;897.8403150001541;897.8811373000499;897.8811373000499;None;9;1;897.8811373000499;None;899.3812012001872;None;['7'];[0.3049422998446971];899.3812012001872;None;0.38092779996804893;;;;;Emoconpilot036;2021_Nov_10_1254;BackwardMask;2020.2.8;120.24780677529289;
;m;004_o_m_n_a.jpg;neutral;8;33;m;033_o_m_s_a.jpg;sad;incongruent;7;match;;140;160;;18;126;block2_Pilot_2;4;n_s;n_s_weak;;;;;0;1;1;1;0;4;4;4;;;;;;;;;902.3814097000286;None;903.473615200026;903.7658722000197;903.7658722000197;903.9154013001826;903.9154013001826;903.9562421001028;903.9562421001028;None;8;0;903.9562421001028;None;905.456310900161;None;['7'];[0.26191310002468526];905.456310900161;None;0.4658460000064224;;;;;Emoconpilot036;2021_Nov_10_1254;BackwardMask;2020.2.8;120.24780677529289;
;f;028_y_f_s_a.jpg;sad;7;27;m;027_o_m_n_a.jpg;neutral;incongruent;8;mismatch;;130;170;;18;225;block2_Pilot_2;28;s_n;s_n_strong;;;;;0;1;1;1;0;5;5;5;;;;;;;;;908.4568279001396;None;910.3529864000157;910.6490609999746;910.6490609999746;910.7994035000447;910.7994035000447;910.8397155001294;910.8397155001294;None;8;1;910.8397155001294;None;912.3396729000378;None;['7'];[0.4183644999284297];912.3396729000378;None;0.9344518999569118;;;;;Emoconpilot036;2021_Nov_10_1254;BackwardMask;2020.2.8;120.24780677529289;
;m;027_o_m_s_a.jpg;sad;7;30;f;030_o_f_h_a.jpg;happy;incongruent;9;mismatch;;130;150;;18;238;block2_Pilot_2;27;s_h;s_h_weak;;;;;0;1;1;1;0;6;6;6;;;;;;;;;915.3411138001829;None;917.3307223001029;917.6241713999771;917.6241713999771;917.77404820011;917.77404820011;917.8150879000314;917.8150879000314;None;None;0;917.8150879000314;None;919.31507290015;None;None;;919.31507290015;None;;;;;;Emoconpilot036;2021_Nov_10_1254;BackwardMask;2020.2.8;120.24780677529289;
;m;033_o_m_h_a.jpg;happy;9;40;f;040_y_f_s_a.jpg;sad;incongruent;7;mismatch;;120;160;;1;238;block2_Pilot_2;33;h_s;h_s_strong;;;;;0;1;1;1;0;7;7;7;;;;;;;;;922.3167584000621;None;924.3056414001621;924.5999845999759;924.5999845999759;924.6073505000677;924.6073505000677;924.6481749000959;924.6481749000959;None;None;0;924.6481749000959;None;926.1483485000208;None;['9'];[0.30584849999286234];926.1483485000208;None;;;;;;Emoconpilot036;2021_Nov_10_1254;BackwardMask;2020.2.8;120.24780677529289;
;f;012_o_f_n_a.jpg;neutral;8;12;f;012_o_f_h_a.jpg;happy;incongruent;9;match;;140;150;;2;200;block2_Pilot_2;12;n_h;n_h_weak;;;;;0;1;1;1;0;8;8;8;;;;;;;;;929.1491182001773;None;930.8439076000359;931.1333618001081;931.1333618001081;931.149318800075;931.149318800075;931.1902334999759;931.1902334999759;None;8;0;931.1902334999759;None;932.690370199969;None;['8'];[0.20358209987170994];932.690370199969;None;0.7359512001276016;;;;;Emoconpilot036;2021_Nov_10_1254;BackwardMask;2020.2.8;120.24780677529289;
;f;030_o_f_n_a.jpg;neutral;8;19;f;019_m_f_n_a.jpg;neutral;congruent;8;match;;140;170;;1;238;block2_Pilot_2;30;n_n;n_n_weak;;;;;0;1;1;1;0;9;9;9;;;;;;;;;935.6903214000631;None;937.6924456001725;937.9834427000023;937.9834427000023;937.9911764999852;937.9911764999852;938.0319795000833;938.0319795000833;None;None;0;938.0319795000833;None;939.5319269001484;None;['9'];[0.29017430008389056];939.5319269001484;None;;;;;;Emoconpilot036;2021_Nov_10_1254;BackwardMask;2020.2.8;120.24780677529289;
;m;013_y_m_h_a.jpg;happy;9;8;m;008_y_m_n_a.jpg;neutral;incongruent;8;match;;120;170;;1;238;block2_Pilot_2;13;h_n;h_n_strong;;;;;0;1;1;1;0;10;10;10;;;;;;;;;942.5331035000272;None;944.5404449000489;944.8333232000005;944.8333232000005;944.8413220001385;944.8413220001385;944.8821487000678;944.8821487000678;None;None;0;944.8821487000678;None;946.382104499964;None;['9'];[0.3360882999841124];946.382104499964;None;;;;;;Emoconpilot036;2021_Nov_10_1254;BackwardMask;2020.2.8;120.24780677529289;
;f;040_y_f_h_a.jpg;happy;9;19;f;019_m_f_s_a.jpg;sad;incongruent;7;match;;120;160;;3;133;block2_Pilot_2;40;h_s;h_s_strong;;;;;0;1;1;1;0;11;11;11;;;;;;;;;949.3830250001047;None;950.4983477999922;950.7915413000155;950.7915413000155;950.8164514000528;950.8164514000528;950.8573297001421;950.8573297001421;None;9;0;950.8573297001421;None;952.3574451999739;None;['7'];[0.256658700061962];952.3574451999739;None;0.5807406001258641;;;;;Emoconpilot036;2021_Nov_10_1254;BackwardMask;2020.2.8;120.24780677529289;
;f;040_y_f_h_a.jpg;happy;9;13;m;013_y_m_s_a.jpg;sad;incongruent;7;mismatch;;120;160;;3;226;block2_Pilot_2;40;h_s;h_s_strong;;;;;0;1;1;1;0;12;12;12;;;;;;;;;955.3587130000815;None;957.2478112999815;957.541843800107;957.541843800107;957.566478200024;957.566478200024;957.6074238000438;957.6074238000438;None;9;0;957.6074238000438;None;959.1074836000334;None;['7'];[0.2666062000207603];959.1074836000334;None;0.48672889987938106;;;;;Emoconpilot036;2021_Nov_10_1254;BackwardMask;2020.2.8;120.24780677529289;
;f;030_o_f_s_a.jpg;sad;7;27;m;027_o_m_h_a.jpg;happy;incongruent;9;mismatch;;130;150;;1;238;block2_Pilot_2;30;s_h;s_h_strong;;;;;0;1;1;1;0;13;13;13;;;;;;;;;962.1084676999599;None;964.1128844001796;964.4088575001806;964.4088575001806;964.4167012001853;964.4167012001853;964.4575376999564;964.4575376999564;None;None;0;964.4575376999564;None;965.957537200069;None;['9'];[0.3765028000343591];965.957537200069;None;;;;;;Emoconpilot036;2021_Nov_10_1254;BackwardMask;2020.2.8;120.24780677529289;
;m;033_o_m_h_a.jpg;happy;9;30;f;030_o_f_s_a.jpg;sad;incongruent;7;mismatch;;120;160;;1;238;block2_Pilot_2;33;h_s;h_s_weak;;;;;0;1;1;1;0;14;14;14;;;;;;;;;968.95843720017;None;970.9484332001302;971.2419916000217;971.2419916000217;971.250254600076;971.250254600076;971.2909949000459;971.2909949000459;None;None;0;971.2909949000459;None;972.7909399999771;None;['9'];[0.3751833001151681];972.7909399999771;None;;;;;;Emoconpilot036;2021_Nov_10_1254;BackwardMask;2020.2.8;120.24780677529289;
;f;030_o_f_s_a.jpg;sad;7;28;f;028_y_f_n_a.jpg;neutral;incongruent;8;match;;130;170;;3;198;block2_Pilot_2;30;s_n;s_n_weak;;;;;0;1;1;1;0;15;15;15;;;;;;;;;975.791319699958;None;977.482107100077;977.7757880000863;977.7757880000863;977.8004250000231;977.8004250000231;977.8410688999575;977.8410688999575;None;8;1;977.8410688999575;None;979.342008800013;None;['8'];[0.5841330999974161];979.342008800013;None;1.0610885000787675;;;;;Emoconpilot036;2021_Nov_10_1254;BackwardMask;2020.2.8;120.24780677529289;
;f;030_o_f_s_a.jpg;sad;7;33;m;033_o_m_h_a.jpg;happy;incongruent;9;mismatch;;130;150;;3;175;block2_Pilot_2;30;s_h;s_h_weak;;;;;0;1;1;1;0;16;16;16;;;;;;;;;982.3412725001108;None;983.8197535001673;984.1093965000473;984.1093965000473;984.133743399987;984.133743399987;984.1745411001612;984.1745411001612;None;8;0;984.1745411001612;None;985.6748079999816;None;None;;985.6748079999816;None;0.8793292001355439;;;;;Emoconpilot036;2021_Nov_10_1254;BackwardMask;2020.2.8;120.24780677529289;
;f;021_o_f_h_a.jpg;happy;9;30;f;030_o_f_h_a.jpg;happy;congruent;9;match;;120;150;;2;194;block2_Pilot_2;21;h_h;h_h_strong;;;;;0;1;1;1;0;17;17;17;;;;;;;;;988.6746635001618;None;990.3115606000647;990.6012538999785;990.6012538999785;990.6170571001712;990.6170571001712;990.6580676001031;990.6580676001031;None;9;1;990.6580676001031;None;992.1582713001408;None;['7'];[0.4717957000248134];992.1582713001408;None;0.5641218000091612;;;;;Emoconpilot036;2021_Nov_10_1254;BackwardMask;2020.2.8;120.24780677529289;
;f;019_m_f_n_a.jpg;neutral;8;16;m;016_y_m_s_a.jpg;sad;incongruent;7;mismatch;;140;160;;18;163;block2_Pilot_2;19;n_s;n_s_weak;;;;;0;1;1;1;0;18;18;18;;;;;;;;;995.1589025000576;None;996.5356968000997;996.8263459000736;996.8263459000736;996.9757139000576;996.9757139000576;997.0166454000864;997.0166454000864;None;8;0;997.0166454000864;None;998.5164052001201;None;['7'];[0.2577913000714034];998.5164052001201;None;0.38948799995705485;;;;;Emoconpilot036;2021_Nov_10_1254;BackwardMask;2020.2.8;120.24780677529289;
;m;033_o_m_n_a.jpg;neutral;8;13;m;013_y_m_n_a.jpg;neutral;congruent;8;match;;140;170;;2;217;block2_Pilot_2;33;n_n;n_n_strong;;;;;0;1;1;1;0;19;19;19;;;;;;;;;1001.5174340000376;None;1003.3436484001577;1003.6348394001834;1003.6348394001834;1003.6506788001861;1003.6506788001861;1003.6917326000985;1003.6917326000985;None;8;1;1003.6917326000985;None;1005.1915913000703;None;['7'];[0.2786765000782907];1005.1915913000703;None;0.5224133001174778;;;;;Emoconpilot036;2021_Nov_10_1254;BackwardMask;2020.2.8;120.24780677529289;
;m;033_o_m_h_a.jpg;happy;9;13;m;013_y_m_n_a.jpg;neutral;incongruent;8;match;;120;170;;2;227;block2_Pilot_2;33;h_n;h_n_weak;;;;;0;1;1;1;0;20;20;20;;;;;;;;;1008.1921381000429;None;1010.0917319001164;1010.3844548000488;1010.3844548000488;1010.4010785999708;1010.4010785999708;1010.4417413000483;1010.4417413000483;None;9;0;1010.4417413000483;None;1011.9418391000945;None;['8'];[0.21632419992238283];1011.9418391000945;None;0.5003345001023263;;;;;Emoconpilot036;2021_Nov_10_1254;BackwardMask;2020.2.8;120.24780677529289;
;f;012_o_f_s_a.jpg;sad;7;16;m;016_y_m_n_a.jpg;neutral;incongruent;8;mismatch;;130;170;;1;238;block2_Pilot_2;12;s_n;s_n_weak;;;;;0;1;1;1;0;21;21;21;;;;;;;;;1014.9419009999838;None;1016.9294029001612;1017.2261095000431;1017.2261095000431;1017.2344539000187;1017.2344539000187;1017.27513059997;1017.27513059997;None;None;0;1017.27513059997;None;1018.7752309001517;None;['9'];[0.2789294000249356];1018.7752309001517;None;;;;;;Emoconpilot036;2021_Nov_10_1254;BackwardMask;2020.2.8;120.24780677529289;
;f;028_y_f_n_a.jpg;neutral;8;21;f;021_o_f_h_a.jpg;happy;incongruent;9;match;;140;150;;18;202;block2_Pilot_2;28;n_h;n_h_strong;;;;;0;1;1;1;0;22;22;22;;;;;;;;;1021.7762694000266;None;1023.4797342000529;1023.768378400011;1023.768378400011;1023.9179172001313;1023.9179172001313;1023.958752800012;1023.958752800012;None;8;0;1023.958752800012;None;1025.4586903001182;None;['7'];[0.3314658000599593];1025.4586903001182;None;0.3753502999898046;;;;;Emoconpilot036;2021_Nov_10_1254;BackwardMask;2020.2.8;120.24780677529289;
;f;028_y_f_s_a.jpg;sad;7;30;f;030_o_f_n_a.jpg;neutral;incongruent;8;match;;130;170;;2;127;block2_Pilot_2;28;s_n;s_n_weak;;;;;0;1;1;1;0;23;23;23;;;;;;;;;1028.4590447000228;None;1029.529126400128;1029.8183401999995;1029.8183401999995;1029.8347148001194;1029.8347148001194;1029.8753998000175;1029.8753998000175;None;8;1;1029.8753998000175;None;1031.3753982000053;None;['8'];[0.24668679991737008];1031.3753982000053;None;0.8186896000988781;;;;;Emoconpilot036;2021_Nov_10_1254;BackwardMask;2020.2.8;120.24780677529289;
;m;004_o_m_n_a.jpg;neutral;8;40;f;040_y_f_n_a.jpg;neutral;congruent;8;mismatch;;140;170;;1;238;block2_Pilot_2;4;n_n;n_n_weak;;;;;0;1;1;1;0;24;24;24;;;;;;;;;1034.3756430000067;None;1036.3785123999696;1036.6686303000897;1036.6686303000897;1036.6764706000686;1036.6764706000686;1036.7173431999981;1036.7173431999981;None;None;0;1036.7173431999981;None;1038.2172968999948;None;['9'];[0.5966280999127775];1038.2172968999948;None;;;;;;Emoconpilot036;2021_Nov_10_1254;BackwardMask;2020.2.8;120.24780677529289;
;m;016_y_m_n_a.jpg;neutral;8;16;m;016_y_m_h_a.jpg;happy;incongruent;9;match;;140;150;;18;239;block2_Pilot_2;16;n_h;n_h_weak;;;;;0;1;1;1;0;25;25;25;;;;;;;;;1041.2175740001258;None;1043.2277406000067;1043.518730300013;1043.518730300013;1043.6682741001714;1043.6682741001714;1043.7091840000357;1043.7091840000357;None;8;0;1043.7091840000357;None;1045.2089896001853;None;['7'];[0.3090244000777602];1045.2089896001853;None;0.42496549990028143;;;;;Emoconpilot036;2021_Nov_10_1254;BackwardMask;2020.2.8;120.24780677529289;
;f;012_o_f_n_a.jpg;neutral;8;33;m;033_o_m_n_a.jpg;neutral;congruent;8;mismatch;;140;170;;3;134;block2_Pilot_2;12;n_n;n_n_weak;;;;;0;1;1;1;0;26;26;26;;;;;;;;;1048.2100351001136;None;1049.3464029000606;1049.6356935000513;1049.6356935000513;1049.660112200072;1049.660112200072;1049.7010622001253;1049.7010622001253;None;8;1;1049.7010622001253;None;1051.2010076001752;None;['7'];[0.3170743999071419];1051.2010076001752;None;0.5288970000110567;;;;;Emoconpilot036;2021_Nov_10_1254;BackwardMask;2020.2.8;120.24780677529289;
;m;013_y_m_h_a.jpg;happy;9;27;m;027_o_m_s_a.jpg;sad;incongruent;7;match;;120;160;;2;194;block2_Pilot_2;13;h_s;h_s_strong;;;;;0;1;1;1;0;27;27;27;;;;;;;;;1054.2017821001355;None;1055.836998200044;1056.1274648001418;1056.1274648001418;1056.1433701000642;1056.1433701000642;1056.18428330007;1056.18428330007;None;9;0;1056.18428330007;None;1057.6844582001213;None;['7'];[0.2417657000478357];1057.6844582001213;None;0.4538557000923902;;;;;Emoconpilot036;2021_Nov_10_1254;BackwardMask;2020.2.8;120.24780677529289;
;m;013_y_m_n_a.jpg;neutral;8;28;f;028_y_f_n_a.jpg;neutral;congruent;8;mismatch;;140;170;;1;238;block2_Pilot_2;13;n_n;n_n_weak;;;;;0;1;1;1;0;28;28;28;;;;;;;;;1060.6853749000002;None;1062.6888674001675;1062.9775080999825;1062.9775080999825;1062.985340300016;1062.985340300016;1063.0261366001796;1063.0261366001796;None;None;0;1063.0261366001796;None;1064.526347400155;None;['9'];[0.30380419990979135];1064.526347400155;None;;;;;;Emoconpilot036;2021_Nov_10_1254;BackwardMask;2020.2.8;120.24780677529289;
;f;030_o_f_s_a.jpg;sad;7;33;m;033_o_m_h_a.jpg;happy;incongruent;9;mismatch;;130;150;;3;168;block2_Pilot_2;30;s_h;s_h_weak;;;;;0;1;1;1;0;29;29;29;;;;;;;;;1067.5268044001423;None;1068.9456037001219;1069.2359882001765;1069.2359882001765;1069.2604359001853;1069.2604359001853;1069.3014500001445;1069.3014500001445;None;8;0;1069.3014500001445;None;1070.8014148999937;None;['8'];[0.2687765001319349];1070.8014148999937;None;0.8246404998935759;;;;;Emoconpilot036;2021_Nov_10_1254;BackwardMask;2020.2.8;120.24780677529289;
;m;008_y_m_n_a.jpg;neutral;8;12;f;012_o_f_n_a.jpg;neutral;congruent;8;mismatch;;140;170;;18;208;block2_Pilot_2;8;n_n;n_n_weak;;;;;0;1;1;1;0;30;30;30;;;;;;;;;1073.8022350000683;None;1075.5552489000838;1075.844473700039;1075.844473700039;1075.9939307000022;1075.9939307000022;1076.0349161000922;1076.0349161000922;None;8;1;1076.0349161000922;None;1077.5350226000883;None;['7'];[0.2870587999932468];1077.5350226000883;None;0.4352647999767214;;;;;Emoconpilot036;2021_Nov_10_1254;BackwardMask;2020.2.8;120.24780677529289;
;m;008_y_m_s_a.jpg;sad;7;4;m;004_o_m_n_a.jpg;neutral;incongruent;8;match;;130;170;;2;231;block2_Pilot_2;8;s_n;s_n_weak;;;;;0;1;1;1;0;31;31;31;;;;;;;;;1080.5359102999792;None;1082.480424700072;1082.7697755000554;1082.7697755000554;1082.785796200158;1082.785796200158;1082.8266577001195;1082.8266577001195;None;7;0;1082.8266577001195;None;1084.3268631000537;None;['7'];[0.24737160000950098];1084.3268631000537;None;0.8114891999866813;;;;;Emoconpilot036;2021_Nov_10_1254;BackwardMask;2020.2.8;120.24780677529289;
;m;016_y_m_n_a.jpg;neutral;8;28;f;028_y_f_n_a.jpg;neutral;congruent;8;mismatch;;140;170;;2;218;block2_Pilot_2;16;n_n;n_n_weak;;;;;0;1;1;1;0;32;32;32;;;;;;;;;1087.3268936001696;None;1089.1628556000069;1089.4532618001103;1089.4532618001103;1089.469198100036;1089.469198100036;1089.509975900175;1089.509975900175;None;8;1;1089.509975900175;None;1091.0102491001599;None;['8'];[0.19572750013321638];1091.0102491001599;None;0.6640906999818981;;;;;Emoconpilot036;2021_Nov_10_1254;BackwardMask;2020.2.8;120.24780677529289;
;m;033_o_m_n_a.jpg;neutral;8;33;m;033_o_m_s_a.jpg;sad;incongruent;7;match;;140;160;;3;141;block2_Pilot_2;33;n_s;n_s_weak;;;;;0;1;1;1;0;33;33;33;;;;;;;;;1094.011181900045;None;1095.204589500092;1095.4951069999952;1095.4951069999952;1095.5193247001152;1095.5193247001152;1095.5601239001844;1095.5601239001844;None;8;0;1095.5601239001844;None;1097.0601465001237;None;['8'];[0.345839099958539];1097.0601465001237;None;0.4781069001182914;;;;;Emoconpilot036;2021_Nov_10_1254;BackwardMask;2020.2.8;120.24780677529289;
;m;016_y_m_n_a.jpg;neutral;8;13;m;013_y_m_s_a.jpg;sad;incongruent;7;match;;140;160;;1;238;block2_Pilot_2;16;n_s;n_s_weak;;;;;0;1;1;1;0;34;34;34;;;;;;;;;1100.0612111999653;None;1102.0631862001028;1102.353372800164;1102.353372800164;1102.3611056001391;1102.3611056001391;1102.401986700017;1102.401986700017;None;None;0;1102.401986700017;None;1103.9020287999883;None;['9'];[0.3040369001682848];1103.9020287999883;None;;;;;;Emoconpilot036;2021_Nov_10_1254;BackwardMask;2020.2.8;120.24780677529289;
;f;030_o_f_h_a.jpg;happy;9;12;f;012_o_f_n_a.jpg;neutral;incongruent;8;match;;120;170;;3;190;block2_Pilot_2;30;h_n;h_n_weak;;;;;0;1;1;1;0;35;35;35;;;;;;;;;1106.9029463999905;None;1108.505124400137;1108.79510019999;1108.79510019999;1108.8197085000575;1108.8197085000575;1108.8603954999708;1108.8603954999708;None;9;0;1108.8603954999708;None;1110.3608421999961;None;['7'];[0.30944300000555813];1110.3608421999961;None;0.5216069999150932;;;;;Emoconpilot036;2021_Nov_10_1254;BackwardMask;2020.2.8;120.24780677529289;
;f;030_o_f_s_a.jpg;sad;7;12;f;012_o_f_n_a.jpg;neutral;incongruent;8;match;;130;170;;3;197;block2_Pilot_2;30;s_n;s_n_strong;;;;;0;1;1;1;0;36;36;36;;;;;;;;;1113.361365400022;None;1115.0232657000888;1115.3120560001116;1115.3120560001116;1115.3364199001808;1115.3364199001808;1115.3771952001844;1115.3771952001844;None;8;1;1115.3771952001844;None;1116.877394300187;None;['8'];[0.19272209983319044];1116.877394300187;None;0.7488390998914838;;;;;Emoconpilot036;2021_Nov_10_1254;BackwardMask;2020.2.8;120.24780677529289;
;m;004_o_m_s_a.jpg;sad;7;8;m;008_y_m_h_a.jpg;happy;incongruent;9;match;;130;150;;3;201;block2_Pilot_2;4;s_h;s_h_strong;;;;;0;1;1;1;0;37;37;37;;;;;;;;;1119.8781155000906;None;1121.560318800155;1121.8533726001624;1121.8533726001624;1121.8782375999726;1121.8782375999726;1121.9190971001517;1121.9190971001517;None;8;0;1121.9190971001517;None;1123.4192380001768;None;['8'];[0.19486720021814108];1123.4192380001768;None;0.5031181001104414;;;;;Emoconpilot036;2021_Nov_10_1254;BackwardMask;2020.2.8;120.24780677529289;
;f;040_y_f_n_a.jpg;neutral;8;16;m;016_y_m_n_a.jpg;neutral;congruent;8;mismatch;;140;170;;3;198;block2_Pilot_2;40;n_n;n_n_strong;;;;;0;1;1;1;0;38;38;38;;;;;;;;;1126.4200103001203;None;1128.0912622001488;1128.387214400107;1128.387214400107;1128.411733200075;1128.411733200075;1128.4524805999827;1128.4524805999827;None;8;1;1128.4524805999827;None;1129.9528427000623;None;['7'];[0.44528279989026487];1129.9528427000623;None;1.105773099930957;;;;;Emoconpilot036;2021_Nov_10_1254;BackwardMask;2020.2.8;120.24780677529289;
;m;027_o_m_n_a.jpg;neutral;8;16;m;016_y_m_s_a.jpg;sad;incongruent;7;match;;140;160;;1;238;block2_Pilot_2;27;n_s;n_s_strong;;;;;0;1;1;1;0;39;39;39;;;;;;;;;1132.9534198001493;None;1134.9551795001607;1135.245822200086;1135.245822200086;1135.2536237000022;1135.2536237000022;1135.2942643000279;1135.2942643000279;None;None;0;1135.2942643000279;None;1136.7944647001568;None;['9'];[0.29977239994332194];1136.7944647001568;None;;;;;;Emoconpilot036;2021_Nov_10_1254;BackwardMask;2020.2.8;120.24780677529289;
;m;033_o_m_n_a.jpg;neutral;8;40;f;040_y_f_h_a.jpg;happy;incongruent;9;mismatch;;140;150;;2;137;block2_Pilot_2;33;n_h;n_h_strong;;;;;0;1;1;1;0;40;40;40;;;;;;;;;1139.794529600069;None;1140.9564430001192;1141.2459677001461;1141.2459677001461;1141.2619776001666;1141.2619776001666;1141.3028228001203;1141.3028228001203;None;8;0;1141.3028228001203;None;1142.8027254000772;None;['8'];[0.907464100047946];1142.8027254000772;None;0.7353999000042677;;;;;Emoconpilot036;2021_Nov_10_1254;BackwardMask;2020.2.8;120.24780677529289;
;m;004_o_m_s_a.jpg;sad;7;8;m;008_y_m_h_a.jpg;happy;incongruent;9;match;;130;150;;18;193;block2_Pilot_2;4;s_h;s_h_strong;;;;;0;1;1;1;0;41;41;41;;;;;;;;;1145.8035979000852;None;1147.4199163999874;1147.7121947000269;1147.7121947000269;1147.8621607001405;1147.8621607001405;1147.9029522000346;1147.9029522000346;None;7;0;1147.9029522000346;None;1149.4031273000874;None;['7'];[0.24301759991794825];1149.4031273000874;None;0.6713382001034915;;;;;Emoconpilot036;2021_Nov_10_1254;BackwardMask;2020.2.8;120.24780677529289;
;f;012_o_f_h_a.jpg;happy;9;4;m;004_o_m_s_a.jpg;sad;incongruent;7;mismatch;;120;160;;3;198;block2_Pilot_2;12;h_s;h_s_weak;;;;;0;1;1;1;0;42;42;42;;;;;;;;;1152.4031138999853;None;1154.0605464000255;1154.354216700187;1154.354216700187;1154.3788469999563;1154.3788469999563;1154.419772000052;1154.419772000052;None;9;0;1154.419772000052;None;1155.9198666999582;None;['7'];[0.23021299997344613];1155.9198666999582;None;0.4423626000061631;;;;;Emoconpilot036;2021_Nov_10_1254;BackwardMask;2020.2.8;120.24780677529289;
;f;012_o_f_n_a.jpg;neutral;8;8;m;008_y_m_s_a.jpg;sad;incongruent;7;mismatch;;140;160;;1;238;block2_Pilot_2;12;n_s;n_s_strong;;;;;0;1;1;1;0;43;43;43;;;;;;;;;1158.9208727001678;None;1160.923861300107;1161.2128747999668;1161.2128747999668;1161.220808400074;1161.220808400074;1161.2616519001313;1161.2616519001313;None;None;0;1161.2616519001313;None;1162.7617409999948;None;['9'];[0.37249890016391873];1162.7617409999948;None;;;;;;Emoconpilot036;2021_Nov_10_1254;BackwardMask;2020.2.8;120.24780677529289;
;f;040_y_f_n_a.jpg;neutral;8;8;m;008_y_m_n_a.jpg;neutral;congruent;8;mismatch;;140;170;;3;165;block2_Pilot_2;40;n_n;n_n_weak;;;;;0;1;1;1;0;44;44;44;;;;;;;;;1165.7615609001368;None;1167.1557696000673;1167.446419400163;1167.446419400163;1167.4709144001827;1167.4709144001827;1167.5114225000143;1167.5114225000143;None;8;1;1167.5114225000143;None;1169.0117872001138;None;['7'];[0.26644719997420907];1169.0117872001138;None;0.5267161000519991;;;;;Emoconpilot036;2021_Nov_10_1254;BackwardMask;2020.2.8;120.24780677529289;
;f;028_y_f_h_a.jpg;happy;9;33;m;033_o_m_n_a.jpg;neutral;incongruent;8;mismatch;;120;170;;1;238;block2_Pilot_2;28;h_n;h_n_strong;;;;;0;1;1;1;0;45;45;45;;;;;;;;;1172.0127477999777;None;1174.0069779001642;1174.2961508999579;1174.2961508999579;1174.3043700000271;1174.3043700000271;1174.3451637001708;1174.3451637001708;None;None;0;1174.3451637001708;None;1175.8454905999824;None;['9'];[0.3207090999931097];1175.8454905999824;None;;;;;;Emoconpilot036;2021_Nov_10_1254;BackwardMask;2020.2.8;120.24780677529289;
;m;027_o_m_s_a.jpg;sad;7;19;f;019_m_f_n_a.jpg;neutral;incongruent;8;mismatch;;130;170;;2;236;block2_Pilot_2;27;s_n;s_n_weak;;;;;0;1;1;1;0;46;46;46;;;;;;;;;1178.8459618999623;None;1180.8196825000923;1181.1127558001317;1181.1127558001317;1181.1295430001337;1181.1295430001337;1181.1703329000156;1181.1703329000156;None;8;1;1181.1703329000156;None;1182.6704726000316;None;['8'];[0.23172900010831654];1182.6704726000316;None;0.45983520010486245;;;;;Emoconpilot036;2021_Nov_10_1254;BackwardMask;2020.2.8;120.24780677529289;
;m;027_o_m_h_a.jpg;happy;9;19;f;019_m_f_s_a.jpg;sad;incongruent;7;mismatch;;120;160;;1;238;block2_Pilot_2;27;h_s;h_s_strong;;;;;0;1;1;1;0;47;47;47;;;;;;;;;1185.6711882001255;None;1187.678748600185;1187.9718433001544;1187.9718433001544;1187.9796233000234;1187.9796233000234;1188.0204829000868;1188.0204829000868;None;None;0;1188.0204829000868;None;1189.520866200095;None;['9'];[0.3893168999347836];1189.520866200095;None;;;;;;Emoconpilot036;2021_Nov_10_1254;BackwardMask;2020.2.8;120.24780677529289;
;m;016_y_m_h_a.jpg;happy;9;4;m;004_o_m_s_a.jpg;sad;incongruent;7;match;;120;160;;3;227;block2_Pilot_2;16;h_s;h_s_strong;;;;;0;1;1;1;0;48;48;48;;;;;;;;;1192.5210506999865;None;1194.4205063001718;1194.7132155001163;1194.7132155001163;1194.738341400167;1194.738341400167;1194.7790090001654;1194.7790090001654;None;9;0;1194.7790090001654;None;1196.2789480001666;None;['7'];[0.2870344999246299];1196.2789480001666;None;0.6109585999511182;;;;;Emoconpilot036;2021_Nov_10_1254;BackwardMask;2020.2.8;120.24780677529289;
;f;040_y_f_h_a.jpg;happy;9;13;m;013_y_m_h_a.jpg;happy;congruent;9;mismatch;;120;150;;3;165;block2_Pilot_2;40;h_h;h_h_strong;;;;;0;1;1;1;0;49;49;49;;;;;;;;;1199.2804014000576;None;1200.662099200068;1200.9549360000528;1200.9549360000528;1200.9798567001708;1200.9798567001708;1201.0206297000404;1201.0206297000404;None;9;1;1201.0206297000404;None;1202.5210416000336;None;['7'];[0.3651656999718398];1202.5210416000336;None;0.48157700011506677;;;;;Emoconpilot036;2021_Nov_10_1254;BackwardMask;2020.2.8;120.24780677529289;
;m;033_o_m_s_a.jpg;sad;7;28;f;028_y_f_n_a.jpg;neutral;incongruent;8;mismatch;;130;170;;2;227;block2_Pilot_2;33;s_n;s_n_weak;;;;;0;1;1;1;0;50;50;50;;;;;;;;;1205.521628400078;None;1207.4212027001195;1207.713686699979;1207.713686699979;1207.730128900148;1207.730128900148;1207.7707965001464;1207.7707965001464;None;8;1;1207.7707965001464;None;1209.2708561001346;None;['8'];[0.24734779982827604];1209.2708561001346;None;0.6272758999839425;;;;;Emoconpilot036;2021_Nov_10_1254;BackwardMask;2020.2.8;120.24780677529289;
;f;019_m_f_s_a.jpg;sad;7;27;m;027_o_m_h_a.jpg;happy;incongruent;9;mismatch;;130;150;;1;238;block2_Pilot_2;19;s_h;s_h_weak;;;;;0;1;1;1;0;51;51;51;;;;;;;;;1212.271816200111;None;1214.2826190001797;1214.5724472999573;1214.5724472999573;1214.5802106000483;1214.5802106000483;1214.6209301000927;1214.6209301000927;None;None;0;1214.6209301000927;None;1216.121189000085;None;['9'];[0.30109339999035];1216.121189000085;None;;;;;;Emoconpilot036;2021_Nov_10_1254;BackwardMask;2020.2.8;120.24780677529289;
;m;016_y_m_h_a.jpg;happy;9;19;f;019_m_f_n_a.jpg;neutral;incongruent;8;mismatch;;120;170;;18;238;block2_Pilot_2;16;h_n;h_n_strong;;;;;0;1;1;1;0;52;52;52;;;;;;;;;1219.122375200037;None;1221.1121098999865;1221.4053978000302;1221.4053978000302;1221.5553572000936;1221.5553572000936;1221.5961488001049;1221.5961488001049;None;9;0;1221.5961488001049;None;1223.0970489999745;None;['7'];[0.26108020008541644];1223.0970489999745;None;0.498050200054422;;;;;Emoconpilot036;2021_Nov_10_1254;BackwardMask;2020.2.8;120.24780677529289;
;f;021_o_f_s_a.jpg;sad;7;8;m;008_y_m_n_a.jpg;neutral;incongruent;8;mismatch;;130;170;;1;238;block2_Pilot_2;21;s_n;s_n_strong;;;;;0;1;1;1;0;53;53;53;;;;;;;;;1226.09628050006;None;1228.085063799983;1228.3805468000937;1228.3805468000937;1228.3888297001831;1228.3888297001831;1228.4297134999651;1228.4297134999651;None;None;0;1228.4297134999651;None;1229.9297086000443;None;['9'];[0.29252059990540147];1229.9297086000443;None;;;;;;Emoconpilot036;2021_Nov_10_1254;BackwardMask;2020.2.8;120.24780677529289;
;f;012_o_f_s_a.jpg;sad;7;33;m;033_o_m_s_a.jpg;sad;congruent;7;mismatch;;130;160;;2;148;block2_Pilot_2;12;s_s;s_s_weak;;;;;0;1;1;1;0;54;54;54;;;;;;;;;1232.9307320001535;None;1234.16726440005;1234.4640713001136;1234.4640713001136;1234.4805221001152;1234.4805221001152;1234.5213202000596;1234.5213202000596;None;8;0;1234.5213202000596;None;1236.0215474001598;None;['8'];[0.24869660008698702];1236.0215474001598;None;0.548834899906069;;;;;Emoconpilot036;2021_Nov_10_1254;BackwardMask;2020.2.8;120.24780677529289;
;f;030_o_f_s_a.jpg;sad;7;40;f;040_y_f_s_a.jpg;sad;congruent;7;match;;130;160;;3;136;block2_Pilot_2;30;s_s;s_s_strong;;;;;0;1;1;1;0;55;55;55;;;;;;;;;1239.0228590001352;None;1240.1798721000087;1240.4729929000605;1240.4729929000605;1240.4973624001723;1240.4973624001723;1240.53813120001;1240.53813120001;None;8;0;1240.53813120001;None;1242.038478600094;None;['8'];[0.2798067000694573];1242.038478600094;None;0.9320918000303209;;;;;Emoconpilot036;2021_Nov_10_1254;BackwardMask;2020.2.8;120.24780677529289;
;m;027_o_m_s_a.jpg;sad;7;28;f;028_y_f_h_a.jpg;happy;incongruent;9;mismatch;;130;150;;1;238;block2_Pilot_2;27;s_h;s_h_weak;;;;;0;1;1;1;0;56;56;56;;;;;;;;;1245.0392033001408;None;1247.0296759000048;1247.3226983000059;1247.3226983000059;1247.330824200064;1247.330824200064;1247.3716992000118;1247.3716992000118;None;None;0;1247.3716992000118;None;1248.8717690000776;None;['9'];[0.3262977998238057];1248.8717690000776;None;;;;;;Emoconpilot036;2021_Nov_10_1254;BackwardMask;2020.2.8;120.24780677529289;
;m;004_o_m_n_a.jpg;neutral;8;8;m;008_y_m_s_a.jpg;sad;incongruent;7;match;;140;160;;3;225;block2_Pilot_2;4;n_s;n_s_strong;;;;;0;1;1;1;0;57;57;57;;;;;;;;;1251.8729479000904;None;1253.789663700154;1254.0816042001825;1254.0816042001825;1254.1059787999839;1254.1059787999839;1254.1467748000287;1254.1467748000287;None;8;0;1254.1467748000287;None;1255.6469517999794;None;['7'];[0.7592229000292718];1255.6469517999794;None;0.6195243999827653;;;;;Emoconpilot036;2021_Nov_10_1254;BackwardMask;2020.2.8;120.24780677529289;
;f;012_o_f_s_a.jpg;sad;7;40;f;040_y_f_s_a.jpg;sad;congruent;7;match;;130;160;;1;238;block2_Pilot_2;12;s_s;s_s_strong;;;;;0;1;1;1;0;58;58;58;;;;;;;;;1258.6470582000911;None;1260.6342492001131;1260.9312295001;1260.9312295001;1260.939509900054;1260.939509900054;1260.9802840000484;1260.9802840000484;None;None;0;1260.9802840000484;None;1262.4803735001478;None;['9'];[0.33367269998416305];1262.4803735001478;None;;;;;;Emoconpilot036;2021_Nov_10_1254;BackwardMask;2020.2.8;120.24780677529289;
;f;021_o_f_h_a.jpg;happy;9;4;m;004_o_m_n_a.jpg;neutral;incongruent;8;mismatch;;120;170;;1;238;block2_Pilot_2;21;h_n;h_n_weak;;;;;0;1;1;1;0;59;59;59;;;;;;;;;1265.480406400049;None;1267.4841031001415;1267.7735071000643;1267.7735071000643;1267.7813699999824;1267.7813699999824;1267.822232000064;1267.822232000064;None;None;0;1267.822232000064;None;1269.3221309001092;None;['9'];[0.3160721999593079];1269.3221309001092;None;;;;;;Emoconpilot036;2021_Nov_10_1254;BackwardMask;2020.2.8;120.24780677529289;
;f;040_y_f_h_a.jpg;happy;9;16;m;016_y_m_n_a.jpg;neutral;incongruent;8;mismatch;;120;170;;2;154;block2_Pilot_2;40;h_n;h_n_weak;;;;;0;1;1;1;0;60;60;60;;;;;;;;;1272.322302200133;None;1273.6133040999994;1273.9065080999862;1273.9065080999862;1273.9230837000068;1273.9230837000068;1273.963795900112;1273.963795900112;None;8;1;1273.963795900112;None;1275.463799300138;None;['8'];[0.25430979998782277];1275.463799300138;None;1.0263971001841128;;;;;Emoconpilot036;2021_Nov_10_1254;BackwardMask;2020.2.8;120.24780677529289;
;m;008_y_m_n_a.jpg;neutral;8;4;m;004_o_m_s_a.jpg;sad;incongruent;7;match;;140;160;;18;145;block2_Pilot_2;8;n_s;n_s_strong;;;;;0;1;1;1;0;61;61;61;;;;;;;;;1278.4647672001738;None;1279.6929365000688;1279.982028500177;1279.982028500177;1280.1314869001508;1280.1314869001508;1280.1723774999846;1280.1723774999846;None;8;0;1280.1723774999846;None;1281.672594100004;None;['7'];[0.3175392998382449];1281.672594100004;None;0.41769470018334687;;;;;Emoconpilot036;2021_Nov_10_1254;BackwardMask;2020.2.8;120.24780677529289;
;f;021_o_f_s_a.jpg;sad;7;33;m;033_o_m_h_a.jpg;happy;incongruent;9;mismatch;;130;150;;1;238;block2_Pilot_2;21;s_h;s_h_strong;;;;;0;1;1;1;0;62;62;62;;;;;;;;;1284.6726740000304;None;1286.661915200064;1286.9568813000806;1286.9568813000806;1286.9651063000783;1286.9651063000783;1287.0059071001597;1287.0059071001597;None;None;0;1287.0059071001597;None;1288.5059334000107;None;['9'];[0.41222680010832846];1288.5059334000107;None;;;;;;Emoconpilot036;2021_Nov_10_1254;BackwardMask;2020.2.8;120.24780677529289;
;m;033_o_m_n_a.jpg;neutral;8;30;f;030_o_f_h_a.jpg;happy;incongruent;9;mismatch;;140;150;;18;171;block2_Pilot_2;33;n_h;n_h_weak;;;;;0;1;1;1;0;63;63;63;;;;;;;;;1291.5068399000447;None;1292.9517809001263;1293.2406008001417;1293.2406008001417;1293.3902545000892;1293.3902545000892;1293.4310353000183;1293.4310353000183;None;8;0;1293.4310353000183;None;1294.931648600148;None;['7'];[0.2905334001407027];1294.931648600148;None;0.3911894001066685;;;;;Emoconpilot036;2021_Nov_10_1254;BackwardMask;2020.2.8;120.24780677529289;
;m;027_o_m_n_a.jpg;neutral;8;27;m;027_o_m_h_a.jpg;happy;incongruent;9;match;;140;150;;2;164;block2_Pilot_2;27;n_h;n_h_weak;;;;;0;1;1;1;0;64;64;64;;;;;;;;;1297.9311957999598;None;1299.3163251001388;1299.6076039001346;1299.6076039001346;1299.6234570001252;1299.6234570001252;1299.6644596001133;1299.6644596001133;None;None;0;1299.6644596001133;None;1301.16442549997;None;['9'];[0.2977730000857264];1301.16442549997;None;;;;;;Emoconpilot036;2021_Nov_10_1254;BackwardMask;2020.2.8;120.24780677529289;
;m;008_y_m_n_a.jpg;neutral;8;40;f;040_y_f_n_a.jpg;neutral;congruent;8;mismatch;;140;170;;1;238;block2_Pilot_2;8;n_n;n_n_strong;;;;;0;1;1;1;0;65;65;65;;;;;;;;;1304.1653196001425;None;1306.1670111001004;1306.45778409997;1306.45778409997;1306.4654700001702;1306.4654700001702;1306.5062291000504;1306.5062291000504;None;None;0;1306.5062291000504;None;1308.0064540000167;None;['9'];[0.3196774998214096];1308.0064540000167;None;;;;;;Emoconpilot036;2021_Nov_10_1254;BackwardMask;2020.2.8;120.24780677529289;
;f;040_y_f_h_a.jpg;happy;9;21;f;021_o_f_n_a.jpg;neutral;incongruent;8;match;;120;170;;18;239;block2_Pilot_2;40;h_n;h_n_strong;;;;;0;1;1;1;0;66;66;66;;;;;;;;;1311.0064284000546;None;1313.0057602999732;1313.2992366000544;1313.2992366000544;1313.4487465999555;1313.4487465999555;1313.4897543000989;1313.4897543000989;None;9;0;1313.4897543000989;None;1314.9896337999962;None;['7'];[0.17629730002954602];1314.9896337999962;None;0.3804189001675695;;;;;Emoconpilot036;2021_Nov_10_1254;BackwardMask;2020.2.8;120.24780677529289;
;f;021_o_f_s_a.jpg;sad;7;28;f;028_y_f_h_a.jpg;happy;incongruent;9;match;;130;150;;1;238;block2_Pilot_2;21;s_h;s_h_weak;;;;;0;1;1;1;0;67;67;67;;;;;;;;;1317.9906892001163;None;1319.9786000000313;1320.274155100109;1320.274155100109;1320.282377100084;1320.282377100084;1320.3232273000758;1320.3232273000758;None;None;0;1320.3232273000758;None;1321.8233410001267;None;['9'];[0.2547700998838991];1321.8233410001267;None;;;;;;Emoconpilot036;2021_Nov_10_1254;BackwardMask;2020.2.8;120.24780677529289;
;f;021_o_f_n_a.jpg;neutral;8;30;f;030_o_f_n_a.jpg;neutral;congruent;8;match;;140;170;;2;209;block2_Pilot_2;21;n_n;n_n_strong;;;;;0;1;1;1;0;68;68;68;;;;;;;;;1324.8236038000323;None;1326.6003640000708;1326.8913211000618;1326.8913211000618;1326.9075518001337;1326.9075518001337;1326.9484592999797;1326.9484592999797;None;8;1;1326.9484592999797;None;1328.448286900064;None;['7'];[0.4938775000628084];1328.448286900064;None;0.689690199913457;;;;;Emoconpilot036;2021_Nov_10_1254;BackwardMask;2020.2.8;120.24780677529289;
;f;040_y_f_s_a.jpg;sad;7;13;m;013_y_m_s_a.jpg;sad;congruent;7;mismatch;;130;160;;3;147;block2_Pilot_2;40;s_s;s_s_strong;;;;;0;1;1;1;0;69;69;69;;;;;;;;;1331.4484197001439;None;1332.6817744001746;1332.9745420000982;1332.9745420000982;1332.999318300048;1332.999318300048;1333.0402000001632;1333.0402000001632;None;7;1;1333.0402000001632;None;1334.540259100031;None;['8'];[0.2499418999068439];1334.540259100031;None;0.8297341000288725;;;;;Emoconpilot036;2021_Nov_10_1254;BackwardMask;2020.2.8;120.24780677529289;
;f;040_y_f_s_a.jpg;sad;7;21;f;021_o_f_h_a.jpg;happy;incongruent;9;match;;130;150;;3;172;block2_Pilot_2;40;s_h;s_h_strong;;;;;0;1;1;1;0;70;70;70;;;;;;;;;1337.5403226001654;None;1338.9803985999897;1339.2745952999685;1339.2745952999685;1339.2996504001785;1339.2996504001785;1339.3401445001364;1339.3401445001364;None;8;0;1339.3401445001364;None;1340.8403521000873;None;['7'];[0.5177883000578731];1340.8403521000873;None;0.56191990012303;;;;;Emoconpilot036;2021_Nov_10_1254;BackwardMask;2020.2.8;120.24780677529289;
;m;013_y_m_s_a.jpg;sad;7;16;m;016_y_m_n_a.jpg;neutral;incongruent;8;match;;130;170;;1;238;block2_Pilot_2;13;s_n;s_n_strong;;;;;0;1;1;1;0;71;71;71;;;;;;;;;1343.8406150999945;None;1345.832613900071;1346.1247003001627;1346.1247003001627;1346.1329094001558;1346.1329094001558;1346.173741800012;1346.173741800012;None;None;0;1346.173741800012;None;1347.6737432000227;None;['9'];[0.3724418000783771];1347.6737432000227;None;;;;;;Emoconpilot036;2021_Nov_10_1254;BackwardMask;2020.2.8;120.24780677529289;
