Person;primeGender;prime;primeEmotion;corrAnsPrime;targetPerson;targetGender;target;targetEmotion;Cond;corrAnsTar;gender;condition;ID_primer;ID_target;PrimerTime;PrimerTime120;JitterTime;conditionsFile;primePerson;emotion_condition;Condition;example.thisRepN;example.thisTrialN;example.thisN;example.thisIndex;readinBlocks.thisRepN;readinBlocks.thisTrialN;readinBlocks.thisN;readinBlocks.thisIndex;trials.thisRepN;trials.thisTrialN;trials.thisN;trials.thisIndex;text_intro.started;text_intro.stopped;text_probe.started;text_probe.stopped;key_resp_2.keys;key_resp_2.rt;key_resp_2.started;key_resp_2.stopped;polygon_ISI.started;polygon_ISI.stopped;polygon.started;polygon.stopped;primerImage.started;primerImage.stopped;maskImage.started;maskImage.stopped;response.started;response.stopped;key_resp.keys;key_resp.corr;key_resp.started;key_resp.stopped;text.started;text.stopped;key_resp_Rating.keys;key_resp_Rating.started;key_resp_Rating.stopped;key_resp.rt;key_resp_Rating.rt;text_start.started;text_start.stopped;text_pause.started;text_pause.stopped;text_ende.started;text_ende.stopped;participant;date;expName;psychopyVersion;frameRate;
;;;;;;;;;;;;;;;;;;;;;;;;;;;;;;;;;;16.258058999999776;21.22630549999849;21.22630549999849;None;7;12.879920899998979;16.258058999999776;None;;;;;;;;;;;;;;;;;;;;;;;;;;;;Emoconpilot047;2022_Jan_07_1536;BackwardMask;2020.2.8;120.10021161764243;
2;f;1113_y_f_s_a.jpg;sad;7;1;m;1111_m_m_h_a.jpg;happy;incongruent;9;mix;s+h;130;150;1;2;148;;;;;0;0;0;0;;;;;;;;;;;;;;;;;29.170321199999307;None;30.416148799999064;30.73078219999843;30.73078219999843;30.752264299999297;30.752264299999297;30.785210599999118;30.785210599999118;None;None;0;30.785210599999118;None;32.28587100000004;None;None;32.28587100000004;None;;;;;;;;;Emoconpilot047;2022_Jan_07_1536;BackwardMask;2020.2.8;120.10021161764243;
2;f;1111_m_m_h_a.jpg;happy;9;3;f;1113_y_f_s_a.jpg;sad;incongruent;7;mix;h+s;120;160;9;18;195;;;;;0;1;1;1;;;;;;;;;;;;;;;;;35.285727399999814;None;36.933656999999585;37.227292800000214;37.227292800000214;37.3766416999988;37.3766416999988;37.41765639999903;37.41765639999903;None;9;0;37.41765639999903;None;38.91758200000004;None;['7'];38.91758200000004;None;0.7282185000003665;[0.476290999999037];;;;;;;Emoconpilot047;2022_Jan_07_1536;BackwardMask;2020.2.8;120.10021161764243;
2;f;1112_m_f_n_a.jpg;neutral;8;2;f;1112_m_f_n_a.jpg;neutral;congruent;8;match;n+n;140;170;9;18;134;;;;;0;2;2;2;;;;;;;;;;;;;;;;;41.91775889999917;None;43.055595199999516;43.34404539999923;43.34404539999923;43.49353639999936;43.49353639999936;43.53438889999961;43.53438889999961;None;8;1;43.53438889999961;None;45.034412599999996;None;['7'];45.034412599999996;None;0.451383600000554;[0.4074728000014147];;;;;;;Emoconpilot047;2022_Jan_07_1536;BackwardMask;2020.2.8;120.10021161764243;
;m;033_o_m_h_a.jpg;happy;9;30;f;030_o_f_n_a.jpg;neutral;incongruent;8;mismatch;;120;170;;18;238;block1_Pilot_2;33;h_n;h_n_strong;;;;;0;0;0;0;0;0;0;0;;;;;;;;;49.066092999999455;None;51.056175199999416;51.35236609999993;51.35236609999993;51.50218399999903;51.50218399999903;51.543522899999516;51.543522899999516;None;9;0;51.543522899999516;None;53.043705000000045;None;['7'];53.043705000000045;None;0.45037740000043414;[0.35030819999883533];48.035782400000244;None;None;None;;;Emoconpilot047;2022_Jan_07_1536;BackwardMask;2020.2.8;120.10021161764243;
;m;004_o_m_h_a.jpg;happy;9;12;f;012_o_f_h_a.jpg;happy;congruent;9;mismatch;;120;150;;2;218;block1_Pilot_2;4;h_h;h_h_weak;;;;;0;0;0;0;0;1;1;1;;;;;;;;;56.043705500000215;None;57.91116489999877;58.202697999999145;58.202697999999145;58.21890449999955;58.21890449999955;58.2594382999996;58.2594382999996;None;None;0;58.2594382999996;None;59.75957559999915;None;['9'];59.75957559999915;None;;[0.45843169999898237];;;;;;;Emoconpilot047;2022_Jan_07_1536;BackwardMask;2020.2.8;120.10021161764243;
;f;012_o_f_h_a.jpg;happy;9;33;m;033_o_m_h_a.jpg;happy;congruent;9;mismatch;;120;150;;2;140;block1_Pilot_2;12;h_h;h_h_weak;;;;;0;0;0;0;0;2;2;2;;;;;;;;;62.759623799998735;None;63.935351599999194;64.22759319999932;64.22759319999932;64.2438889999994;64.2438889999994;64.28452759999891;64.28452759999891;None;None;0;64.28452759999891;None;65.78466169999956;None;['9'];65.78466169999956;None;;[0.4170573000010336];;;;;;;Emoconpilot047;2022_Jan_07_1536;BackwardMask;2020.2.8;120.10021161764243;
;f;040_y_f_n_a.jpg;neutral;8;40;f;040_y_f_h_a.jpg;happy;incongruent;9;match;;140;150;;2;192;block1_Pilot_2;40;n_h;n_h_weak;;;;;0;0;0;0;0;3;3;3;;;;;;;;;68.78507919999902;None;70.40895769999952;70.7028410999992;70.7028410999992;70.71892339999977;70.71892339999977;70.75952019999932;70.75952019999932;None;9;1;70.75952019999932;None;72.2600182999995;None;['8'];72.2600182999995;None;1.0021962000009808;[0.37381120000100054];;;;;;;Emoconpilot047;2022_Jan_07_1536;BackwardMask;2020.2.8;120.10021161764243;
;m;013_y_m_s_a.jpg;sad;7;16;m;016_y_m_n_a.jpg;neutral;incongruent;8;match;;130;170;;3;155;block1_Pilot_2;13;s_n;s_n_weak;;;;;0;0;0;0;0;4;4;4;;;;;;;;;75.26010449999922;None;76.56353219999983;76.85248409999986;76.85248409999986;76.87739879999936;76.87739879999936;76.91798000000017;76.91798000000017;None;7;0;76.91798000000017;None;78.41817169999922;None;['7'];78.41817169999922;None;0.8438111000014032;[0.2875146999995195];;;;;;;Emoconpilot047;2022_Jan_07_1536;BackwardMask;2020.2.8;120.10021161764243;
;f;012_o_f_h_a.jpg;happy;9;21;f;021_o_f_h_a.jpg;happy;congruent;9;match;;120;150;;2;216;block1_Pilot_2;12;h_h;h_h_strong;;;;;0;0;0;0;0;5;5;5;;;;;;;;;81.4183342999986;None;83.22722160000012;83.51926039999853;83.51926039999853;83.53585839999869;83.53585839999869;83.57651359999909;83.57651359999909;None;9;1;83.57651359999909;None;85.07664049999948;None;['8'];85.07664049999948;None;0.9292397999997775;[0.30906640000102925];;;;;;;Emoconpilot047;2022_Jan_07_1536;BackwardMask;2020.2.8;120.10021161764243;
;f;040_y_f_s_a.jpg;sad;7;40;f;040_y_f_h_a.jpg;happy;incongruent;9;match;;130;150;;1;238;block1_Pilot_2;40;s_h;s_h_weak;;;;;0;0;0;0;0;6;6;6;;;;;;;;;88.0767595999987;None;90.06803119999859;90.36106329999893;90.36106329999893;90.36921979999897;90.36921979999897;90.40992449999976;90.40992449999976;None;None;0;90.40992449999976;None;91.9100097999999;None;['9'];91.9100097999999;None;;[0.3716767999994772];;;;;;;Emoconpilot047;2022_Jan_07_1536;BackwardMask;2020.2.8;120.10021161764243;
;m;033_o_m_n_a.jpg;neutral;8;27;m;027_o_m_n_a.jpg;neutral;congruent;8;match;;140;170;;18;238;block1_Pilot_2;33;n_n;n_n_weak;;;;;0;0;0;0;0;7;7;7;;;;;;;;;94.91021759999967;None;96.93080229999941;97.22012099999847;97.22012099999847;97.36934079999992;97.36934079999992;97.41025199999967;97.41025199999967;None;8;1;97.41025199999967;None;98.91020049999861;None;['7'];98.91020049999861;None;0.6156087999988813;[0.38750570000047446];;;;;;;Emoconpilot047;2022_Jan_07_1536;BackwardMask;2020.2.8;120.10021161764243;
;f;040_y_f_h_a.jpg;happy;9;19;f;019_m_f_n_a.jpg;neutral;incongruent;8;match;;120;170;;1;238;block1_Pilot_2;40;h_n;h_n_strong;;;;;0;0;0;0;0;8;8;8;;;;;;;;;101.91110010000011;None;103.90257479999855;104.19489859999885;104.19489859999885;104.20284840000022;104.20284840000022;104.2438678999988;104.2438678999988;None;None;0;104.2438678999988;None;105.74409589999959;None;['9'];105.74409589999959;None;;[0.393792000000758];;;;;;;Emoconpilot047;2022_Jan_07_1536;BackwardMask;2020.2.8;120.10021161764243;
;m;013_y_m_h_a.jpg;happy;9;12;f;012_o_f_s_a.jpg;sad;incongruent;7;mismatch;;120;160;;3;198;block1_Pilot_2;13;h_s;h_s_weak;;;;;0;0;0;0;0;9;9;9;;;;;;;;;108.74524930000007;None;110.44478119999985;110.73714319999999;110.73714319999999;110.76164299999982;110.76164299999982;110.8023921999993;110.8023921999993;None;9;0;110.8023921999993;None;112.30243199999859;None;['7'];112.30243199999859;None;0.607496299999184;[0.29948700000022654];;;;;;;Emoconpilot047;2022_Jan_07_1536;BackwardMask;2020.2.8;120.10021161764243;
;m;008_y_m_h_a.jpg;happy;9;4;m;004_o_m_n_a.jpg;neutral;incongruent;8;match;;120;170;;18;150;block1_Pilot_2;8;h_n;h_n_strong;;;;;0;0;0;0;0;10;10;10;;;;;;;;;115.30269869999938;None;116.5601545999998;116.85353679999935;116.85353679999935;117.003378899999;117.003378899999;117.04430839999986;117.04430839999986;None;9;0;117.04430839999986;None;118.54419509999934;None;['7'];118.54419509999934;None;0.4214327999998204;[0.3216783999996551];;;;;;;Emoconpilot047;2022_Jan_07_1536;BackwardMask;2020.2.8;120.10021161764243;
;f;019_m_f_h_a.jpg;happy;9;27;m;027_o_m_s_a.jpg;sad;incongruent;7;mismatch;;120;160;;1;238;block1_Pilot_2;19;h_s;h_s_weak;;;;;0;0;0;0;0;11;11;11;;;;;;;;;121.54514709999967;None;123.53582779999851;123.82870399999956;123.82870399999956;123.83687680000003;123.83687680000003;123.87782349999907;123.87782349999907;None;None;0;123.87782349999907;None;125.37781600000017;None;['9'];125.37781600000017;None;;[0.464090400000714];;;;;;;Emoconpilot047;2022_Jan_07_1536;BackwardMask;2020.2.8;120.10021161764243;
;m;016_y_m_s_a.jpg;sad;7;4;m;004_o_m_s_a.jpg;sad;congruent;7;match;;130;160;;18;142;block1_Pilot_2;16;s_s;s_s_strong;;;;;0;0;0;0;0;12;12;12;;;;;;;;;128.37791019999895;None;129.56873879999875;129.86210519999986;129.86210519999986;130.0119496999996;130.0119496999996;130.05297169999903;130.05297169999903;None;7;1;130.05297169999903;None;131.5528435999986;None;['7'];131.5528435999986;None;0.4768888999988121;[0.36903979999988223];;;;;;;Emoconpilot047;2022_Jan_07_1536;BackwardMask;2020.2.8;120.10021161764243;
;f;021_o_f_n_a.jpg;neutral;8;21;f;021_o_f_h_a.jpg;happy;incongruent;9;match;;140;150;;3;171;block1_Pilot_2;21;n_h;n_h_weak;;;;;0;0;0;0;0;13;13;13;;;;;;;;;134.55434859999878;None;135.99992969999948;136.29617189999954;136.29617189999954;136.32040609999967;136.32040609999967;136.3612916000002;136.3612916000002;None;7;0;136.3612916000002;None;137.86144859999877;None;['8'];137.86144859999877;None;0.8245432000003348;[0.37249030000020866];;;;;;;Emoconpilot047;2022_Jan_07_1536;BackwardMask;2020.2.8;120.10021161764243;
;f;012_o_f_h_a.jpg;happy;9;13;m;013_y_m_h_a.jpg;happy;congruent;9;mismatch;;120;150;;3;213;block1_Pilot_2;12;h_h;h_h_weak;;;;;0;0;0;0;0;14;14;14;;;;;;;;;140.86227979999967;None;142.64447649999966;142.93737689999944;142.93737689999944;142.96205649999865;142.96205649999865;143.00318119999974;143.00318119999974;None;9;1;143.00318119999974;None;144.50309449999986;None;['7'];144.50309449999986;None;0.5187029999997321;[0.27471780000087165];;;;;;;Emoconpilot047;2022_Jan_07_1536;BackwardMask;2020.2.8;120.10021161764243;
;f;021_o_f_s_a.jpg;sad;7;27;m;027_o_m_n_a.jpg;neutral;incongruent;8;mismatch;;130;170;;3;174;block1_Pilot_2;21;s_n;s_n_weak;;;;;0;0;0;0;0;15;15;15;;;;;;;;;147.50354530000004;None;148.95915929999865;149.25438049999866;149.25438049999866;149.27908099999877;149.27908099999877;149.31978139999956;149.31978139999956;None;7;0;149.31978139999956;None;150.8200025999995;None;['8'];150.8200025999995;None;0.8820660000001226;[0.29372909999983676];;;;;;;Emoconpilot047;2022_Jan_07_1536;BackwardMask;2020.2.8;120.10021161764243;
;f;019_m_f_n_a.jpg;neutral;8;19;f;019_m_f_h_a.jpg;happy;incongruent;9;match;;140;150;;3;238;block1_Pilot_2;19;n_h;n_h_weak;;;;;0;0;0;0;0;16;16;16;;;;;;;;;153.82100639999953;None;155.84209829999963;156.13796430000002;156.13796430000002;156.16247399999884;156.16247399999884;156.20329489999858;156.20329489999858;None;8;0;156.20329489999858;None;157.70370790000015;None;['7'];157.70370790000015;None;0.646534999999858;[0.36211370000091847];;;;;;;Emoconpilot047;2022_Jan_07_1536;BackwardMask;2020.2.8;120.10021161764243;
;f;028_y_f_n_a.jpg;neutral;8;30;f;030_o_f_s_a.jpg;sad;incongruent;7;match;;140;160;;18;219;block1_Pilot_2;28;n_s;n_s_weak;;;;;0;0;0;0;0;17;17;17;;;;;;;;;160.70427329999984;None;162.54910719999862;162.83806599999843;162.83806599999843;162.987616299999;162.987616299999;163.02852359999997;163.02852359999997;None;8;0;163.02852359999997;None;164.5286785999997;None;['7'];164.5286785999997;None;0.549265399999058;[0.329042200000913];;;;;;;Emoconpilot047;2022_Jan_07_1536;BackwardMask;2020.2.8;120.10021161764243;
;m;008_y_m_h_a.jpg;happy;9;8;m;008_y_m_s_a.jpg;sad;incongruent;7;match;;120;160;;3;176;block1_Pilot_2;8;h_s;h_s_weak;;;;;0;0;0;0;0;18;18;18;;;;;;;;;167.52862139999888;None;169.0034625999997;169.29623009999887;169.29623009999887;169.32109129999844;169.32109129999844;169.3619663999998;169.3619663999998;None;9;0;169.3619663999998;None;170.8622378;None;['7'];170.8622378;None;0.4796762999994826;[0.2436712999988231];;;;;;;Emoconpilot047;2022_Jan_07_1536;BackwardMask;2020.2.8;120.10021161764243;
;f;019_m_f_h_a.jpg;happy;9;33;m;033_o_m_n_a.jpg;neutral;incongruent;8;mismatch;;120;170;;18;136;block1_Pilot_2;19;h_n;h_n_weak;;;;;0;0;0;0;0;19;19;19;;;;;;;;;173.86221589999877;None;175.00234490000003;175.29634179999994;175.29634179999994;175.4462410999986;175.4462410999986;175.4871461999992;175.4871461999992;None;9;0;175.4871461999992;None;176.98708439999973;None;['7'];176.98708439999973;None;0.37873039999976754;[0.28677869999955874];;;;;;;Emoconpilot047;2022_Jan_07_1536;BackwardMask;2020.2.8;120.10021161764243;
;m;013_y_m_n_a.jpg;neutral;8;12;f;012_o_f_s_a.jpg;sad;incongruent;7;mismatch;;140;160;;2;132;block1_Pilot_2;13;n_s;n_s_strong;;;;;0;0;0;0;0;20;20;20;;;;;;;;;179.98757609999848;None;181.10918999999922;181.40521369999988;181.40521369999988;181.42129639999985;181.42129639999985;181.46231709999847;181.46231709999847;None;8;0;181.46231709999847;None;182.96234249999907;None;['8'];182.96234249999907;None;0.8275319000003947;[0.3196041999999579];;;;;;;Emoconpilot047;2022_Jan_07_1536;BackwardMask;2020.2.8;120.10021161764243;
;f;040_y_f_s_a.jpg;sad;7;8;m;008_y_m_h_a.jpg;happy;incongruent;9;mismatch;;130;150;;2;175;block1_Pilot_2;40;s_h;s_h_weak;;;;;0;0;0;0;0;21;21;21;;;;;;;;;185.9631258999998;None;187.42865429999983;187.72162109999954;187.72162109999954;187.73813549999977;187.73813549999977;187.7790487000002;187.7790487000002;None;8;0;187.7790487000002;None;189.2791058999992;None;['8'];189.2791058999992;None;0.7507942000011099;[0.26679650000005495];;;;;;;Emoconpilot047;2022_Jan_07_1536;BackwardMask;2020.2.8;120.10021161764243;
;m;004_o_m_h_a.jpg;happy;9;40;f;040_y_f_s_a.jpg;sad;incongruent;7;mismatch;;120;160;;2;193;block1_Pilot_2;4;h_s;h_s_weak;;;;;0;0;0;0;0;22;22;22;;;;;;;;;192.27917639999941;None;193.9330966999987;194.2221656999991;194.2221656999991;194.23818669999855;194.23818669999855;194.279181599999;194.279181599999;None;None;0;194.279181599999;None;195.77915849999954;None;['9'];195.77915849999954;None;;[0.36668939999981376];;;;;;;Emoconpilot047;2022_Jan_07_1536;BackwardMask;2020.2.8;120.10021161764243;
;f;028_y_f_s_a.jpg;sad;7;13;m;013_y_m_n_a.jpg;neutral;incongruent;8;mismatch;;130;170;;2;126;block1_Pilot_2;28;s_n;s_n_weak;;;;;0;0;0;0;0;23;23;23;;;;;;;;;198.7801290999996;None;199.8401613999995;200.13044009999976;200.13044009999976;200.14689219999855;200.14689219999855;200.18764179999926;200.18764179999926;None;8;1;200.18764179999926;None;201.68757860000005;None;['8'];201.68757860000005;None;0.6540268999997352;[0.4981118999985483];;;;;;;Emoconpilot047;2022_Jan_07_1536;BackwardMask;2020.2.8;120.10021161764243;
;m;004_o_m_h_a.jpg;happy;9;40;f;040_y_f_n_a.jpg;neutral;incongruent;8;mismatch;;120;170;;3;146;block1_Pilot_2;4;h_n;h_n_strong;;;;;0;0;0;0;0;24;24;24;;;;;;;;;204.687604499999;None;205.92728290000014;206.2224067999996;206.2224067999996;206.2469573999988;206.2469573999988;206.28783509999994;206.28783509999994;None;9;0;206.28783509999994;None;207.78770029999941;None;['7'];207.78770029999941;None;0.5140576000012516;[0.3180463000007876];;;;;;;Emoconpilot047;2022_Jan_07_1536;BackwardMask;2020.2.8;120.10021161764243;
;m;008_y_m_s_a.jpg;sad;7;30;f;030_o_f_n_a.jpg;neutral;incongruent;8;mismatch;;130;170;;3;132;block1_Pilot_2;8;s_n;s_n_strong;;;;;0;0;0;0;0;25;25;25;;;;;;;;;210.78783759999897;None;211.90728649999983;212.19751309999992;212.19751309999992;212.22197439999945;212.22197439999945;212.26273069999843;212.26273069999843;None;7;0;212.26273069999843;None;213.76278169999932;None;['7'];213.76278169999932;None;0.5949835000010353;[0.32710899999983667];;;;;;;Emoconpilot047;2022_Jan_07_1536;BackwardMask;2020.2.8;120.10021161764243;
;f;040_y_f_n_a.jpg;neutral;8;40;f;040_y_f_s_a.jpg;sad;incongruent;7;match;;140;160;;2;123;block1_Pilot_2;40;n_s;n_s_weak;;;;;0;0;0;0;0;26;26;26;;;;;;;;;216.76310589999957;None;217.80778539999847;218.09778389999883;218.09778389999883;218.11381679999977;218.11381679999977;218.15455370000018;218.15455370000018;None;8;0;218.15455370000018;None;219.65460059999896;None;['8'];219.65460059999896;None;0.8392433999997593;[0.3151729000001069];;;;;;;Emoconpilot047;2022_Jan_07_1536;BackwardMask;2020.2.8;120.10021161764243;
;f;028_y_f_s_a.jpg;sad;7;27;m;027_o_m_s_a.jpg;sad;congruent;7;mismatch;;130;160;;3;159;block1_Pilot_2;28;s_s;s_s_weak;;;;;0;0;0;0;0;27;27;27;;;;;;;;;222.65460539999913;None;224.01351149999937;224.3058050999989;224.3058050999989;224.3306037000002;224.3306037000002;224.37155399999938;224.37155399999938;None;7;1;224.37155399999938;None;225.8714248999986;None;['7'];225.8714248999986;None;0.8143049999998766;[0.3783323999996355];;;;;;;Emoconpilot047;2022_Jan_07_1536;BackwardMask;2020.2.8;120.10021161764243;
;f;012_o_f_s_a.jpg;sad;7;27;m;027_o_m_s_a.jpg;sad;congruent;7;mismatch;;130;160;;18;166;block1_Pilot_2;12;s_s;s_s_weak;;;;;0;0;0;0;0;28;28;28;;;;;;;;;228.87161899999955;None;230.26189030000023;230.5559188999996;230.5559188999996;230.70575539999845;230.70575539999845;230.74647499999992;230.74647499999992;None;7;1;230.74647499999992;None;232.2465188999995;None;['7'];232.2465188999995;None;0.49519560000044294;[0.32330410000031407];;;;;;;Emoconpilot047;2022_Jan_07_1536;BackwardMask;2020.2.8;120.10021161764243;
;f;028_y_f_n_a.jpg;neutral;8;28;f;028_y_f_h_a.jpg;happy;incongruent;9;match;;140;150;;2;186;block1_Pilot_2;28;n_h;n_h_weak;;;;;0;0;0;0;0;29;29;29;;;;;;;;;235.24738780000007;None;236.839525899999;237.13141089999954;237.13141089999954;237.14744339999925;237.14744339999925;237.1884503000001;237.1884503000001;None;None;0;237.1884503000001;None;238.6884575999993;None;['9'];238.6884575999993;None;;[0.4733570000007603];;;;;;;Emoconpilot047;2022_Jan_07_1536;BackwardMask;2020.2.8;120.10021161764243;
;m;027_o_m_n_a.jpg;neutral;8;16;m;016_y_m_n_a.jpg;neutral;congruent;8;match;;140;170;;2;188;block1_Pilot_2;27;n_n;n_n_weak;;;;;0;0;0;0;0;30;30;30;;;;;;;;;241.6886125000001;None;243.27532699999938;243.56481989999884;243.56481989999884;243.58107019999989;243.58107019999989;243.62184239999988;243.62184239999988;None;None;0;243.62184239999988;None;245.1218943999993;None;['9'];245.1218943999993;None;;[0.3758629000003566];;;;;;;Emoconpilot047;2022_Jan_07_1536;BackwardMask;2020.2.8;120.10021161764243;
;f;012_o_f_s_a.jpg;sad;7;13;m;013_y_m_n_a.jpg;neutral;incongruent;8;mismatch;;130;170;;3;162;block1_Pilot_2;12;s_n;s_n_strong;;;;;0;0;0;0;0;31;31;31;;;;;;;;;248.12311969999973;None;249.47597630000018;249.77294749999965;249.77294749999965;249.7977893999996;249.7977893999996;249.8384989999995;249.8384989999995;None;None;0;249.8384989999995;None;251.33869570000024;None;['9'];251.33869570000024;None;;[0.4550357999996777];;;;;;;Emoconpilot047;2022_Jan_07_1536;BackwardMask;2020.2.8;120.10021161764243;
;f;012_o_f_s_a.jpg;sad;7;16;m;016_y_m_h_a.jpg;happy;incongruent;9;mismatch;;130;150;;1;238;block1_Pilot_2;12;s_h;s_h_strong;;;;;0;0;0;0;0;32;32;32;;;;;;;;;254.33939139999893;None;256.3250670999987;256.6230340000002;256.6230340000002;256.63116439999976;256.63116439999976;256.6720061999986;256.6720061999986;None;None;0;256.6720061999986;None;258.17213919999995;None;['9'];258.17213919999995;None;;[0.405716700000994];;;;;;;Emoconpilot047;2022_Jan_07_1536;BackwardMask;2020.2.8;120.10021161764243;
;f;028_y_f_n_a.jpg;neutral;8;21;f;021_o_f_n_a.jpg;neutral;congruent;8;match;;140;170;;3;220;block1_Pilot_2;28;n_n;n_n_weak;;;;;0;0;0;0;0;33;33;33;;;;;;;;;261.17300839999916;None;263.02645049999956;263.3151487999985;263.3151487999985;263.3397066999987;263.3397066999987;263.38063089999923;263.38063089999923;None;8;1;263.38063089999923;None;264.88056809999944;None;None;264.88056809999944;None;0.7171613000009529;;;;;;;;Emoconpilot047;2022_Jan_07_1536;BackwardMask;2020.2.8;120.10021161764243;
;f;040_y_f_h_a.jpg;happy;9;33;m;033_o_m_s_a.jpg;sad;incongruent;7;mismatch;;120;160;;2;194;block1_Pilot_2;40;h_s;h_s_weak;;;;;0;0;0;0;0;34;34;34;;;;;;;;;267.8813733999996;None;269.50593109999863;269.7982925999986;269.7982925999986;269.81455039999855;269.81455039999855;269.85566199999994;269.85566199999994;None;None;0;269.85566199999994;None;271.3555060999988;None;['9'];271.3555060999988;None;;[0.3823532000005798];;;;;;;Emoconpilot047;2022_Jan_07_1536;BackwardMask;2020.2.8;120.10021161764243;
;f;028_y_f_h_a.jpg;happy;9;8;m;008_y_m_n_a.jpg;neutral;incongruent;8;mismatch;;120;170;;3;162;block1_Pilot_2;28;h_n;h_n_weak;;;;;0;0;0;0;0;35;35;35;;;;;;;;;274.35648069999843;None;275.7170228999985;276.00676569999996;276.00676569999996;276.03158540000004;276.03158540000004;276.0724632999991;276.0724632999991;None;9;0;276.0724632999991;None;277.57242269999915;None;['7'];277.57242269999915;None;0.5531772000013007;[0.36534000000028755];;;;;;;Emoconpilot047;2022_Jan_07_1536;BackwardMask;2020.2.8;120.10021161764243;
;m;013_y_m_n_a.jpg;neutral;8;27;m;027_o_m_n_a.jpg;neutral;congruent;8;match;;140;170;;2;126;block1_Pilot_2;13;n_n;n_n_strong;;;;;0;0;0;0;0;36;36;36;;;;;;;;;280.57255689999874;None;281.66279699999905;281.95741180000005;281.95741180000005;281.9733183999997;281.9733183999997;282.0141472999985;282.0141472999985;None;8;1;282.0141472999985;None;283.51440419999926;None;['8'];283.51440419999926;None;0.6355043000003207;[0.23937149999983376];;;;;;;Emoconpilot047;2022_Jan_07_1536;BackwardMask;2020.2.8;120.10021161764243;
;f;028_y_f_s_a.jpg;sad;7;19;f;019_m_f_n_a.jpg;neutral;incongruent;8;match;;130;170;;2;156;block1_Pilot_2;28;s_n;s_n_strong;;;;;0;0;0;0;0;37;37;37;;;;;;;;;286.51519779999944;None;287.8257963999986;288.1155254999994;288.1155254999994;288.1318608999991;288.1318608999991;288.17267360000005;288.17267360000005;None;8;1;288.17267360000005;None;289.6725735;None;['7'];289.6725735;None;0.7411558999992849;[0.5692593999992823];;;;;;;Emoconpilot047;2022_Jan_07_1536;BackwardMask;2020.2.8;120.10021161764243;
;m;016_y_m_s_a.jpg;sad;7;19;f;019_m_f_n_a.jpg;neutral;incongruent;8;mismatch;;130;170;;3;138;block1_Pilot_2;16;s_n;s_n_weak;;;;;0;0;0;0;0;38;38;38;;;;;;;;;292.67273659999955;None;293.8305186999987;294.1237872999991;294.1237872999991;294.14861139999994;294.14861139999994;294.18956549999893;294.18956549999893;None;7;0;294.18956549999893;None;295.68966289999844;None;['7'];295.68966289999844;None;0.5880852999998751;[0.28811880000102974];;;;;;;Emoconpilot047;2022_Jan_07_1536;BackwardMask;2020.2.8;120.10021161764243;
;m;033_o_m_s_a.jpg;sad;7;27;m;027_o_m_n_a.jpg;neutral;incongruent;8;match;;130;170;;3;120;block1_Pilot_2;33;s_n;s_n_strong;;;;;0;0;0;0;0;39;39;39;;;;;;;;;298.6904614999985;None;299.6979593999986;299.9906057999997;299.9906057999997;300.0154888999987;300.0154888999987;300.0562766999992;300.0562766999992;None;8;1;300.0562766999992;None;301.5563493999998;None;['7'];301.5563493999998;None;0.6975813999997627;[0.34144190000006347];;;;;;;Emoconpilot047;2022_Jan_07_1536;BackwardMask;2020.2.8;120.10021161764243;
;f;040_y_f_s_a.jpg;sad;7;33;m;033_o_m_n_a.jpg;neutral;incongruent;8;mismatch;;130;170;;1;238;block1_Pilot_2;40;s_n;s_n_weak;;;;;0;0;0;0;0;40;40;40;;;;;;;;;304.5573573999991;None;306.5475095999991;306.8408387999989;306.8408387999989;306.8488531999992;306.8488531999992;306.88974059999964;306.88974059999964;None;None;0;306.88974059999964;None;308.3896960000002;None;['9'];308.3896960000002;None;;[0.4358874999998079];;;;;;;Emoconpilot047;2022_Jan_07_1536;BackwardMask;2020.2.8;120.10021161764243;
;f;021_o_f_n_a.jpg;neutral;8;19;f;019_m_f_s_a.jpg;sad;incongruent;7;match;;140;160;;1;238;block1_Pilot_2;21;n_s;n_s_strong;;;;;0;0;0;0;0;41;41;41;;;;;;;;;311.3907244000002;None;313.3960202999988;313.6915149999986;313.6915149999986;313.69903030000023;313.69903030000023;313.7397850999987;313.7397850999987;None;None;0;313.7397850999987;None;315.2399429999987;None;['9'];315.2399429999987;None;;[0.40991349999967497];;;;;;;Emoconpilot047;2022_Jan_07_1536;BackwardMask;2020.2.8;120.10021161764243;
;m;033_o_m_h_a.jpg;happy;9;27;m;027_o_m_h_a.jpg;happy;congruent;9;match;;120;150;;3;134;block1_Pilot_2;33;h_h;h_h_weak;;;;;0;0;0;0;0;42;42;42;;;;;;;;;318.24037229999885;None;319.36410109999997;319.65776079999887;319.65776079999887;319.68241469999884;319.68241469999884;319.72325009999986;319.72325009999986;None;9;1;319.72325009999986;None;321.22331789999953;None;['7'];321.22331789999953;None;0.5184091999999509;[0.3144468999998935];;;;;;;Emoconpilot047;2022_Jan_07_1536;BackwardMask;2020.2.8;120.10021161764243;
;f;040_y_f_s_a.jpg;sad;7;4;m;004_o_m_h_a.jpg;happy;incongruent;9;mismatch;;130;150;;2;225;block1_Pilot_2;40;s_h;s_h_strong;;;;;0;0;0;0;0;43;43;43;;;;;;;;;324.22355849999985;None;326.10664859999997;326.3994771999987;326.3994771999987;326.41591289999997;326.41591289999997;326.4567892999985;326.4567892999985;None;None;0;326.4567892999985;None;327.95721009999943;None;['9'];327.95721009999943;None;;[0.3725687999994989];;;;;;;Emoconpilot047;2022_Jan_07_1536;BackwardMask;2020.2.8;120.10021161764243;
;m;027_o_m_s_a.jpg;sad;7;21;f;021_o_f_n_a.jpg;neutral;incongruent;8;mismatch;;130;170;;18;238;block1_Pilot_2;27;s_n;s_n_weak;;;;;0;0;0;0;0;44;44;44;;;;;;;;;330.95698039999843;None;332.9477397999999;333.2413144000002;333.2413144000002;333.39108959999976;333.39108959999976;333.43196589999934;333.43196589999934;None;7;0;333.43196589999934;None;334.9318977999992;None;['7'];334.9318977999992;None;0.5938157000000501;[0.26988429999983055];;;;;;;Emoconpilot047;2022_Jan_07_1536;BackwardMask;2020.2.8;120.10021161764243;
;m;016_y_m_h_a.jpg;happy;9;16;m;016_y_m_n_a.jpg;neutral;incongruent;8;match;;120;170;;3;202;block1_Pilot_2;16;h_n;h_n_weak;;;;;0;0;0;0;0;45;45;45;;;;;;;;;337.9325551000002;None;339.6232646999997;339.91635609999867;339.91635609999867;339.94127539999863;339.94127539999863;339.98202499999934;339.98202499999934;None;9;0;339.98202499999934;None;341.4824205999994;None;['7'];341.4824205999994;None;0.4916875999988406;[0.3434352000003855];;;;;;;Emoconpilot047;2022_Jan_07_1536;BackwardMask;2020.2.8;120.10021161764243;
;m;033_o_m_h_a.jpg;happy;9;13;m;013_y_m_n_a.jpg;neutral;incongruent;8;match;;120;170;;2;150;block1_Pilot_2;33;h_n;h_n_weak;;;;;0;0;0;0;0;46;46;46;;;;;;;;;344.4832212000001;None;345.7401281000002;346.0333641999987;346.0333641999987;346.0497206;346.0497206;346.0905922000002;346.0905922000002;None;8;1;346.0905922000002;None;347.5907496;None;['8'];347.5907496;None;0.8231142000004184;[0.28302350000012666];;;;;;;Emoconpilot047;2022_Jan_07_1536;BackwardMask;2020.2.8;120.10021161764243;
;f;012_o_f_n_a.jpg;neutral;8;16;m;016_y_m_n_a.jpg;neutral;congruent;8;mismatch;;140;170;;1;238;block1_Pilot_2;12;n_n;n_n_strong;;;;;0;0;0;0;0;47;47;47;;;;;;;;;350.5916013999995;None;352.59684039999956;352.8921756999989;352.8921756999989;352.89970709999943;352.89970709999943;352.9406256000002;352.9406256000002;None;None;0;352.9406256000002;None;354.4405502999998;None;['9'];354.4405502999998;None;;[0.44927800000004936];;;;;;;Emoconpilot047;2022_Jan_07_1536;BackwardMask;2020.2.8;120.10021161764243;
;f;040_y_f_n_a.jpg;neutral;8;30;f;030_o_f_h_a.jpg;happy;incongruent;9;match;;140;150;;2;194;block1_Pilot_2;40;n_h;n_h_strong;;;;;0;0;0;0;0;48;48;48;;;;;;;;;357.4410438999985;None;359.0765746999987;359.3672784999999;359.3672784999999;359.3832760999994;359.3832760999994;359.42412259999946;359.42412259999946;None;9;1;359.42412259999946;None;360.9240592999995;None;['8'];360.9240592999995;None;0.9296965000012278;[0.6537529000015638];;;;;;;Emoconpilot047;2022_Jan_07_1536;BackwardMask;2020.2.8;120.10021161764243;
;m;013_y_m_n_a.jpg;neutral;8;12;f;012_o_f_s_a.jpg;sad;incongruent;7;mismatch;;140;160;;18;238;block1_Pilot_2;13;n_s;n_s_weak;;;;;0;0;0;0;0;49;49;49;;;;;;;;;363.92420069999935;None;365.9279055999996;366.2171363999987;366.2171363999987;366.36670069999855;366.36670069999855;366.4077282999988;366.4077282999988;None;8;0;366.4077282999988;None;367.9076987999997;None;['7'];367.9076987999997;None;0.4740249999995285;[0.41416299999946204];;;;;;;Emoconpilot047;2022_Jan_07_1536;BackwardMask;2020.2.8;120.10021161764243;
;f;012_o_f_h_a.jpg;happy;9;12;f;012_o_f_n_a.jpg;neutral;incongruent;8;match;;120;170;;2;125;block1_Pilot_2;12;h_n;h_n_strong;;;;;0;0;0;0;0;50;50;50;;;;;;;;;370.9083842;None;371.95764569999847;372.25027899999986;372.25027899999986;372.26698399999987;372.26698399999987;372.30767430000014;372.30767430000014;None;9;0;372.30767430000014;None;373.80770369999846;None;['7'];373.80770369999846;None;0.6459641000001284;[0.28206450000107];;;;;;;Emoconpilot047;2022_Jan_07_1536;BackwardMask;2020.2.8;120.10021161764243;
;m;008_y_m_s_a.jpg;sad;7;19;f;019_m_f_s_a.jpg;sad;congruent;7;mismatch;;130;160;;2;202;block1_Pilot_2;8;s_s;s_s_strong;;;;;0;0;0;0;0;51;51;51;;;;;;;;;376.808562799999;None;378.5243343000002;378.817683199999;378.817683199999;378.8337706000002;378.8337706000002;378.8744434;378.8744434;None;8;0;378.8744434;None;380.37454660000003;None;['8'];380.37454660000003;None;0.9354628999990382;[0.3952175000013085];;;;;;;Emoconpilot047;2022_Jan_07_1536;BackwardMask;2020.2.8;120.10021161764243;
;f;028_y_f_n_a.jpg;neutral;8;12;f;012_o_f_n_a.jpg;neutral;congruent;8;match;;140;170;;2;214;block1_Pilot_2;28;n_n;n_n_strong;;;;;0;0;0;0;0;52;52;52;;;;;;;;;383.3754231999992;None;385.1775237999991;385.46774989999903;385.46774989999903;385.4837751999985;385.4837751999985;385.5246380999997;385.5246380999997;None;8;1;385.5246380999997;None;387.02499949999947;None;['8'];387.02499949999947;None;0.7811801999996533;[0.24884510000083537];;;;;;;Emoconpilot047;2022_Jan_07_1536;BackwardMask;2020.2.8;120.10021161764243;
;m;027_o_m_h_a.jpg;happy;9;19;f;019_m_f_h_a.jpg;happy;congruent;9;mismatch;;120;150;;3;165;block1_Pilot_2;27;h_h;h_h_strong;;;;;0;0;0;0;0;53;53;53;;;;;;;;;390.02483819999907;None;391.42778629999884;391.71796079999876;391.71796079999876;391.7423297999994;391.7423297999994;391.7832166999997;391.7832166999997;None;9;1;391.7832166999997;None;393.28310169999895;None;['7'];393.28310169999895;None;0.5463705000001937;[0.33474540000133857];;;;;;;Emoconpilot047;2022_Jan_07_1536;BackwardMask;2020.2.8;120.10021161764243;
;m;008_y_m_s_a.jpg;sad;7;13;m;013_y_m_h_a.jpg;happy;incongruent;9;match;;130;150;;18;200;block1_Pilot_2;8;s_h;s_h_strong;;;;;0;0;0;0;0;54;54;54;;;;;;;;;396.28420689999984;None;397.96899499999927;398.2597580999991;398.2597580999991;398.4088720999989;398.4088720999989;398.4499083999999;398.4499083999999;None;7;0;398.4499083999999;None;399.9499591999993;None;['7'];399.9499591999993;None;0.48784299999897485;[0.3797735999996803];;;;;;;Emoconpilot047;2022_Jan_07_1536;BackwardMask;2020.2.8;120.10021161764243;
;f;030_o_f_n_a.jpg;neutral;8;28;f;028_y_f_s_a.jpg;sad;incongruent;7;match;;140;160;;18;238;block1_Pilot_2;30;n_s;n_s_weak;;;;;0;0;0;0;0;55;55;55;;;;;;;;;402.94988789999843;None;404.9530907999997;405.2431498999995;405.2431498999995;405.39250829999946;405.39250829999946;405.43337099999917;405.43337099999917;None;8;0;405.43337099999917;None;406.93328719999954;None;['7'];406.93328719999954;None;0.6724349999985861;[0.3804608999998891];;;;;;;Emoconpilot047;2022_Jan_07_1536;BackwardMask;2020.2.8;120.10021161764243;
;f;019_m_f_h_a.jpg;happy;9;27;m;027_o_m_h_a.jpg;happy;congruent;9;mismatch;;120;150;;1;238;block1_Pilot_2;19;h_h;h_h_strong;;;;;0;0;0;0;0;56;56;56;;;;;;;;;409.9335040999995;None;411.9246535000002;412.2177952000002;412.2177952000002;412.2259844;412.2259844;412.26689709999846;412.26689709999846;None;None;0;412.26689709999846;None;413.76689089999854;None;['9'];413.76689089999854;None;;[0.3148761000011291];;;;;;;Emoconpilot047;2022_Jan_07_1536;BackwardMask;2020.2.8;120.10021161764243;
;m;004_o_m_s_a.jpg;sad;7;4;m;004_o_m_h_a.jpg;happy;incongruent;9;match;;130;150;;18;155;block1_Pilot_2;4;s_h;s_h_weak;;;;;0;0;0;0;0;57;57;57;;;;;;;;;416.7677649999987;None;418.0660055999997;418.3597394999997;418.3597394999997;418.5095659999988;418.5095659999988;418.5503564999999;418.5503564999999;None;7;0;418.5503564999999;None;420.0503463999994;None;['7'];420.0503463999994;None;0.8434372000010626;[0.36735630000111996];;;;;;;Emoconpilot047;2022_Jan_07_1536;BackwardMask;2020.2.8;120.10021161764243;
;f;021_o_f_s_a.jpg;sad;7;27;m;027_o_m_n_a.jpg;neutral;incongruent;8;mismatch;;130;170;;3;224;block1_Pilot_2;21;s_n;s_n_weak;;;;;0;0;0;0;0;58;58;58;;;;;;;;;423.0508742999991;None;424.9241327;425.21820729999854;425.21820729999854;425.2428947999997;425.2428947999997;425.28391179999926;425.28391179999926;None;7;0;425.28391179999926;None;426.78406259999974;None;['7'];426.78406259999974;None;1.365837699999247;[0.5935676999997668];;;;;;;Emoconpilot047;2022_Jan_07_1536;BackwardMask;2020.2.8;120.10021161764243;
;f;021_o_f_h_a.jpg;happy;9;27;m;027_o_m_n_a.jpg;neutral;incongruent;8;mismatch;;120;170;;2;147;block1_Pilot_2;21;h_n;h_n_strong;;;;;0;0;0;0;0;59;59;59;;;;;;;;;429.7847966999998;None;431.046927899999;431.34381699999904;431.34381699999904;431.3598858999994;431.3598858999994;431.40056639999966;431.40056639999966;None;9;0;431.40056639999966;None;432.9014204999985;None;['8'];432.9014204999985;None;0.5850838000005751;[0.4843991999987338];;;;;;;Emoconpilot047;2022_Jan_07_1536;BackwardMask;2020.2.8;120.10021161764243;
;f;040_y_f_n_a.jpg;neutral;8;13;m;013_y_m_h_a.jpg;happy;incongruent;9;mismatch;;140;150;;3;237;block1_Pilot_2;40;n_h;n_h_strong;;;;;0;0;0;0;0;60;60;60;;;;;;;;;435.901198399999;None;437.89476529999956;438.1855633999985;438.1855633999985;438.20992789999946;438.20992789999946;438.25070249999953;438.25070249999953;None;8;0;438.25070249999953;None;439.7506928999992;None;['7'];439.7506928999992;None;0.7749050999991596;[0.4668937000005826];;;;;;;Emoconpilot047;2022_Jan_07_1536;BackwardMask;2020.2.8;120.10021161764243;
;m;027_o_m_n_a.jpg;neutral;8;19;f;019_m_f_h_a.jpg;happy;incongruent;9;mismatch;;140;150;;3;199;block1_Pilot_2;27;n_h;n_h_strong;;;;;0;0;0;0;0;61;61;61;;;;;;;;;442.75242289999915;None;444.42890590000025;444.7189392;444.7189392;444.7433096999994;444.7433096999994;444.78410780000013;444.78410780000013;None;8;0;444.78410780000013;None;446.2841910999996;None;['7'];446.2841910999996;None;0.6494855000000825;[0.29364560000067286];;;;;;;Emoconpilot047;2022_Jan_07_1536;BackwardMask;2020.2.8;120.10021161764243;
;m;027_o_m_h_a.jpg;happy;9;21;f;021_o_f_s_a.jpg;sad;incongruent;7;mismatch;;120;160;;2;169;block1_Pilot_2;27;h_s;h_s_strong;;;;;0;0;0;0;0;62;62;62;;;;;;;;;449.2843240000002;None;450.7127440999993;451.0025561000002;451.0025561000002;451.01845369999864;451.01845369999864;451.0593896999999;451.0593896999999;None;None;0;451.0593896999999;None;452.55928109999877;None;['9'];452.55928109999877;None;;[0.3223738000015146];;;;;;;Emoconpilot047;2022_Jan_07_1536;BackwardMask;2020.2.8;120.10021161764243;
;m;013_y_m_n_a.jpg;neutral;8;33;m;033_o_m_h_a.jpg;happy;incongruent;9;match;;140;150;;18;238;block1_Pilot_2;13;n_h;n_h_strong;;;;;0;0;0;0;0;63;63;63;;;;;;;;;455.5601807999992;None;457.5621766999993;457.85255009999855;457.85255009999855;458.0019579;458.0019579;458.04287269999986;458.04287269999986;None;8;0;458.04287269999986;None;459.54267439999967;None;['7'];459.54267439999967;None;0.5988660999992135;[0.30703970000104164];;;;;;;Emoconpilot047;2022_Jan_07_1536;BackwardMask;2020.2.8;120.10021161764243;
;m;033_o_m_n_a.jpg;neutral;8;30;f;030_o_f_s_a.jpg;sad;incongruent;7;mismatch;;140;160;;1;238;block1_Pilot_2;33;n_s;n_s_weak;;;;;0;0;0;0;0;64;64;64;;;;;;;;;462.543700799999;None;464.54528859999846;464.83622879999893;464.83622879999893;464.84367249999923;464.84367249999923;464.88443499999994;464.88443499999994;None;None;0;464.88443499999994;None;466.3845070999996;None;['9'];466.3845070999996;None;;[0.40131170000131533];;;;;;;Emoconpilot047;2022_Jan_07_1536;BackwardMask;2020.2.8;120.10021161764243;
;m;033_o_m_s_a.jpg;sad;7;4;m;004_o_m_s_a.jpg;sad;congruent;7;match;;130;160;;18;146;block1_Pilot_2;33;s_s;s_s_weak;;;;;0;0;0;0;0;65;65;65;;;;;;;;;469.3855421999997;None;470.60933489999843;470.90249140000014;470.90249140000014;471.0521198999995;471.0521198999995;471.09295589999965;471.09295589999965;None;7;1;471.09295589999965;None;472.5931908999992;None;['7'];472.5931908999992;None;1.17278030000125;[0.28052930000012566];;;;;;;Emoconpilot047;2022_Jan_07_1536;BackwardMask;2020.2.8;120.10021161764243;
;m;016_y_m_s_a.jpg;sad;7;28;f;028_y_f_h_a.jpg;happy;incongruent;9;mismatch;;130;150;;18;238;block1_Pilot_2;16;s_h;s_h_strong;;;;;0;0;0;0;0;66;66;66;;;;;;;;;475.59409119999873;None;477.5845629999985;477.8776392999989;477.8776392999989;478.0273320999986;478.0273320999986;478.0682089000002;478.0682089000002;None;7;0;478.0682089000002;None;479.5681188999988;None;['7'];479.5681188999988;None;0.46951999999873806;[0.2656096999999136];;;;;;;Emoconpilot047;2022_Jan_07_1536;BackwardMask;2020.2.8;120.10021161764243;
;f;030_o_f_h_a.jpg;happy;9;28;f;028_y_f_h_a.jpg;happy;congruent;9;match;;120;150;;3;234;block1_Pilot_2;30;h_h;h_h_weak;;;;;0;0;0;0;0;67;67;67;;;;;;;;;482.5691001999985;None;484.5566413999986;484.85305979999976;484.85305979999976;484.87744629999906;484.87744629999906;484.91843530000006;484.91843530000006;None;9;1;484.91843530000006;None;486.41817769999943;None;['7'];486.41817769999943;None;0.547403900000063;[0.2795258999994985];;;;;;;Emoconpilot047;2022_Jan_07_1536;BackwardMask;2020.2.8;120.10021161764243;
;m;013_y_m_h_a.jpg;happy;9;4;m;004_o_m_h_a.jpg;happy;congruent;9;match;;120;150;;2;141;block1_Pilot_2;13;h_h;h_h_strong;;;;;0;0;0;0;0;68;68;68;;;;;;;;;489.4184604999991;None;490.6136138999991;490.9030788;490.9030788;490.91926169999897;490.91926169999897;490.96012269999846;490.96012269999846;None;9;1;490.96012269999846;None;492.4600733999996;None;['7'];492.4600733999996;None;0.8093886999995448;[0.26160669999990205];;;;;;;Emoconpilot047;2022_Jan_07_1536;BackwardMask;2020.2.8;120.10021161764243;
;f;028_y_f_s_a.jpg;sad;7;8;m;008_y_m_s_a.jpg;sad;congruent;7;mismatch;;130;160;;1;238;block1_Pilot_2;28;s_s;s_s_strong;;;;;0;0;0;0;0;69;69;69;;;;;;;;;495.46100489999844;None;497.4556728999996;497.7446201999992;497.7446201999992;497.7526851999992;497.7526851999992;497.79351080000015;497.79351080000015;None;None;0;497.79351080000015;None;499.29357960000016;None;['9'];499.29357960000016;None;;[0.4681545000003098];;;;;;;Emoconpilot047;2022_Jan_07_1536;BackwardMask;2020.2.8;120.10021161764243;
;f;028_y_f_s_a.jpg;sad;7;30;f;030_o_f_h_a.jpg;happy;incongruent;9;match;;130;150;;2;199;block1_Pilot_2;28;s_h;s_h_weak;;;;;0;0;0;0;0;70;70;70;;;;;;;;;502.2936652999997;None;503.9620399999985;504.2531264999998;504.2531264999998;504.26942079999935;504.26942079999935;504.31040199999916;504.31040199999916;None;8;0;504.31040199999916;None;505.8104653999999;None;['8'];505.8104653999999;None;0.8111625999990792;[0.3592396000003646];;;;;;;Emoconpilot047;2022_Jan_07_1536;BackwardMask;2020.2.8;120.10021161764243;
;m;008_y_m_h_a.jpg;happy;9;21;f;021_o_f_n_a.jpg;neutral;incongruent;8;mismatch;;120;170;;2;137;block1_Pilot_2;8;h_n;h_n_weak;;;;;0;0;0;0;0;71;71;71;;;;;;;;;508.8112765999995;None;509.96069739999984;510.25317729999915;510.25317729999915;510.26945499999965;510.26945499999965;510.3104266999999;510.3104266999999;None;9;0;510.3104266999999;None;511.8113065999987;None;['8'];511.8113065999987;None;0.6113862999991397;[0.21442899999965448];;;;;;;Emoconpilot047;2022_Jan_07_1536;BackwardMask;2020.2.8;120.10021161764243;
;f;012_o_f_n_a.jpg;neutral;8;8;m;008_y_m_s_a.jpg;sad;incongruent;7;mismatch;;140;160;;2;208;block1_Pilot_2;12;n_s;n_s_weak;;;;;0;0;0;0;0;72;72;72;;;;;;;;;514.8115056999995;None;516.5960515999996;516.8871218999993;516.8871218999993;516.9030556999987;516.9030556999987;516.9440208999986;516.9440208999986;None;8;0;516.9440208999986;None;518.4443783999996;None;['8'];518.4443783999996;None;0.7295620000004419;[0.3332456000007369];;;;;;;Emoconpilot047;2022_Jan_07_1536;BackwardMask;2020.2.8;120.10021161764243;
;m;016_y_m_n_a.jpg;neutral;8;8;m;008_y_m_n_a.jpg;neutral;congruent;8;match;;140;170;;3;211;block1_Pilot_2;16;n_n;n_n_strong;;;;;0;0;0;0;0;73;73;73;;;;;;;;;521.4446931000002;None;523.2228975999988;523.5121043999989;523.5121043999989;523.5368276999998;523.5368276999998;523.5774745999988;523.5774745999988;None;8;1;523.5774745999988;None;525.0774528999991;None;['7'];525.0774528999991;None;0.7522860999997647;[0.5801193000006606];;;;;;;Emoconpilot047;2022_Jan_07_1536;BackwardMask;2020.2.8;120.10021161764243;
;m;016_y_m_h_a.jpg;happy;9;13;m;013_y_m_s_a.jpg;sad;incongruent;7;match;;120;160;;3;138;block1_Pilot_2;16;h_s;h_s_weak;;;;;0;0;0;0;0;74;74;74;;;;;;;;;528.0775715999989;None;529.2359696999993;529.5285372999988;529.5285372999988;529.5534382999995;529.5534382999995;529.5942321000002;529.5942321000002;None;9;0;529.5942321000002;None;531.0944029000002;None;['7'];531.0944029000002;None;0.5592806000004202;[0.35511480000059237];;;;;;;Emoconpilot047;2022_Jan_07_1536;BackwardMask;2020.2.8;120.10021161764243;
;m;016_y_m_n_a.jpg;neutral;8;19;f;019_m_f_s_a.jpg;sad;incongruent;7;mismatch;;140;160;;2;185;block1_Pilot_2;16;n_s;n_s_strong;;;;;0;0;0;0;0;75;75;75;;;;;;;;;534.0949911999996;None;535.6565869999995;535.9455796999991;535.9455796999991;535.9617585999986;535.9617585999986;536.0027553999989;536.0027553999989;None;8;0;536.0027553999989;None;537.5027126999994;None;['8'];537.5027126999994;None;0.9510909000000538;[0.2750747999998566];;;;;;;Emoconpilot047;2022_Jan_07_1536;BackwardMask;2020.2.8;120.10021161764243;
;m;027_o_m_s_a.jpg;sad;7;8;m;008_y_m_s_a.jpg;sad;congruent;7;match;;130;160;;1;238;block1_Pilot_2;27;s_s;s_s_strong;;;;;0;0;0;0;0;76;76;76;;;;;;;;;540.5037639999991;None;542.4939106000002;542.7871906;542.7871906;542.7952835999986;542.7952835999986;542.8361562999999;542.8361562999999;None;None;0;542.8361562999999;None;544.3361910999993;None;['9'];544.3361910999993;None;;[0.5936044999998558];;;;;;;Emoconpilot047;2022_Jan_07_1536;BackwardMask;2020.2.8;120.10021161764243;
;f;019_m_f_n_a.jpg;neutral;8;27;m;027_o_m_n_a.jpg;neutral;congruent;8;mismatch;;140;170;;3;186;block1_Pilot_2;19;n_n;n_n_strong;;;;;0;0;0;0;0;77;77;77;;;;;;;;;547.336260099999;None;548.9075180999989;549.2042536999998;549.2042536999998;549.2287920999988;549.2287920999988;549.2696667;549.2696667;None;8;1;549.2696667;None;550.7696552999987;None;['7'];550.7696552999987;None;0.7238643000000593;[0.3920068999996147];;;;;;;Emoconpilot047;2022_Jan_07_1536;BackwardMask;2020.2.8;120.10021161764243;
;m;004_o_m_s_a.jpg;sad;7;12;f;012_o_f_s_a.jpg;sad;congruent;7;mismatch;;130;160;;1;238;block1_Pilot_2;4;s_s;s_s_strong;;;;;0;0;0;0;0;78;78;78;;;;;;;;;553.7706174999985;None;555.7610841999995;556.0539305000002;556.0539305000002;556.0622991;556.0622991;556.1031564999994;556.1031564999994;None;None;0;556.1031564999994;None;557.6032031999985;None;['9'];557.6032031999985;None;;[0.4303675999999541];;;;;;;Emoconpilot047;2022_Jan_07_1536;BackwardMask;2020.2.8;120.10021161764243;
;f;019_m_f_n_a.jpg;neutral;8;13;m;013_y_m_s_a.jpg;sad;incongruent;7;mismatch;;140;160;;3;207;block1_Pilot_2;19;n_s;n_s_strong;;;;;0;0;0;0;0;79;79;79;;;;;;;;;560.6039132999995;None;562.3574745999995;562.6461827999992;562.6461827999992;562.6708849999995;562.6708849999995;562.7117005;562.7117005;None;8;0;562.7117005;None;564.2114469999997;None;['7'];564.2114469999997;None;0.610108400000172;[0.3182617999991635];;;;;;;Emoconpilot047;2022_Jan_07_1536;BackwardMask;2020.2.8;120.10021161764243;
;m;027_o_m_h_a.jpg;happy;9;33;m;033_o_m_h_a.jpg;happy;congruent;9;match;;120;150;;1;238;block1_Pilot_2;27;h_h;h_h_strong;;;;;0;0;0;0;0;80;80;80;;;;;;;;;567.2119454999993;None;569.2146908999985;569.504852099999;569.504852099999;569.5124840999997;569.5124840999997;569.5533426999991;569.5533426999991;None;None;0;569.5533426999991;None;571.0534041999999;None;['9'];571.0534041999999;None;;[0.35631479999938165];;;;;;;Emoconpilot047;2022_Jan_07_1536;BackwardMask;2020.2.8;120.10021161764243;
;m;027_o_m_h_a.jpg;happy;9;21;f;021_o_f_s_a.jpg;sad;incongruent;7;mismatch;;120;160;;1;238;block1_Pilot_2;27;h_s;h_s_weak;;;;;0;0;0;0;0;81;81;81;;;;;;;;;574.0542257999987;None;576.0564130999992;576.3465849999993;576.3465849999993;576.3543511999997;576.3543511999997;576.3951462999994;576.3951462999994;None;None;0;576.3951462999994;None;577.8953646999998;None;['9'];577.8953646999998;None;;[0.4664403000006132];;;;;;;Emoconpilot047;2022_Jan_07_1536;BackwardMask;2020.2.8;120.10021161764243;
;m;033_o_m_s_a.jpg;sad;7;40;f;040_y_f_n_a.jpg;neutral;incongruent;8;mismatch;;130;170;;3;146;block1_Pilot_2;33;s_n;s_n_weak;;;;;0;0;0;0;0;82;82;82;;;;;;;;;580.8951192999994;None;582.1199403999999;582.4130551999988;582.4130551999988;582.4376928000001;582.4376928000001;582.4785673999995;582.4785673999995;None;8;1;582.4785673999995;None;583.978613199999;None;['7'];583.978613199999;None;0.6029985000004672;[0.34312230000068666];;;;;;;Emoconpilot047;2022_Jan_07_1536;BackwardMask;2020.2.8;120.10021161764243;
;m;008_y_m_h_a.jpg;happy;9;4;m;004_o_m_s_a.jpg;sad;incongruent;7;match;;120;160;;2;225;block1_Pilot_2;8;h_s;h_s_weak;;;;;0;0;0;0;0;83;83;83;;;;;;;;;586.9803776999997;None;588.8605415999991;589.1547214999991;589.1547214999991;589.1713406999988;589.1713406999988;589.2119714;589.2119714;None;9;0;589.2119714;None;590.7119016999986;None;['7'];590.7119016999986;None;0.6294969000009587;[0.2978034000007028];;;;;;;Emoconpilot047;2022_Jan_07_1536;BackwardMask;2020.2.8;120.10021161764243;
;f;012_o_f_n_a.jpg;neutral;8;4;m;004_o_m_s_a.jpg;sad;incongruent;7;mismatch;;140;160;;3;150;block1_Pilot_2;12;n_s;n_s_strong;;;;;0;0;0;0;0;84;84;84;;;;;;;;;593.7122934999989;None;594.9838093999988;595.2803076;595.2803076;595.3046471999987;595.3046471999987;595.3454849999998;595.3454849999998;None;8;0;595.3454849999998;None;596.8456785999988;None;['7'];596.8456785999988;None;0.6562319000004209;[0.3640242000001308];;;;;;;Emoconpilot047;2022_Jan_07_1536;BackwardMask;2020.2.8;120.10021161764243;
;f;021_o_f_s_a.jpg;sad;7;40;f;040_y_f_n_a.jpg;neutral;incongruent;8;match;;130;170;;2;156;block1_Pilot_2;21;s_n;s_n_strong;;;;;0;0;0;0;0;85;85;85;;;;;;;;;599.8464905000001;None;601.1519165999998;601.4466558999993;601.4466558999993;601.4629291000001;601.4629291000001;601.5040092999989;601.5040092999989;None;None;0;601.5040092999989;None;603.0039053;None;['9'];603.0039053;None;;[0.31774849999965227];;;;;;;Emoconpilot047;2022_Jan_07_1536;BackwardMask;2020.2.8;120.10021161764243;
;m;004_o_m_n_a.jpg;neutral;8;13;m;013_y_m_n_a.jpg;neutral;congruent;8;match;;140;170;;2;225;block1_Pilot_2;4;n_n;n_n_strong;;;;;0;0;0;0;0;86;86;86;;;;;;;;;606.0041139999994;None;607.9001522999988;608.1888259999996;608.1888259999996;608.2049274000001;608.2049274000001;608.245869299999;608.245869299999;None;None;0;608.245869299999;None;609.745775899999;None;['9'];609.745775899999;None;;[0.41590849999920465];;;;;;;Emoconpilot047;2022_Jan_07_1536;BackwardMask;2020.2.8;120.10021161764243;
;m;016_y_m_n_a.jpg;neutral;8;16;m;016_y_m_h_a.jpg;happy;incongruent;9;match;;140;150;;18;193;block1_Pilot_2;16;n_h;n_h_strong;;;;;0;0;0;0;0;87;87;87;;;;;;;;;612.7466392999995;None;614.3733284999998;614.6638353999988;614.6638353999988;614.8134673999994;614.8134673999994;614.8541375999994;614.8541375999994;None;8;0;614.8541375999994;None;616.354224499999;None;['7'];616.354224499999;None;0.47540350000053877;[0.30358440000054543];;;;;;;Emoconpilot047;2022_Jan_07_1536;BackwardMask;2020.2.8;120.10021161764243;
;m;033_o_m_h_a.jpg;happy;9;4;m;004_o_m_h_a.jpg;happy;congruent;9;match;;120;150;;2;195;block1_Pilot_2;33;h_h;h_h_strong;;;;;0;0;0;0;0;88;88;88;;;;;;;;;619.3543489999993;None;620.987466999999;621.2805235999986;621.2805235999986;621.296877499999;621.296877499999;621.3375934999985;621.3375934999985;None;9;1;621.3375934999985;None;622.8383579000001;None;['7'];622.8383579000001;None;0.6480406999999104;[0.3633535999997548];;;;;;;Emoconpilot047;2022_Jan_07_1536;BackwardMask;2020.2.8;120.10021161764243;
;m;027_o_m_h_a.jpg;happy;9;16;m;016_y_m_h_a.jpg;happy;congruent;9;match;;120;150;;3;209;block1_Pilot_2;27;h_h;h_h_weak;;;;;0;0;0;0;0;89;89;89;;;;;;;;;625.8384411999996;None;627.613032199999;627.905977299999;627.905977299999;627.9301547999985;627.9301547999985;627.9711829999997;627.9711829999997;None;None;0;627.9711829999997;None;629.4713467999991;None;['7'];629.4713467999991;None;;[0.3063771999986784];;;;;;;Emoconpilot047;2022_Jan_07_1536;BackwardMask;2020.2.8;120.10021161764243;
;m;033_o_m_s_a.jpg;sad;7;16;m;016_y_m_s_a.jpg;sad;congruent;7;match;;130;160;;3;128;block1_Pilot_2;33;s_s;s_s_strong;;;;;0;0;0;0;0;90;90;90;;;;;;;;;632.4717430000001;None;633.5456847999994;633.8390904999997;633.8390904999997;633.8636534999987;633.8636534999987;633.9046097999999;633.9046097999999;None;8;0;633.9046097999999;None;635.4047756999989;None;['7'];635.4047756999989;None;0.6250765000004321;[0.2608827999993082];;;;;;;Emoconpilot047;2022_Jan_07_1536;BackwardMask;2020.2.8;120.10021161764243;
;f;021_o_f_s_a.jpg;sad;7;30;f;030_o_f_s_a.jpg;sad;congruent;7;match;;130;160;;1;238;block1_Pilot_2;21;s_s;s_s_strong;;;;;0;0;0;0;0;91;91;91;;;;;;;;;638.4055547999997;None;640.3940234999991;640.6891183999996;640.6891183999996;640.6972676999994;640.6972676999994;640.7381312999987;640.7381312999987;None;None;0;640.7381312999987;None;642.2382022000002;None;['9'];642.2382022000002;None;;[0.38726239999959944];;;;;;;Emoconpilot047;2022_Jan_07_1536;BackwardMask;2020.2.8;120.10021161764243;
;m;033_o_m_n_a.jpg;neutral;8;28;f;028_y_f_s_a.jpg;sad;incongruent;7;mismatch;;140;160;;18;166;block1_Pilot_2;33;n_s;n_s_strong;;;;;0;0;0;0;0;92;92;92;;;;;;;;;645.2389238999986;None;646.6433863999991;646.9396744999995;646.9396744999995;647.0890419999996;647.0890419999996;647.1299843999986;647.1299843999986;None;8;0;647.1299843999986;None;648.6307428;None;['7'];648.6307428;None;0.5756101000006311;[0.28273599999920407];;;;;;;Emoconpilot047;2022_Jan_07_1536;BackwardMask;2020.2.8;120.10021161764243;
;f;019_m_f_n_a.jpg;neutral;8;30;f;030_o_f_n_a.jpg;neutral;congruent;8;match;;140;170;;18;228;block1_Pilot_2;19;n_n;n_n_weak;;;;;0;0;0;0;0;93;93;93;;;;;;;;;651.6310482999997;None;653.5485561999994;653.8397307999985;653.8397307999985;653.9892542999987;653.9892542999987;654.0301065999993;654.0301065999993;None;8;1;654.0301065999993;None;655.5301449999988;None;['7'];655.5301449999988;None;0.4755819000001793;[0.3195622999992338];;;;;;;Emoconpilot047;2022_Jan_07_1536;BackwardMask;2020.2.8;120.10021161764243;
;m;008_y_m_s_a.jpg;sad;7;12;f;012_o_f_h_a.jpg;happy;incongruent;9;mismatch;;130;150;;3;130;block1_Pilot_2;8;s_h;s_h_weak;;;;;0;0;0;0;0;94;94;94;;;;;;;;;658.5303972000002;None;659.6326291999994;659.9233039999999;659.9233039999999;659.9475721999988;659.9475721999988;659.9884198;659.9884198;None;7;0;659.9884198;None;661.4884751999998;None;['7'];661.4884751999998;None;0.8210357000007207;[0.5532385000005888];;;;;;;Emoconpilot047;2022_Jan_07_1536;BackwardMask;2020.2.8;120.10021161764243;
;m;016_y_m_n_a.jpg;neutral;8;28;f;028_y_f_n_a.jpg;neutral;congruent;8;mismatch;;140;170;;18;189;block1_Pilot_2;16;n_n;n_n_strong;;;;;0;0;0;0;0;95;95;95;;;;;;;;;664.48927;None;666.0825423999995;666.3732892999997;666.3732892999997;666.5228989999996;666.5228989999996;666.5637291999992;666.5637291999992;None;8;1;666.5637291999992;None;668.0638290999996;None;['7'];668.0638290999996;None;0.4778026999993017;[0.28976280000097177];;;;;;;Emoconpilot047;2022_Jan_07_1536;BackwardMask;2020.2.8;120.10021161764243;
;f;012_o_f_s_a.jpg;sad;7;16;m;016_y_m_h_a.jpg;happy;incongruent;9;mismatch;;130;150;;3;238;block1_Pilot_2;12;s_h;s_h_strong;;;;;0;0;0;0;0;96;96;96;;;;;;;;;671.063806099999;None;673.0508374000001;673.3479785;673.3479785;673.3729167000001;673.3729167000001;673.4139266000002;673.4139266000002;None;7;0;673.4139266000002;None;674.913790999999;None;['7'];674.913790999999;None;0.6195316000012099;[0.24789989999953832];;;;;;;Emoconpilot047;2022_Jan_07_1536;BackwardMask;2020.2.8;120.10021161764243;
;m;013_y_m_h_a.jpg;happy;9;27;m;027_o_m_h_a.jpg;happy;congruent;9;match;;120;150;;18;238;block1_Pilot_2;13;h_h;h_h_strong;;;;;0;0;0;0;0;97;97;97;;;;;;;;;677.9146693999992;None;679.9169473000002;680.2069283000001;680.2069283000001;680.3563763000002;680.3563763000002;680.3972156;680.3972156;None;9;1;680.3972156;None;681.8972592999999;None;['7'];681.8972592999999;None;0.4282242999997834;[0.3124033000003692];;;;;;;Emoconpilot047;2022_Jan_07_1536;BackwardMask;2020.2.8;120.10021161764243;
;m;016_y_m_s_a.jpg;sad;7;33;m;033_o_m_n_a.jpg;neutral;incongruent;8;match;;130;170;;1;238;block1_Pilot_2;16;s_n;s_n_weak;;;;;0;0;0;0;0;98;98;98;;;;;;;;;684.8977312999996;None;686.8886667999996;687.1816789999993;687.1816789999993;687.1899010999987;687.1899010999987;687.2306868999985;687.2306868999985;None;None;0;687.2306868999985;None;688.7308286999996;None;['9'];688.7308286999996;None;;[0.34264299999995274];;;;;;;Emoconpilot047;2022_Jan_07_1536;BackwardMask;2020.2.8;120.10021161764243;
;m;008_y_m_n_a.jpg;neutral;8;30;f;030_o_f_n_a.jpg;neutral;congruent;8;mismatch;;140;170;;1;238;block1_Pilot_2;8;n_n;n_n_weak;;;;;0;0;0;0;0;99;99;99;;;;;;;;;691.7313056999992;None;693.7462974999999;694.0405242999987;694.0405242999987;694.0483488999998;694.0483488999998;694.0891155999998;694.0891155999998;None;None;0;694.0891155999998;None;695.5893474999993;None;['9'];695.5893474999993;None;;[0.35624640000060026];;;;;;;Emoconpilot047;2022_Jan_07_1536;BackwardMask;2020.2.8;120.10021161764243;
;m;008_y_m_s_a.jpg;sad;7;30;f;030_o_f_s_a.jpg;sad;congruent;7;mismatch;;130;160;;2;133;block1_Pilot_2;8;s_s;s_s_weak;;;;;0;0;0;0;0;100;100;100;;;;;;;;;698.5893692999998;None;699.7168488999996;700.0074604999991;700.0074604999991;700.0234947999998;700.0234947999998;700.0642669999997;700.0642669999997;None;None;0;700.0642669999997;None;701.5642941999995;None;['9'];701.5642941999995;None;;[0.3572683999991568];;;;;;;Emoconpilot047;2022_Jan_07_1536;BackwardMask;2020.2.8;120.10021161764243;
;f;040_y_f_n_a.jpg;neutral;8;30;f;030_o_f_s_a.jpg;sad;incongruent;7;match;;140;160;;3;197;block1_Pilot_2;40;n_s;n_s_strong;;;;;0;0;0;0;0;101;101;101;;;;;;;;;704.5654643999987;None;706.2255062999993;706.5157437999987;706.5157437999987;706.5402432999999;706.5402432999999;706.5811642999997;706.5811642999997;None;8;0;706.5811642999997;None;708.0810936999987;None;['7'];708.0810936999987;None;0.7004373999989184;[0.3123554999983753];;;;;;;Emoconpilot047;2022_Jan_07_1536;BackwardMask;2020.2.8;120.10021161764243;
;m;004_o_m_h_a.jpg;happy;9;30;f;030_o_f_s_a.jpg;sad;incongruent;7;mismatch;;120;160;;3;121;block1_Pilot_2;4;h_s;h_s_strong;;;;;0;0;0;0;0;102;102;102;;;;;;;;;711.082140999999;None;712.1089425999999;712.3993731999999;712.3993731999999;712.4237956999987;712.4237956999987;712.4645196000001;712.4645196000001;None;9;0;712.4645196000001;None;713.9646304999987;None;['7'];713.9646304999987;None;0.5050188999994134;[0.2770190999999613];;;;;;;Emoconpilot047;2022_Jan_07_1536;BackwardMask;2020.2.8;120.10021161764243;
;f;040_y_f_h_a.jpg;happy;9;8;m;008_y_m_h_a.jpg;happy;congruent;9;mismatch;;120;150;;18;211;block1_Pilot_2;40;h_h;h_h_weak;;;;;0;0;0;0;0;103;103;103;;;;;;;;;716.9647299999997;None;718.7311454999999;719.0240991999999;719.0240991999999;719.1739382999986;719.1739382999986;719.214573199999;719.214573199999;None;9;1;719.214573199999;None;720.7146541999991;None;['7'];720.7146541999991;None;0.5709564000007958;[0.30301150000013877];;;;;;;Emoconpilot047;2022_Jan_07_1536;BackwardMask;2020.2.8;120.10021161764243;
;f;019_m_f_s_a.jpg;sad;7;16;m;016_y_m_n_a.jpg;neutral;incongruent;8;mismatch;;130;170;;2;198;block1_Pilot_2;19;s_n;s_n_strong;;;;;0;0;0;0;0;104;104;104;;;;;;;;;723.7159850999997;None;725.3999860999993;725.6914136999985;725.6914136999985;725.7073180999996;725.7073180999996;725.7482983999998;725.7482983999998;None;None;0;725.7482983999998;None;727.2483794;None;['9'];727.2483794;None;;[0.4573056000008364];;;;;;;Emoconpilot047;2022_Jan_07_1536;BackwardMask;2020.2.8;120.10021161764243;
;f;040_y_f_s_a.jpg;sad;7;12;f;012_o_f_s_a.jpg;sad;congruent;7;match;;130;160;;18;240;block1_Pilot_2;40;s_s;s_s_strong;;;;;0;0;0;0;0;105;105;105;;;;;;;;;730.2481510999987;None;732.2566399999996;732.5493176999989;732.5493176999989;732.6992646999988;732.6992646999988;732.7400417999997;732.7400417999997;None;7;1;732.7400417999997;None;734.2400731999987;None;['7'];734.2400731999987;None;0.9735407999996823;[0.273533800000223];;;;;;;Emoconpilot047;2022_Jan_07_1536;BackwardMask;2020.2.8;120.10021161764243;
;f;040_y_f_n_a.jpg;neutral;8;33;m;033_o_m_s_a.jpg;sad;incongruent;7;mismatch;;140;160;;3;188;block1_Pilot_2;40;n_s;n_s_weak;;;;;0;0;0;0;0;106;106;106;;;;;;;;;737.2400538000002;None;738.8467729999993;739.1416628999996;739.1416628999996;739.1658957;739.1658957;739.2068039999995;739.2068039999995;None;8;0;739.2068039999995;None;740.7069357;None;['7'];740.7069357;None;0.666631200001575;[0.25459889999910956];;;;;;;Emoconpilot047;2022_Jan_07_1536;BackwardMask;2020.2.8;120.10021161764243;
;f;028_y_f_h_a.jpg;happy;9;21;f;021_o_f_s_a.jpg;sad;incongruent;7;match;;120;160;;3;193;block1_Pilot_2;28;h_s;h_s_strong;;;;;0;0;0;0;0;107;107;107;;;;;;;;;743.7068280999993;None;745.3254729;745.6162320999993;745.6162320999993;745.6410672999991;745.6410672999991;745.6817890999992;745.6817890999992;None;9;0;745.6817890999992;None;747.1820516999996;None;['7'];747.1820516999996;None;0.4077889000000141;[0.2755075000004581];;;;;;;Emoconpilot047;2022_Jan_07_1536;BackwardMask;2020.2.8;120.10021161764243;
;f;040_y_f_s_a.jpg;sad;7;13;m;013_y_m_n_a.jpg;neutral;incongruent;8;mismatch;;130;170;;2;198;block1_Pilot_2;40;s_n;s_n_strong;;;;;0;0;0;0;0;108;108;108;;;;;;;;;750.1828623000001;None;751.8403196999989;752.1329797999988;752.1329797999988;752.1495154999993;752.1495154999993;752.1903024999992;752.1903024999992;None;None;0;752.1903024999992;None;753.6903377999988;None;['9'];753.6903377999988;None;;[0.3592318000009982];;;;;;;Emoconpilot047;2022_Jan_07_1536;BackwardMask;2020.2.8;120.10021161764243;
;f;030_o_f_n_a.jpg;neutral;8;33;m;033_o_m_s_a.jpg;sad;incongruent;7;mismatch;;140;160;;1;238;block1_Pilot_2;30;n_s;n_s_strong;;;;;0;0;0;0;0;109;109;109;;;;;;;;;756.6909101000001;None;758.7085947999985;759.0002836999993;759.0002836999993;759.0078691999988;759.0078691999988;759.048780699999;759.048780699999;None;None;0;759.048780699999;None;760.5488828999987;None;['9'];760.5488828999987;None;;[0.3246210000015708];;;;;;;Emoconpilot047;2022_Jan_07_1536;BackwardMask;2020.2.8;120.10021161764243;
;f;021_o_f_h_a.jpg;happy;9;40;f;040_y_f_n_a.jpg;neutral;incongruent;8;match;;120;170;;2;125;block1_Pilot_2;21;h_n;h_n_weak;;;;;0;0;0;0;0;110;110;110;;;;;;;;;763.5497464;None;764.6095103999996;764.9005096000001;764.9005096000001;764.9165667999987;764.9165667999987;764.9573149999997;764.9573149999997;None;9;0;764.9573149999997;None;766.4575671999992;None;['8'];766.4575671999992;None;0.6762536999995064;[0.25612329999967187];;;;;;;Emoconpilot047;2022_Jan_07_1536;BackwardMask;2020.2.8;120.10021161764243;
;f;021_o_f_h_a.jpg;happy;9;16;m;016_y_m_s_a.jpg;sad;incongruent;7;mismatch;;120;160;;1;238;block1_Pilot_2;21;h_s;h_s_strong;;;;;0;0;0;0;0;111;111;111;;;;;;;;;769.4583064999988;None;771.4596790999985;771.7506256999986;771.7506256999986;771.7582394000001;771.7582394000001;771.7991299999994;771.7991299999994;None;None;0;771.7991299999994;None;773.2996793999991;None;['9'];773.2996793999991;None;;[0.3339304000000993];;;;;;;Emoconpilot047;2022_Jan_07_1536;BackwardMask;2020.2.8;120.10021161764243;
;f;012_o_f_h_a.jpg;happy;9;8;m;008_y_m_s_a.jpg;sad;incongruent;7;mismatch;;120;160;;1;238;block1_Pilot_2;12;h_s;h_s_weak;;;;;0;0;0;0;0;112;112;112;;;;;;;;;776.2993811999986;None;778.2912512999992;778.5835578999995;778.5835578999995;778.5914694999992;778.5914694999992;778.6324659000002;778.6324659000002;None;None;0;778.6324659000002;None;780.1327573999988;None;['9'];780.1327573999988;None;;[0.4127971999987494];;;;;;;Emoconpilot047;2022_Jan_07_1536;BackwardMask;2020.2.8;120.10021161764243;
;m;013_y_m_h_a.jpg;happy;9;16;m;016_y_m_s_a.jpg;sad;incongruent;7;match;;120;160;;3;202;block1_Pilot_2;13;h_s;h_s_weak;;;;;0;0;0;0;0;113;113;113;;;;;;;;;783.1336682000001;None;784.8378400000001;785.133859399999;785.133859399999;785.1586190999988;785.1586190999988;785.1992749000001;785.1992749000001;None;9;0;785.1992749000001;None;786.6993860999992;None;['7'];786.6993860999992;None;0.6022827000015241;[0.26220370000010007];;;;;;;Emoconpilot047;2022_Jan_07_1536;BackwardMask;2020.2.8;120.10021161764243;
;f;019_m_f_s_a.jpg;sad;7;4;m;004_o_m_n_a.jpg;neutral;incongruent;8;mismatch;;130;170;;1;238;block1_Pilot_2;19;s_n;s_n_strong;;;;;0;0;0;0;0;114;114;114;;;;;;;;;789.699785499999;None;791.7019308999988;791.9925803999995;791.9925803999995;792.0002098999994;792.0002098999994;792.0410935999989;792.0410935999989;None;None;0;792.0410935999989;None;793.5411441999986;None;['9'];793.5411441999986;None;;[0.38841320000028645];;;;;;;Emoconpilot047;2022_Jan_07_1536;BackwardMask;2020.2.8;120.10021161764243;
;f;028_y_f_n_a.jpg;neutral;8;27;m;027_o_m_s_a.jpg;sad;incongruent;7;mismatch;;140;160;;18;238;block1_Pilot_2;28;n_s;n_s_strong;;;;;0;0;0;0;0;115;115;115;;;;;;;;;796.5424047999986;None;798.5455830999999;798.8342211999989;798.8342211999989;798.9838330000002;798.9838330000002;799.0245146999987;799.0245146999987;None;8;0;799.0245146999987;None;800.5245742999996;None;['7'];800.5245742999996;None;0.5129845999999816;[0.3171244999994087];;;;;;;Emoconpilot047;2022_Jan_07_1536;BackwardMask;2020.2.8;120.10021161764243;
;m;013_y_m_s_a.jpg;sad;7;12;f;012_o_f_h_a.jpg;happy;incongruent;9;mismatch;;130;150;;1;238;block1_Pilot_2;13;s_h;s_h_strong;;;;;0;0;0;0;0;116;116;116;;;;;;;;;803.5258407999991;None;805.5163600999986;805.8091263999995;805.8091263999995;805.817207099999;805.817207099999;805.8579859000001;805.8579859000001;None;None;0;805.8579859000001;None;807.3581498999993;None;['9'];807.3581498999993;None;;[0.49944350000077975];;;;;;;Emoconpilot047;2022_Jan_07_1536;BackwardMask;2020.2.8;120.10021161764243;
;m;016_y_m_s_a.jpg;sad;7;19;f;019_m_f_h_a.jpg;happy;incongruent;9;mismatch;;130;150;;1;238;block1_Pilot_2;16;s_h;s_h_strong;;;;;0;0;0;0;0;117;117;117;;;;;;;;;810.3594397999987;None;812.3495833999987;812.6426764999997;812.6426764999997;812.6507292999995;812.6507292999995;812.6915596999988;812.6915596999988;None;None;0;812.6915596999988;None;814.1916015999996;None;['9'];814.1916015999996;None;;[0.38611799999853247];;;;;;;Emoconpilot047;2022_Jan_07_1536;BackwardMask;2020.2.8;120.10021161764243;
;m;013_y_m_s_a.jpg;sad;7;21;f;021_o_f_h_a.jpg;happy;incongruent;9;mismatch;;130;150;;18;238;block1_Pilot_2;13;s_h;s_h_strong;;;;;0;0;0;0;0;118;118;118;;;;;;;;;817.1915893999994;None;819.1817610999988;819.4760446;819.4760446;819.6256675999994;819.6256675999994;819.6666639999985;819.6666639999985;None;7;0;819.6666639999985;None;821.1670278000001;None;['7'];821.1670278000001;None;0.8468573999998625;[0.30651269999907527];;;;;;;Emoconpilot047;2022_Jan_07_1536;BackwardMask;2020.2.8;120.10021161764243;
;f;012_o_f_s_a.jpg;sad;7;13;m;013_y_m_h_a.jpg;happy;incongruent;9;mismatch;;130;150;;3;235;block1_Pilot_2;12;s_h;s_h_weak;;;;;0;0;0;0;0;119;119;119;;;;;;;;;824.1668379999992;None;826.1297568999998;826.4261353000002;826.4261353000002;826.4510640999997;826.4510640999997;826.4917790999989;826.4917790999989;None;7;0;826.4917790999989;None;827.9920813999997;None;['7'];827.9920813999997;None;0.9097774000001664;[0.3695239999997284];;;;;;;Emoconpilot047;2022_Jan_07_1536;BackwardMask;2020.2.8;120.10021161764243;
;f;019_m_f_s_a.jpg;sad;7;30;f;030_o_f_h_a.jpg;happy;incongruent;9;match;;130;150;;3;235;block2_Pilot_2;19;s_h;s_h_strong;;;;;0;1;1;1;0;0;0;0;;;;;;;;;851.019822799999;None;852.9964178999999;853.2854934999996;853.2854934999996;853.3097690999984;853.3097690999984;853.3506476999992;853.3506476999992;None;7;0;853.3506476999992;None;854.8524940999996;None;['8'];854.8524940999996;None;0.730959200000143;[0.3171191000001272];;;830.9922417999987;None;;;Emoconpilot047;2022_Jan_07_1536;BackwardMask;2020.2.8;120.10021161764243;
;m;008_y_m_n_a.jpg;neutral;8;40;f;040_y_f_h_a.jpg;happy;incongruent;9;mismatch;;140;150;;2;121;block2_Pilot_2;8;n_h;n_h_strong;;;;;0;1;1;1;0;1;1;1;;;;;;;;;857.8516020999996;None;858.8791380999992;859.1688792999994;859.1688792999994;859.1850822999986;859.1850822999986;859.2258562999996;859.2258562999996;None;8;0;859.2258562999996;None;860.7259171999995;None;['8'];860.7259171999995;None;1.1594690999991144;[0.23564690000057453];;;;;;;Emoconpilot047;2022_Jan_07_1536;BackwardMask;2020.2.8;120.10021161764243;
;f;012_o_f_h_a.jpg;happy;9;27;m;027_o_m_n_a.jpg;neutral;incongruent;8;mismatch;;120;170;;2;240;block2_Pilot_2;12;h_n;h_n_weak;;;;;0;1;1;1;0;2;2;2;;;;;;;;;863.7269441999997;None;865.7416863999988;866.035330499999;866.035330499999;866.0518670999991;866.0518670999991;866.0925905999993;866.0925905999993;None;9;0;866.0925905999993;None;867.5925260999993;None;['8'];867.5925260999993;None;0.604841899999883;[0.22506959999918763];;;;;;;Emoconpilot047;2022_Jan_07_1536;BackwardMask;2020.2.8;120.10021161764243;
;m;008_y_m_h_a.jpg;happy;9;40;f;040_y_f_h_a.jpg;happy;congruent;9;mismatch;;120;150;;18;195;block2_Pilot_2;8;h_h;h_h_strong;;;;;0;1;1;1;0;3;3;3;;;;;;;;;870.5940123;None;872.2257313999999;872.5187405999986;872.5187405999986;872.6686657999999;872.6686657999999;872.7095467999989;872.7095467999989;None;9;1;872.7095467999989;None;874.2097372999997;None;['7'];874.2097372999997;None;0.3879536000004009;[0.27179009999963455];;;;;;;Emoconpilot047;2022_Jan_07_1536;BackwardMask;2020.2.8;120.10021161764243;
;m;004_o_m_n_a.jpg;neutral;8;33;m;033_o_m_s_a.jpg;sad;incongruent;7;match;;140;160;;18;126;block2_Pilot_2;4;n_s;n_s_weak;;;;;0;1;1;1;0;4;4;4;;;;;;;;;877.2099288999998;None;878.3039621999997;878.5942574000001;878.5942574000001;878.7436911999994;878.7436911999994;878.7846026999996;878.7846026999996;None;8;0;878.7846026999996;None;880.2847628;None;['7'];880.2847628;None;0.7768286999998963;[0.3328488000006473];;;;;;;Emoconpilot047;2022_Jan_07_1536;BackwardMask;2020.2.8;120.10021161764243;
;f;028_y_f_s_a.jpg;sad;7;27;m;027_o_m_n_a.jpg;neutral;incongruent;8;mismatch;;130;170;;18;225;block2_Pilot_2;28;s_n;s_n_strong;;;;;0;1;1;1;0;5;5;5;;;;;;;;;883.2857692999987;None;885.1805066999987;885.469024;885.469024;885.6187272999996;885.6187272999996;885.6596641999986;885.6596641999986;None;7;0;885.6596641999986;None;887.1597838999987;None;['7'];887.1597838999987;None;0.7659179999991466;[0.265768899998875];;;;;;;Emoconpilot047;2022_Jan_07_1536;BackwardMask;2020.2.8;120.10021161764243;
;m;027_o_m_s_a.jpg;sad;7;30;f;030_o_f_h_a.jpg;happy;incongruent;9;mismatch;;130;150;;18;238;block2_Pilot_2;27;s_h;s_h_weak;;;;;0;1;1;1;0;6;6;6;;;;;;;;;890.1597912999987;None;892.151297299999;892.4442151999992;892.4442151999992;892.5939640999986;892.5939640999986;892.6349425999997;892.6349425999997;None;7;0;892.6349425999997;None;894.1347658999985;None;['7'];894.1347658999985;None;0.510531699999774;[0.28280290000111563];;;;;;;Emoconpilot047;2022_Jan_07_1536;BackwardMask;2020.2.8;120.10021161764243;
;m;033_o_m_h_a.jpg;happy;9;40;f;040_y_f_s_a.jpg;sad;incongruent;7;mismatch;;120;160;;1;238;block2_Pilot_2;33;h_s;h_s_strong;;;;;0;1;1;1;0;7;7;7;;;;;;;;;897.1354083999995;None;899.1250216999997;899.4192113999998;899.4192113999998;899.4277253;899.4277253;899.4683148999993;899.4683148999993;None;None;0;899.4683148999993;None;900.968515999999;None;['9'];900.968515999999;None;;[0.3208204000002297];;;;;;;Emoconpilot047;2022_Jan_07_1536;BackwardMask;2020.2.8;120.10021161764243;
;f;012_o_f_n_a.jpg;neutral;8;12;f;012_o_f_h_a.jpg;happy;incongruent;9;match;;140;150;;2;200;block2_Pilot_2;12;n_h;n_h_weak;;;;;0;1;1;1;0;8;8;8;;;;;;;;;903.9684029;None;905.6593964999993;905.9533801999987;905.9533801999987;905.9692163999989;905.9692163999989;906.0100308000001;906.0100308000001;None;None;0;906.0100308000001;None;907.5102018999987;None;['9'];907.5102018999987;None;;[0.29933580000033544];;;;;;;Emoconpilot047;2022_Jan_07_1536;BackwardMask;2020.2.8;120.10021161764243;
;f;030_o_f_n_a.jpg;neutral;8;19;f;019_m_f_n_a.jpg;neutral;congruent;8;match;;140;170;;1;238;block2_Pilot_2;30;n_n;n_n_weak;;;;;0;1;1;1;0;9;9;9;;;;;;;;;910.5110948000001;None;912.5122968999985;912.8032840999986;912.8032840999986;912.8110041999989;912.8110041999989;912.8517692999994;912.8517692999994;None;None;0;912.8517692999994;None;914.3522155999999;None;['9'];914.3522155999999;None;;[0.36922260000028473];;;;;;;Emoconpilot047;2022_Jan_07_1536;BackwardMask;2020.2.8;120.10021161764243;
;m;013_y_m_h_a.jpg;happy;9;8;m;008_y_m_n_a.jpg;neutral;incongruent;8;match;;120;170;;1;238;block2_Pilot_2;13;h_n;h_n_strong;;;;;0;1;1;1;0;10;10;10;;;;;;;;;917.3529356999989;None;919.3605524999984;919.6534145999995;919.6534145999995;919.6611639000002;919.6611639000002;919.7021669999995;919.7021669999995;None;None;0;919.7021669999995;None;921.2020414999988;None;['9'];921.2020414999988;None;;[0.3674071000004915];;;;;;;Emoconpilot047;2022_Jan_07_1536;BackwardMask;2020.2.8;120.10021161764243;
;f;040_y_f_h_a.jpg;happy;9;19;f;019_m_f_s_a.jpg;sad;incongruent;7;match;;120;160;;3;133;block2_Pilot_2;40;h_s;h_s_strong;;;;;0;1;1;1;0;11;11;11;;;;;;;;;924.2027961999993;None;925.3188615999989;925.6114746999992;925.6114746999992;925.6361773999997;925.6361773999997;925.6772334999987;925.6772334999987;None;9;0;925.6772334999987;None;927.1770074999986;None;['7'];927.1770074999986;None;0.5482351999999082;[0.29644180000104825];;;;;;;Emoconpilot047;2022_Jan_07_1536;BackwardMask;2020.2.8;120.10021161764243;
;f;040_y_f_h_a.jpg;happy;9;13;m;013_y_m_s_a.jpg;sad;incongruent;7;mismatch;;120;160;;3;226;block2_Pilot_2;40;h_s;h_s_strong;;;;;0;1;1;1;0;12;12;12;;;;;;;;;930.1777595999993;None;932.0685904000002;932.3615868999987;932.3615868999987;932.3864814999997;932.3864814999997;932.4275343999998;932.4275343999998;None;9;0;932.4275343999998;None;933.9276884999999;None;['7'];933.9276884999999;None;0.47781600000053004;[0.3297282000003179];;;;;;;Emoconpilot047;2022_Jan_07_1536;BackwardMask;2020.2.8;120.10021161764243;
;f;030_o_f_s_a.jpg;sad;7;27;m;027_o_m_h_a.jpg;happy;incongruent;9;mismatch;;130;150;;1;238;block2_Pilot_2;30;s_h;s_h_strong;;;;;0;1;1;1;0;13;13;13;;;;;;;;;936.9283746000001;None;938.9327632999994;939.2288563000002;939.2288563000002;939.2365742999991;939.2365742999991;939.2774566999997;939.2774566999997;None;None;0;939.2774566999997;None;940.777329999999;None;['9'];940.777329999999;None;;[0.3839649000001373];;;;;;;Emoconpilot047;2022_Jan_07_1536;BackwardMask;2020.2.8;120.10021161764243;
;m;033_o_m_h_a.jpg;happy;9;30;f;030_o_f_s_a.jpg;sad;incongruent;7;mismatch;;120;160;;1;238;block2_Pilot_2;33;h_s;h_s_weak;;;;;0;1;1;1;0;14;14;14;;;;;;;;;943.7785041999996;None;945.7688627999996;946.062102599999;946.062102599999;946.0700214999997;946.0700214999997;946.1109818999994;946.1109818999994;None;None;0;946.1109818999994;None;947.6115276;None;['9'];947.6115276;None;;[0.37404370000149356];;;;;;;Emoconpilot047;2022_Jan_07_1536;BackwardMask;2020.2.8;120.10021161764243;
;f;030_o_f_s_a.jpg;sad;7;28;f;028_y_f_n_a.jpg;neutral;incongruent;8;match;;130;170;;3;198;block2_Pilot_2;30;s_n;s_n_weak;;;;;0;1;1;1;0;15;15;15;;;;;;;;;950.6110836999997;None;952.2978547000002;952.587543399999;952.587543399999;952.6118332999995;952.6118332999995;952.652668499999;952.652668499999;None;7;0;952.652668499999;None;954.1527615999985;None;['8'];954.1527615999985;None;0.9488562999995338;[0.5046728999986954];;;;;;;Emoconpilot047;2022_Jan_07_1536;BackwardMask;2020.2.8;120.10021161764243;
;f;030_o_f_s_a.jpg;sad;7;33;m;033_o_m_h_a.jpg;happy;incongruent;9;mismatch;;130;150;;3;175;block2_Pilot_2;30;s_h;s_h_weak;;;;;0;1;1;1;0;16;16;16;;;;;;;;;957.1542121999992;None;958.6303926;958.9209664999998;958.9209664999998;958.9454064999991;958.9454064999991;958.9862400999991;958.9862400999991;None;7;0;958.9862400999991;None;960.4861080999999;None;['8'];960.4861080999999;None;0.7111767999995209;[0.25937320000048203];;;;;;;Emoconpilot047;2022_Jan_07_1536;BackwardMask;2020.2.8;120.10021161764243;
;f;021_o_f_h_a.jpg;happy;9;30;f;030_o_f_h_a.jpg;happy;congruent;9;match;;120;150;;2;194;block2_Pilot_2;21;h_h;h_h_strong;;;;;0;1;1;1;0;17;17;17;;;;;;;;;963.4863421999999;None;965.1230192999992;965.4128953;965.4128953;965.4290993999984;965.4290993999984;965.4696245999985;965.4696245999985;None;9;1;965.4696245999985;None;966.9704726;None;['8'];966.9704726;None;0.7797721999995701;[0.2948554000013246];;;;;;;Emoconpilot047;2022_Jan_07_1536;BackwardMask;2020.2.8;120.10021161764243;
;f;019_m_f_n_a.jpg;neutral;8;16;m;016_y_m_s_a.jpg;sad;incongruent;7;mismatch;;140;160;;18;163;block2_Pilot_2;19;n_s;n_s_weak;;;;;0;1;1;1;0;18;18;18;;;;;;;;;969.9697306999988;None;971.3470736999989;971.637863599999;971.637863599999;971.7873856999995;971.7873856999995;971.8281867999995;971.8281867999995;None;8;0;971.8281867999995;None;973.3282051999995;None;['7'];973.3282051999995;None;0.4693769000004977;[0.2653004999992845];;;;;;;Emoconpilot047;2022_Jan_07_1536;BackwardMask;2020.2.8;120.10021161764243;
;m;033_o_m_n_a.jpg;neutral;8;13;m;013_y_m_n_a.jpg;neutral;congruent;8;match;;140;170;;2;217;block2_Pilot_2;33;n_n;n_n_strong;;;;;0;1;1;1;0;19;19;19;;;;;;;;;976.3289576999996;None;978.1556286999985;978.4461993999994;978.4461993999994;978.4624566000002;978.4624566000002;978.5033411999993;978.5033411999993;None;8;1;978.5033411999993;None;980.0034018999995;None;['8'];980.0034018999995;None;0.7222323000005417;[0.3179516000000149];;;;;;;Emoconpilot047;2022_Jan_07_1536;BackwardMask;2020.2.8;120.10021161764243;
;m;033_o_m_h_a.jpg;happy;9;13;m;013_y_m_n_a.jpg;neutral;incongruent;8;match;;120;170;;2;227;block2_Pilot_2;33;h_n;h_n_weak;;;;;0;1;1;1;0;20;20;20;;;;;;;;;983.0035343999989;None;984.9031474999992;985.1960951000001;985.1960951000001;985.2126240999987;985.2126240999987;985.2535238;985.2535238;None;9;0;985.2535238;None;986.7533681999994;None;['8'];986.7533681999994;None;0.7957805000005465;[0.38405669999883685];;;;;;;Emoconpilot047;2022_Jan_07_1536;BackwardMask;2020.2.8;120.10021161764243;
;f;012_o_f_s_a.jpg;sad;7;16;m;016_y_m_n_a.jpg;neutral;incongruent;8;mismatch;;130;170;;1;238;block2_Pilot_2;12;s_n;s_n_weak;;;;;0;1;1;1;0;21;21;21;;;;;;;;;989.7546867000001;None;991.7409874999994;992.0377721999994;992.0377721999994;992.0460062999991;992.0460062999991;992.0869248999988;992.0869248999988;None;None;0;992.0869248999988;None;993.5868300000002;None;['9'];993.5868300000002;None;;[0.3265919000004942];;;;;;;Emoconpilot047;2022_Jan_07_1536;BackwardMask;2020.2.8;120.10021161764243;
;f;028_y_f_n_a.jpg;neutral;8;21;f;021_o_f_h_a.jpg;happy;incongruent;9;match;;140;150;;18;202;block2_Pilot_2;28;n_h;n_h_strong;;;;;0;1;1;1;0;22;22;22;;;;;;;;;996.5877344;None;998.2930769999984;998.5883755999985;998.5883755999985;998.737787099999;998.737787099999;998.7786625999997;998.7786625999997;None;8;0;998.7786625999997;None;1000.2785777999998;None;['7'];1000.2785777999998;None;0.42286109999986365;[0.2749525999988691];;;;;;;Emoconpilot047;2022_Jan_07_1536;BackwardMask;2020.2.8;120.10021161764243;
;f;028_y_f_s_a.jpg;sad;7;30;f;030_o_f_n_a.jpg;neutral;incongruent;8;match;;130;170;;2;127;block2_Pilot_2;28;s_n;s_n_weak;;;;;0;1;1;1;0;23;23;23;;;;;;;;;1003.2790133999988;None;1004.3477507999996;1004.6382208999985;1004.6382208999985;1004.6545355999988;1004.6545355999988;1004.6954486999985;1004.6954486999985;None;8;1;1004.6954486999985;None;1006.1957653999998;None;['7'];1006.1957653999998;None;0.5458672000004299;[0.3255546000000322];;;;;;;Emoconpilot047;2022_Jan_07_1536;BackwardMask;2020.2.8;120.10021161764243;
;m;004_o_m_n_a.jpg;neutral;8;40;f;040_y_f_n_a.jpg;neutral;congruent;8;mismatch;;140;170;;1;238;block2_Pilot_2;4;n_n;n_n_weak;;;;;0;1;1;1;0;24;24;24;;;;;;;;;1009.1963867999984;None;1011.2030902999995;1011.4969853000002;1011.4969853000002;1011.5046714;1011.5046714;1011.5456130000002;1011.5456130000002;None;None;0;1011.5456130000002;None;1013.0456247000002;None;['9'];1013.0456247000002;None;;[0.3158789000008255];;;;;;;Emoconpilot047;2022_Jan_07_1536;BackwardMask;2020.2.8;120.10021161764243;
;m;016_y_m_n_a.jpg;neutral;8;16;m;016_y_m_h_a.jpg;happy;incongruent;9;match;;140;150;;18;239;block2_Pilot_2;16;n_h;n_h_weak;;;;;0;1;1;1;0;25;25;25;;;;;;;;;1016.0465417999985;None;1018.0562078999992;1018.3470404999989;1018.3470404999989;1018.4965056000001;1018.4965056000001;1018.5375586999999;1018.5375586999999;None;8;0;1018.5375586999999;None;1020.0381383999993;None;['7'];1020.0381383999993;None;0.44787990000077116;[0.38732830000117247];;;;;;;Emoconpilot047;2022_Jan_07_1536;BackwardMask;2020.2.8;120.10021161764243;
;f;012_o_f_n_a.jpg;neutral;8;33;m;033_o_m_n_a.jpg;neutral;congruent;8;mismatch;;140;170;;3;134;block2_Pilot_2;12;n_n;n_n_weak;;;;;0;1;1;1;0;26;26;26;;;;;;;;;1023.0384925999988;None;1024.1730050999995;1024.4639308999995;1024.4639308999995;1024.4884459999994;1024.4884459999994;1024.5291886999985;1024.5291886999985;None;8;1;1024.5291886999985;None;1026.0290464999998;None;['7'];1026.0290464999998;None;0.560381100000086;[0.30838760000006005];;;;;;;Emoconpilot047;2022_Jan_07_1536;BackwardMask;2020.2.8;120.10021161764243;
;m;013_y_m_h_a.jpg;happy;9;27;m;027_o_m_s_a.jpg;sad;incongruent;7;match;;120;160;;2;194;block2_Pilot_2;13;h_s;h_s_strong;;;;;0;1;1;1;0;27;27;27;;;;;;;;;1029.0294539999995;None;1030.6652465999996;1030.9555833999984;1030.9555833999984;1030.971802;1030.971802;1031.0126298999985;1031.0126298999985;None;9;0;1031.0126298999985;None;1032.512564499999;None;['7'];1032.512564499999;None;0.5809005999999499;[0.2648709000004601];;;;;;;Emoconpilot047;2022_Jan_07_1536;BackwardMask;2020.2.8;120.10021161764243;
;m;013_y_m_n_a.jpg;neutral;8;28;f;028_y_f_n_a.jpg;neutral;congruent;8;mismatch;;140;170;;1;238;block2_Pilot_2;13;n_n;n_n_weak;;;;;0;1;1;1;0;28;28;28;;;;;;;;;1035.5134354000002;None;1037.516219699999;1037.8058148;1037.8058148;1037.8135526999995;1037.8135526999995;1037.8544241;1037.8544241;None;None;0;1037.8544241;None;1039.3543617999985;None;['9'];1039.3543617999985;None;;[0.29516230000081123];;;;;;;Emoconpilot047;2022_Jan_07_1536;BackwardMask;2020.2.8;120.10021161764243;
;f;030_o_f_s_a.jpg;sad;7;33;m;033_o_m_h_a.jpg;happy;incongruent;9;mismatch;;130;150;;3;168;block2_Pilot_2;30;s_h;s_h_weak;;;;;0;1;1;1;0;29;29;29;;;;;;;;;1042.3545476;None;1043.7735607999984;1044.0643591999997;1044.0643591999997;1044.0886627;1044.0886627;1044.1295114999994;1044.1295114999994;None;7;0;1044.1295114999994;None;1045.6295573999996;None;['8'];1045.6295573999996;None;0.8239647999998851;[0.3479919000001246];;;;;;;Emoconpilot047;2022_Jan_07_1536;BackwardMask;2020.2.8;120.10021161764243;
;m;008_y_m_n_a.jpg;neutral;8;12;f;012_o_f_n_a.jpg;neutral;congruent;8;mismatch;;140;170;;18;208;block2_Pilot_2;8;n_n;n_n_weak;;;;;0;1;1;1;0;30;30;30;;;;;;;;;1048.6304095999985;None;1050.3825423999988;1050.6726284999986;1050.6726284999986;1050.8221904000002;1050.8221904000002;1050.8632053000001;1050.8632053000001;None;8;1;1050.8632053000001;None;1052.3631867999993;None;['7'];1052.3631867999993;None;0.42628770000010263;[0.31024649999926623];;;;;;;Emoconpilot047;2022_Jan_07_1536;BackwardMask;2020.2.8;120.10021161764243;
;m;008_y_m_s_a.jpg;sad;7;4;m;004_o_m_n_a.jpg;neutral;incongruent;8;match;;130;170;;2;231;block2_Pilot_2;8;s_n;s_n_weak;;;;;0;1;1;1;0;31;31;31;;;;;;;;;1055.3640105999984;None;1057.3077432999999;1057.5978680999997;1057.5978680999997;1057.614003499999;1057.614003499999;1057.6548628;1057.6548628;None;7;0;1057.6548628;None;1059.1548667999996;None;['8'];1059.1548667999996;None;0.7305733000011969;[0.39854010000090057];;;;;;;Emoconpilot047;2022_Jan_07_1536;BackwardMask;2020.2.8;120.10021161764243;
;m;016_y_m_n_a.jpg;neutral;8;28;f;028_y_f_n_a.jpg;neutral;congruent;8;mismatch;;140;170;;2;218;block2_Pilot_2;16;n_n;n_n_weak;;;;;0;1;1;1;0;32;32;32;;;;;;;;;1062.1559511999985;None;1063.9910138999985;1064.2812422999996;1064.2812422999996;1064.2973315999989;1064.2973315999989;1064.3382852999985;1064.3382852999985;None;None;0;1064.3382852999985;None;1065.8383173000002;None;['9'];1065.8383173000002;None;;[0.37116040000000794];;;;;;;Emoconpilot047;2022_Jan_07_1536;BackwardMask;2020.2.8;120.10021161764243;
;m;033_o_m_n_a.jpg;neutral;8;33;m;033_o_m_s_a.jpg;sad;incongruent;7;match;;140;160;;3;141;block2_Pilot_2;33;n_s;n_s_weak;;;;;0;1;1;1;0;33;33;33;;;;;;;;;1068.8391771999995;None;1070.032431399999;1070.3231022;1070.3231022;1070.3476465999993;1070.3476465999993;1070.3883533999997;1070.3883533999997;None;8;0;1070.3883533999997;None;1071.888417099999;None;['7'];1071.888417099999;None;0.565199599999687;[0.3689584999992803];;;;;;;Emoconpilot047;2022_Jan_07_1536;BackwardMask;2020.2.8;120.10021161764243;
;m;016_y_m_n_a.jpg;neutral;8;13;m;013_y_m_s_a.jpg;sad;incongruent;7;match;;140;160;;1;238;block2_Pilot_2;16;n_s;n_s_weak;;;;;0;1;1;1;0;34;34;34;;;;;;;;;1074.8892386999996;None;1076.8913901999986;1077.1815311999999;1077.1815311999999;1077.189298199999;1077.189298199999;1077.2302492999988;1077.2302492999988;None;None;0;1077.2302492999988;None;1078.7304521999995;None;['9'];1078.7304521999995;None;;[0.42305769999984477];;;;;;;Emoconpilot047;2022_Jan_07_1536;BackwardMask;2020.2.8;120.10021161764243;
;f;030_o_f_h_a.jpg;happy;9;12;f;012_o_f_n_a.jpg;neutral;incongruent;8;match;;120;170;;3;190;block2_Pilot_2;30;h_n;h_n_weak;;;;;0;1;1;1;0;35;35;35;;;;;;;;;1081.7313469;None;1083.3331832999993;1083.623447599999;1083.623447599999;1083.6477942000001;1083.6477942000001;1083.6885997999998;1083.6885997999998;None;9;0;1083.6885997999998;None;1085.1889027999987;None;['7'];1085.1889027999987;None;0.6167738000003737;[0.37258269999983895];;;;;;;Emoconpilot047;2022_Jan_07_1536;BackwardMask;2020.2.8;120.10021161764243;
;f;030_o_f_s_a.jpg;sad;7;12;f;012_o_f_n_a.jpg;neutral;incongruent;8;match;;130;170;;3;197;block2_Pilot_2;30;s_n;s_n_strong;;;;;0;1;1;1;0;36;36;36;;;;;;;;;1088.1892400999986;None;1089.8501199999992;1090.140368299999;1090.140368299999;1090.1646020999997;1090.1646020999997;1090.205482199999;1090.205482199999;None;7;0;1090.205482199999;None;1091.7055289;None;['8'];1091.7055289;None;0.7000210999995033;[0.38385029999881226];;;;;;;Emoconpilot047;2022_Jan_07_1536;BackwardMask;2020.2.8;120.10021161764243;
;m;004_o_m_s_a.jpg;sad;7;8;m;008_y_m_h_a.jpg;happy;incongruent;9;match;;130;150;;3;201;block2_Pilot_2;4;s_h;s_h_strong;;;;;0;1;1;1;0;37;37;37;;;;;;;;;1094.7062205999991;None;1096.3887325999985;1096.681618999999;1096.681618999999;1096.7065256999995;1096.7065256999995;1096.7473699000002;1096.7473699000002;None;None;0;1096.7473699000002;None;1098.247383;None;['9'];1098.247383;None;;[0.34613179999905697];;;;;;;Emoconpilot047;2022_Jan_07_1536;BackwardMask;2020.2.8;120.10021161764243;
;f;040_y_f_n_a.jpg;neutral;8;16;m;016_y_m_n_a.jpg;neutral;congruent;8;mismatch;;140;170;;3;198;block2_Pilot_2;40;n_n;n_n_strong;;;;;0;1;1;1;0;38;38;38;;;;;;;;;1101.2483064999997;None;1102.9181716999992;1103.2070879999992;1103.2070879999992;1103.231596399999;1103.231596399999;1103.272431899999;1103.272431899999;None;8;1;1103.272431899999;None;1104.7724772000001;None;['7'];1104.7724772000001;None;0.8729788000000553;[0.3010654000008799];;;;;;;Emoconpilot047;2022_Jan_07_1536;BackwardMask;2020.2.8;120.10021161764243;
;m;027_o_m_n_a.jpg;neutral;8;16;m;016_y_m_s_a.jpg;sad;incongruent;7;match;;140;160;;1;238;block2_Pilot_2;27;n_s;n_s_strong;;;;;0;1;1;1;0;39;39;39;;;;;;;;;1107.7727103999987;None;1109.7758626999985;1110.0657329999995;1110.0657329999995;1110.0732697999993;1110.0732697999993;1110.1142303999986;1110.1142303999986;None;None;0;1110.1142303999986;None;1111.6142215;None;['9'];1111.6142215;None;;[0.8033213000016985];;;;;;;Emoconpilot047;2022_Jan_07_1536;BackwardMask;2020.2.8;120.10021161764243;
;m;033_o_m_n_a.jpg;neutral;8;40;f;040_y_f_h_a.jpg;happy;incongruent;9;mismatch;;140;150;;2;137;block2_Pilot_2;33;n_h;n_h_strong;;;;;0;1;1;1;0;40;40;40;;;;;;;;;1114.6153860999984;None;1115.7753496999994;1116.065846899999;1116.065846899999;1116.0820366999997;1116.0820366999997;1116.122696299999;1116.122696299999;None;8;0;1116.122696299999;None;1117.6228667999985;None;['8'];1117.6228667999985;None;0.5907386999988375;[0.3467292000004818];;;;;;;Emoconpilot047;2022_Jan_07_1536;BackwardMask;2020.2.8;120.10021161764243;
;m;004_o_m_s_a.jpg;sad;7;8;m;008_y_m_h_a.jpg;happy;incongruent;9;match;;130;150;;18;193;block2_Pilot_2;4;s_h;s_h_strong;;;;;0;1;1;1;0;41;41;41;;;;;;;;;1120.623592599999;None;1122.2397086;1122.5320789999987;1122.5320789999987;1122.6818814999988;1122.6818814999988;1122.7229042999988;1122.7229042999988;None;7;0;1122.7229042999988;None;1124.2233785999997;None;['7'];1124.2233785999997;None;0.48641719999977795;[0.3300622000006115];;;;;;;Emoconpilot047;2022_Jan_07_1536;BackwardMask;2020.2.8;120.10021161764243;
;f;012_o_f_h_a.jpg;happy;9;4;m;004_o_m_s_a.jpg;sad;incongruent;7;mismatch;;120;160;;3;198;block2_Pilot_2;12;h_s;h_s_weak;;;;;0;1;1;1;0;42;42;42;;;;;;;;;1127.2234093999996;None;1128.8810545999986;1129.1740851999984;1129.1740851999984;1129.1987626999999;1129.1987626999999;1129.239640599999;1129.239640599999;None;9;0;1129.239640599999;None;1130.7397296999989;None;['7'];1130.7397296999989;None;0.4818087000003288;[0.25372779999997874];;;;;;;Emoconpilot047;2022_Jan_07_1536;BackwardMask;2020.2.8;120.10021161764243;
;f;012_o_f_n_a.jpg;neutral;8;8;m;008_y_m_s_a.jpg;sad;incongruent;7;mismatch;;140;160;;1;238;block2_Pilot_2;12;n_s;n_s_strong;;;;;0;1;1;1;0;43;43;43;;;;;;;;;1133.7405116999998;None;1135.7480963999988;1136.0413131999994;1136.0413131999994;1136.0488932999997;1136.0488932999997;1136.0897198000002;1136.0897198000002;None;None;0;1136.0897198000002;None;1137.5896993999995;None;['9'];1137.5896993999995;None;;[0.35572270000011486];;;;;;;Emoconpilot047;2022_Jan_07_1536;BackwardMask;2020.2.8;120.10021161764243;
;f;040_y_f_n_a.jpg;neutral;8;8;m;008_y_m_n_a.jpg;neutral;congruent;8;mismatch;;140;170;;3;165;block2_Pilot_2;40;n_n;n_n_weak;;;;;0;1;1;1;0;44;44;44;;;;;;;;;1140.5913416999992;None;1141.983646999999;1142.2744074999991;1142.2744074999991;1142.2990289999998;1142.2990289999998;1142.3399482999994;1142.3399482999994;None;8;1;1142.3399482999994;None;1143.839960899999;None;['7'];1143.839960899999;None;0.6935600000015256;[0.31321829999978945];;;;;;;Emoconpilot047;2022_Jan_07_1536;BackwardMask;2020.2.8;120.10021161764243;
;f;028_y_f_h_a.jpg;happy;9;33;m;033_o_m_n_a.jpg;neutral;incongruent;8;mismatch;;120;170;;1;238;block2_Pilot_2;28;h_n;h_n_strong;;;;;0;1;1;1;0;45;45;45;;;;;;;;;1146.8409052999996;None;1148.8343095;1149.1244951999997;1149.1244951999997;1149.1324611;1149.1324611;1149.1733722999998;1149.1733722999998;None;None;0;1149.1733722999998;None;1150.6733341;None;['9'];1150.6733341;None;;[0.4481498000004649];;;;;;;Emoconpilot047;2022_Jan_07_1536;BackwardMask;2020.2.8;120.10021161764243;
;m;027_o_m_s_a.jpg;sad;7;19;f;019_m_f_n_a.jpg;neutral;incongruent;8;mismatch;;130;170;;2;236;block2_Pilot_2;27;s_n;s_n_weak;;;;;0;1;1;1;0;46;46;46;;;;;;;;;1153.674313899999;None;1155.6484162999986;1155.9410878999988;1155.9410878999988;1155.957717199999;1155.957717199999;1155.9985895999998;1155.9985895999998;None;None;0;1155.9985895999998;None;1157.4985540999987;None;['9'];1157.4985540999987;None;;[0.3509087999991607];;;;;;;Emoconpilot047;2022_Jan_07_1536;BackwardMask;2020.2.8;120.10021161764243;
;m;027_o_m_h_a.jpg;happy;9;19;f;019_m_f_s_a.jpg;sad;incongruent;7;mismatch;;120;160;;1;238;block2_Pilot_2;27;h_s;h_s_strong;;;;;0;1;1;1;0;47;47;47;;;;;;;;;1160.4995408999985;None;1162.5135499999997;1162.8083325999996;1162.8083325999996;1162.816059499999;1162.816059499999;1162.8570530999987;1162.8570530999987;None;None;0;1162.8570530999987;None;1164.3569967999993;None;['9'];1164.3569967999993;None;;[0.3724655999994866];;;;;;;Emoconpilot047;2022_Jan_07_1536;BackwardMask;2020.2.8;120.10021161764243;
;m;016_y_m_h_a.jpg;happy;9;4;m;004_o_m_s_a.jpg;sad;incongruent;7;match;;120;160;;3;227;block2_Pilot_2;16;h_s;h_s_strong;;;;;0;1;1;1;0;48;48;48;;;;;;;;;1167.3580090999985;None;1169.2571282999997;1169.5499509;1169.5499509;1169.5746390999993;1169.5746390999993;1169.6154974;1169.6154974;None;9;0;1169.6154974;None;1171.115746899999;None;['7'];1171.115746899999;None;0.6579320000000735;[0.43759619999946153];;;;;;;Emoconpilot047;2022_Jan_07_1536;BackwardMask;2020.2.8;120.10021161764243;
;f;040_y_f_h_a.jpg;happy;9;13;m;013_y_m_h_a.jpg;happy;congruent;9;mismatch;;120;150;;3;165;block2_Pilot_2;40;h_h;h_h_strong;;;;;0;1;1;1;0;49;49;49;;;;;;;;;1174.1167379999988;None;1175.4986668000001;1175.791559199999;1175.791559199999;1175.8164579999993;1175.8164579999993;1175.8571534000002;1175.8571534000002;None;9;1;1175.8571534000002;None;1177.3572992999998;None;['7'];1177.3572992999998;None;0.5202638999999181;[0.2841439999992872];;;;;;;Emoconpilot047;2022_Jan_07_1536;BackwardMask;2020.2.8;120.10021161764243;
;m;033_o_m_s_a.jpg;sad;7;28;f;028_y_f_n_a.jpg;neutral;incongruent;8;mismatch;;130;170;;2;227;block2_Pilot_2;33;s_n;s_n_weak;;;;;0;1;1;1;0;50;50;50;;;;;;;;;1180.3588603999997;None;1182.2567961999994;1182.5501006999984;1182.5501006999984;1182.5664367999998;1182.5664367999998;1182.6074026999995;1182.6074026999995;None;None;0;1182.6074026999995;None;1184.107362499999;None;['9'];1184.107362499999;None;;[0.45393999999942025];;;;;;;Emoconpilot047;2022_Jan_07_1536;BackwardMask;2020.2.8;120.10021161764243;
;f;019_m_f_s_a.jpg;sad;7;27;m;027_o_m_h_a.jpg;happy;incongruent;9;mismatch;;130;150;;1;238;block2_Pilot_2;19;s_h;s_h_weak;;;;;0;1;1;1;0;51;51;51;;;;;;;;;1187.1076599999997;None;1189.1257346999992;1189.4171690999992;1189.4171690999992;1189.4249657;1189.4249657;1189.4658094999995;1189.4658094999995;None;None;0;1189.4658094999995;None;1190.9658309999995;None;['9'];1190.9658309999995;None;;[0.40359560000069905];;;;;;;Emoconpilot047;2022_Jan_07_1536;BackwardMask;2020.2.8;120.10021161764243;
;m;016_y_m_h_a.jpg;happy;9;19;f;019_m_f_n_a.jpg;neutral;incongruent;8;mismatch;;120;170;;18;238;block2_Pilot_2;16;h_n;h_n_strong;;;;;0;1;1;1;0;52;52;52;;;;;;;;;1193.9667852000002;None;1195.9577107999994;1196.2502724999995;1196.2502724999995;1196.4000925;1196.4000925;1196.4411339999988;1196.4411339999988;None;9;0;1196.4411339999988;None;1197.9413833999988;None;['7'];1197.9413833999988;None;0.6082430999995267;[0.3560075000004872];;;;;;;Emoconpilot047;2022_Jan_07_1536;BackwardMask;2020.2.8;120.10021161764243;
;f;021_o_f_s_a.jpg;sad;7;8;m;008_y_m_n_a.jpg;neutral;incongruent;8;mismatch;;130;170;;1;238;block2_Pilot_2;21;s_n;s_n_strong;;;;;0;1;1;1;0;53;53;53;;;;;;;;;1200.9417684;None;1202.930447499999;1203.2254264999992;1203.2254264999992;1203.233655599999;1203.233655599999;1203.2743427999994;1203.2743427999994;None;None;0;1203.2743427999994;None;1204.7752077999994;None;['9'];1204.7752077999994;None;;[0.3621705000005022];;;;;;;Emoconpilot047;2022_Jan_07_1536;BackwardMask;2020.2.8;120.10021161764243;
;f;012_o_f_s_a.jpg;sad;7;33;m;033_o_m_s_a.jpg;sad;congruent;7;mismatch;;130;160;;2;148;block2_Pilot_2;12;s_s;s_s_weak;;;;;0;1;1;1;0;54;54;54;;;;;;;;;1207.7745602999985;None;1209.0129073999997;1209.3087698999989;1209.3087698999989;1209.3253329999989;1209.3253329999989;1209.3662793999993;1209.3662793999993;None;None;0;1209.3662793999993;None;1210.8662384999989;None;['9'];1210.8662384999989;None;;[0.4392215000007127];;;;;;;Emoconpilot047;2022_Jan_07_1536;BackwardMask;2020.2.8;120.10021161764243;
;f;030_o_f_s_a.jpg;sad;7;40;f;040_y_f_s_a.jpg;sad;congruent;7;match;;130;160;;3;136;block2_Pilot_2;30;s_s;s_s_strong;;;;;0;1;1;1;0;55;55;55;;;;;;;;;1213.8671448999994;None;1215.031893899999;1215.3261137999998;1215.3261137999998;1215.3505971999984;1215.3505971999984;1215.3913158999985;1215.3913158999985;None;7;1;1215.3913158999985;None;1216.8914840999987;None;['8'];1216.8914840999987;None;0.8740207999999257;[0.28594949999933306];;;;;;;Emoconpilot047;2022_Jan_07_1536;BackwardMask;2020.2.8;120.10021161764243;
;m;027_o_m_s_a.jpg;sad;7;28;f;028_y_f_h_a.jpg;happy;incongruent;9;mismatch;;130;150;;1;238;block2_Pilot_2;27;s_h;s_h_weak;;;;;0;1;1;1;0;56;56;56;;;;;;;;;1219.8923814999998;None;1221.882846999999;1222.1758266999987;1222.1758266999987;1222.1839494999986;1222.1839494999986;1222.2247871;1222.2247871;None;None;0;1222.2247871;None;1223.7250156999999;None;['9'];1223.7250156999999;None;;[0.3242869999994582];;;;;;;Emoconpilot047;2022_Jan_07_1536;BackwardMask;2020.2.8;120.10021161764243;
;m;004_o_m_n_a.jpg;neutral;8;8;m;008_y_m_s_a.jpg;sad;incongruent;7;match;;140;160;;3;225;block2_Pilot_2;4;n_s;n_s_strong;;;;;0;1;1;1;0;57;57;57;;;;;;;;;1226.725692099999;None;1228.6552906999987;1228.9513470000002;1228.9513470000002;1228.9756018999997;1228.9756018999997;1229.0165906000002;1229.0165906000002;None;8;0;1229.0165906000002;None;1230.5168233999993;None;['7'];1230.5168233999993;None;0.6728772000005847;[0.3165363999996771];;;;;;;Emoconpilot047;2022_Jan_07_1536;BackwardMask;2020.2.8;120.10021161764243;
;f;012_o_f_s_a.jpg;sad;7;40;f;040_y_f_s_a.jpg;sad;congruent;7;match;;130;160;;1;238;block2_Pilot_2;12;s_s;s_s_strong;;;;;0;1;1;1;0;58;58;58;;;;;;;;;1233.5177754999986;None;1235.5032904;1235.800964099999;1235.800964099999;1235.8092490999989;1235.8092490999989;1235.8500547999993;1235.8500547999993;None;None;0;1235.8500547999993;None;1237.3502520000002;None;['9'];1237.3502520000002;None;;[0.3471215999998094];;;;;;;Emoconpilot047;2022_Jan_07_1536;BackwardMask;2020.2.8;120.10021161764243;
;f;021_o_f_h_a.jpg;happy;9;4;m;004_o_m_n_a.jpg;neutral;incongruent;8;mismatch;;120;170;;1;238;block2_Pilot_2;21;h_n;h_n_weak;;;;;0;1;1;1;0;59;59;59;;;;;;;;;1240.3509668999995;None;1242.3551783999992;1242.6514754;1242.6514754;1242.6592848;1242.6592848;1242.7002416999985;1242.7002416999985;None;None;0;1242.7002416999985;None;1244.2002340999989;None;['9'];1244.2002340999989;None;;[0.33715789999951085];;;;;;;Emoconpilot047;2022_Jan_07_1536;BackwardMask;2020.2.8;120.10021161764243;
;f;040_y_f_h_a.jpg;happy;9;16;m;016_y_m_n_a.jpg;neutral;incongruent;8;mismatch;;120;170;;2;154;block2_Pilot_2;40;h_n;h_n_weak;;;;;0;1;1;1;0;60;60;60;;;;;;;;;1247.201202799999;None;1248.4915927999991;1248.784724199999;1248.784724199999;1248.8011076999992;1248.8011076999992;1248.8421467999997;1248.8421467999997;None;8;1;1248.8421467999997;None;1250.3419300999994;None;['8'];1250.3419300999994;None;0.663118200000099;[0.3074172999986331];;;;;;;Emoconpilot047;2022_Jan_07_1536;BackwardMask;2020.2.8;120.10021161764243;
;m;008_y_m_n_a.jpg;neutral;8;4;m;004_o_m_s_a.jpg;sad;incongruent;7;match;;140;160;;18;145;block2_Pilot_2;8;n_s;n_s_strong;;;;;0;1;1;1;0;61;61;61;;;;;;;;;1253.3423160999992;None;1254.5712098999993;1254.8601731999988;1254.8601731999988;1255.0095505999998;1255.0095505999998;1255.0504452999994;1255.0504452999994;None;8;0;1255.0504452999994;None;1256.5503305999991;None;['7'];1256.5503305999991;None;0.46300650000011956;[0.4110516999990068];;;;;;;Emoconpilot047;2022_Jan_07_1536;BackwardMask;2020.2.8;120.10021161764243;
;f;021_o_f_s_a.jpg;sad;7;33;m;033_o_m_h_a.jpg;happy;incongruent;9;mismatch;;130;150;;1;238;block2_Pilot_2;21;s_h;s_h_strong;;;;;0;1;1;1;0;62;62;62;;;;;;;;;1259.550518099999;None;1261.539896799999;1261.8349182000002;1261.8349182000002;1261.8430806999986;1261.8430806999986;1261.8839826999993;1261.8839826999993;None;None;0;1261.8839826999993;None;1263.3840511999988;None;['9'];1263.3840511999988;None;;[0.3533776999993279];;;;;;;Emoconpilot047;2022_Jan_07_1536;BackwardMask;2020.2.8;120.10021161764243;
;m;033_o_m_n_a.jpg;neutral;8;30;f;030_o_f_h_a.jpg;happy;incongruent;9;mismatch;;140;150;;18;171;block2_Pilot_2;33;n_h;n_h_weak;;;;;0;1;1;1;0;63;63;63;;;;;;;;;1266.3840653999996;None;1267.8303223999992;1268.1269474;1268.1269474;1268.2765136999988;1268.2765136999988;1268.3175752999996;1268.3175752999996;None;8;0;1268.3175752999996;None;1269.8176231999987;None;['7'];1269.8176231999987;None;0.45173459999932675;[0.2955855000000156];;;;;;;Emoconpilot047;2022_Jan_07_1536;BackwardMask;2020.2.8;120.10021161764243;
;m;027_o_m_n_a.jpg;neutral;8;27;m;027_o_m_h_a.jpg;happy;incongruent;9;match;;140;150;;2;164;block2_Pilot_2;27;n_h;n_h_weak;;;;;0;1;1;1;0;64;64;64;;;;;;;;;1272.817595299999;None;1274.2035404999988;1274.4938991;1274.4938991;1274.5101558999995;1274.5101558999995;1274.5508496000002;1274.5508496000002;None;None;0;1274.5508496000002;None;1276.0509003999996;None;['9'];1276.0509003999996;None;;[0.6704432999995333];;;;;;;Emoconpilot047;2022_Jan_07_1536;BackwardMask;2020.2.8;120.10021161764243;
;m;008_y_m_n_a.jpg;neutral;8;40;f;040_y_f_n_a.jpg;neutral;congruent;8;mismatch;;140;170;;1;238;block2_Pilot_2;8;n_n;n_n_strong;;;;;0;1;1;1;0;65;65;65;;;;;;;;;1279.0522406;None;1281.0535063999996;1281.3439820999993;1281.3439820999993;1281.3517464999986;1281.3517464999986;1281.3925953999988;1281.3925953999988;None;None;0;1281.3925953999988;None;1282.8926768000001;None;['9'];1282.8926768000001;None;;[0.37269759999981034];;;;;;;Emoconpilot047;2022_Jan_07_1536;BackwardMask;2020.2.8;120.10021161764243;
;f;040_y_f_h_a.jpg;happy;9;21;f;021_o_f_n_a.jpg;neutral;incongruent;8;match;;120;170;;18;239;block2_Pilot_2;40;h_n;h_n_strong;;;;;0;1;1;1;0;66;66;66;;;;;;;;;1285.894213399999;None;1287.8927568;1288.1853237999985;1288.1853237999985;1288.3351938999986;1288.3351938999986;1288.3761039;1288.3761039;None;9;0;1288.3761039;None;1289.876139599999;None;['7'];1289.876139599999;None;0.43321929999910935;[0.2692876000000979];;;;;;;Emoconpilot047;2022_Jan_07_1536;BackwardMask;2020.2.8;120.10021161764243;
;f;021_o_f_s_a.jpg;sad;7;28;f;028_y_f_h_a.jpg;happy;incongruent;9;match;;130;150;;1;238;block2_Pilot_2;21;s_h;s_h_weak;;;;;0;1;1;1;0;67;67;67;;;;;;;;;1292.8778966999998;None;1294.8658689999993;1295.1606881999996;1295.1606881999996;1295.1688333999991;1295.1688333999991;1295.2096499;1295.2096499;None;None;0;1295.2096499;None;1296.7096058999996;None;['9'];1296.7096058999996;None;;[0.40384570000060194];;;;;;;Emoconpilot047;2022_Jan_07_1536;BackwardMask;2020.2.8;120.10021161764243;
;f;021_o_f_n_a.jpg;neutral;8;30;f;030_o_f_n_a.jpg;neutral;congruent;8;match;;140;170;;2;209;block2_Pilot_2;21;n_n;n_n_strong;;;;;0;1;1;1;0;68;68;68;;;;;;;;;1299.7105992999986;None;1301.4929373999985;1301.786101399999;1301.786101399999;1301.802257199999;1301.802257199999;1301.8429235999993;1301.8429235999993;None;None;0;1301.8429235999993;None;1303.3437864999996;None;['9'];1303.3437864999996;None;;[0.3453898999996454];;;;;;;Emoconpilot047;2022_Jan_07_1536;BackwardMask;2020.2.8;120.10021161764243;
;f;040_y_f_s_a.jpg;sad;7;13;m;013_y_m_s_a.jpg;sad;congruent;7;mismatch;;130;160;;3;147;block2_Pilot_2;40;s_s;s_s_strong;;;;;0;1;1;1;0;69;69;69;;;;;;;;;1306.3441028999987;None;1307.5766101999998;1307.8692508999993;1307.8692508999993;1307.8941318999987;1307.8941318999987;1307.9348124999997;1307.9348124999997;None;8;0;1307.9348124999997;None;1309.4354702;None;['7'];1309.4354702;None;0.5865176999996038;[0.30992650000007416];;;;;;;Emoconpilot047;2022_Jan_07_1536;BackwardMask;2020.2.8;120.10021161764243;
;f;040_y_f_s_a.jpg;sad;7;21;f;021_o_f_h_a.jpg;happy;incongruent;9;match;;130;150;;3;172;block2_Pilot_2;40;s_h;s_h_strong;;;;;0;1;1;1;0;70;70;70;;;;;;;;;1312.434916099999;None;1313.8765304999997;1314.1693171999996;1314.1693171999996;1314.1940501999998;1314.1940501999998;1314.235016499999;1314.235016499999;None;7;0;1314.235016499999;None;1315.7349227999985;None;['8'];1315.7349227999985;None;0.8381184999998368;[0.5704535999993823];;;;;;;Emoconpilot047;2022_Jan_07_1536;BackwardMask;2020.2.8;120.10021161764243;
;m;013_y_m_s_a.jpg;sad;7;16;m;016_y_m_n_a.jpg;neutral;incongruent;8;match;;130;170;;1;238;block2_Pilot_2;13;s_n;s_n_strong;;;;;0;1;1;1;0;71;71;71;;;;;;;;;1318.7359848999986;None;1320.7268459999996;1321.0194348999994;1321.0194348999994;1321.0277707999994;1321.0277707999994;1321.0685744999992;1321.0685744999992;None;9;0;1321.0685744999992;None;1322.5684604999988;None;['9'];1322.5684604999988;None;0.8048316000003979;[0.24092250000103377];;;;;;;Emoconpilot047;2022_Jan_07_1536;BackwardMask;2020.2.8;120.10021161764243;
;m;008_y_m_s_a.jpg;sad;7;12;f;012_o_f_h_a.jpg;happy;incongruent;9;mismatch;;130;150;;18;238;block2_Pilot_2;8;s_h;s_h_weak;;;;;0;1;1;1;0;72;72;72;;;;;;;;;1325.5699277999993;None;1327.5790738999985;1327.8700546;1327.8700546;1328.019387799999;1328.019387799999;1328.0602815000002;1328.0602815000002;None;7;0;1328.0602815000002;None;1329.5603795999996;None;['7'];1329.5603795999996;None;0.5170738000015263;[0.32910160000028554];;;;;;;Emoconpilot047;2022_Jan_07_1536;BackwardMask;2020.2.8;120.10021161764243;
