Person;primeGender;prime;primeEmotion;corrAnsPrime;targetPerson;targetGender;target;targetEmotion;Cond;corrAnsTar;gender;condition;ID_primer;ID_target;PrimerTime;PrimerTime120;JitterTime;conditionsFile;primePerson;emotion_condition;Condition;example.thisRepN;example.thisTrialN;example.thisN;example.thisIndex;readinBlocks.thisRepN;readinBlocks.thisTrialN;readinBlocks.thisN;readinBlocks.thisIndex;trials.thisRepN;trials.thisTrialN;trials.thisN;trials.thisIndex;text_intro.started;text_intro.stopped;text_probe.started;text_probe.stopped;key_resp_2.keys;key_resp_2.rt;key_resp_2.started;key_resp_2.stopped;polygon_ISI.started;polygon_ISI.stopped;polygon.started;polygon.stopped;primerImage.started;primerImage.stopped;maskImage.started;maskImage.stopped;response.started;response.stopped;key_resp.keys;key_resp.corr;key_resp.rt;key_resp.started;key_resp.stopped;text.started;text.stopped;key_resp_Rating.keys;key_resp_Rating.rt;key_resp_Rating.started;key_resp_Rating.stopped;text_start.started;text_start.stopped;text_pause.started;text_pause.stopped;participant;date;expName;psychopyVersion;frameRate;
;;;;;;;;;;;;;;;;;;;;;;;;;;;;;;;;;;21.85408920000009;26.82318110000051;26.82318110000051;None;7;20.013358000000153;21.85408920000009;None;;;;;;;;;;;;;;;;;;;;;;;;;;Emoconpilot032;2021_Oct_27_1337;BackwardMask;2020.2.8;120.1271906699742;
2;f;1113_y_f_s_a.jpg;sad;7;1;m;1111_m_m_h_a.jpg;happy;incongruent;9;mix;s+h;130;150;1;2;148;;;;;0;0;0;0;;;;;;;;;;;;;;;;;41.89835910000056;None;43.17054090000056;43.48477679999996;43.48477679999996;43.515731000000414;43.515731000000414;43.548037399999885;43.548037399999885;None;8;0;0.9675457999992432;43.548037399999885;None;45.048681600000236;None;['8'];[0.6426151999994545];45.048681600000236;None;;;;;Emoconpilot032;2021_Oct_27_1337;BackwardMask;2020.2.8;120.1271906699742;
2;f;1111_m_m_h_a.jpg;happy;9;3;f;1113_y_f_s_a.jpg;sad;incongruent;7;mix;h+s;120;160;9;18;195;;;;;0;1;1;1;;;;;;;;;;;;;;;;;48.04822469999999;None;49.69795179999983;49.99031439999999;49.99031439999999;50.13981520000016;50.13981520000016;50.180769800000235;50.180769800000235;None;9;0;0.5506572000003871;50.180769800000235;None;51.68098590000045;None;['7'];[0.6424214999997275];51.68098590000045;None;;;;;Emoconpilot032;2021_Oct_27_1337;BackwardMask;2020.2.8;120.1271906699742;
2;f;1112_m_f_n_a.jpg;neutral;8;2;f;1112_m_f_n_a.jpg;neutral;congruent;8;match;n+n;140;170;9;18;134;;;;;0;2;2;2;;;;;;;;;;;;;;;;;54.68184560000009;None;55.81818040000053;56.107273200000236;56.107273200000236;56.256672999999864;56.256672999999864;56.29752009999993;56.29752009999993;None;8;1;0.5299232000006668;56.29752009999993;None;57.797620299999835;None;['7'];[0.7178155000001425];57.797620299999835;None;;;;;Emoconpilot032;2021_Oct_27_1337;BackwardMask;2020.2.8;120.1271906699742;
;m;033_o_m_h_a.jpg;happy;9;30;f;030_o_f_n_a.jpg;neutral;incongruent;8;mismatch;;120;170;;18;238;block1_Pilot_2;33;h_n;h_n_strong;;;;;0;0;0;0;0;0;0;0;;;;;;;;;61.830647800000406;None;63.821818800000074;64.11543350000011;64.11543350000011;64.26512809999986;64.26512809999986;64.30607099999997;64.30607099999997;None;9;0;0.4492667000004076;64.30607099999997;None;65.80681980000008;None;['7'];[0.37265019999995275];65.80681980000008;None;60.79863999999998;None;None;None;Emoconpilot032;2021_Oct_27_1337;BackwardMask;2020.2.8;120.1271906699742;
;m;004_o_m_h_a.jpg;happy;9;12;f;012_o_f_h_a.jpg;happy;congruent;9;mismatch;;120;150;;2;218;block1_Pilot_2;4;h_h;h_h_weak;;;;;0;0;0;0;0;1;1;1;;;;;;;;;68.80711510000037;None;70.69217879999997;70.98255390000031;70.98255390000031;70.9986073;70.9986073;71.0394608000006;71.0394608000006;None;9;1;0.651961399999891;71.0394608000006;None;72.54004290000012;None;['7'];[0.4474890999999843];72.54004290000012;None;;;;;Emoconpilot032;2021_Oct_27_1337;BackwardMask;2020.2.8;120.1271906699742;
;f;012_o_f_h_a.jpg;happy;9;33;m;033_o_m_h_a.jpg;happy;congruent;9;mismatch;;120;150;;2;140;block1_Pilot_2;12;h_h;h_h_weak;;;;;0;0;0;0;0;2;2;2;;;;;;;;;75.5396894000005;None;76.71596709999994;77.00735870000062;77.00735870000062;77.02368819999992;77.02368819999992;77.06472190000022;77.06472190000022;None;9;1;0.6266449000004286;77.06472190000022;None;78.56458060000023;None;['7'];[0.3668448999997054];78.56458060000023;None;;;;;Emoconpilot032;2021_Oct_27_1337;BackwardMask;2020.2.8;120.1271906699742;
;f;040_y_f_n_a.jpg;neutral;8;40;f;040_y_f_h_a.jpg;happy;incongruent;9;match;;140;150;;2;192;block1_Pilot_2;40;n_h;n_h_weak;;;;;0;0;0;0;0;3;3;3;;;;;;;;;81.5647968000003;None;83.18770920000043;83.4828879000006;83.4828879000006;83.49886810000044;83.49886810000044;83.53960800000004;83.53960800000004;None;8;0;0.6637621999998373;83.53960800000004;None;85.03987680000046;None;['7'];[0.7794331000004604];85.03987680000046;None;;;;;Emoconpilot032;2021_Oct_27_1337;BackwardMask;2020.2.8;120.1271906699742;
;m;013_y_m_s_a.jpg;sad;7;16;m;016_y_m_n_a.jpg;neutral;incongruent;8;match;;130;170;;3;155;block1_Pilot_2;13;s_n;s_n_weak;;;;;0;0;0;0;0;4;4;4;;;;;;;;;88.04052690000026;None;89.34044730000005;89.63247279999996;89.63247279999996;89.65733830000045;89.65733830000045;89.69816830000036;89.69816830000036;None;8;1;0.9853440999995655;89.69816830000036;None;91.19815560000006;None;['8'];[0.3413055999999415];91.19815560000006;None;;;;;Emoconpilot032;2021_Oct_27_1337;BackwardMask;2020.2.8;120.1271906699742;
;f;012_o_f_h_a.jpg;happy;9;21;f;021_o_f_h_a.jpg;happy;congruent;9;match;;120;150;;2;216;block1_Pilot_2;12;h_h;h_h_strong;;;;;0;0;0;0;0;5;5;5;;;;;;;;;94.19915700000001;None;96.00634160000027;96.29922560000068;96.29922560000068;96.31577760000073;96.31577760000073;96.35659120000037;96.35659120000037;None;9;1;0.6227930000004562;96.35659120000037;None;97.85689040000034;None;['7'];[0.5226251000003685];97.85689040000034;None;;;;;Emoconpilot032;2021_Oct_27_1337;BackwardMask;2020.2.8;120.1271906699742;
;f;040_y_f_s_a.jpg;sad;7;40;f;040_y_f_h_a.jpg;happy;incongruent;9;match;;130;150;;1;238;block1_Pilot_2;40;s_h;s_h_weak;;;;;0;0;0;0;0;6;6;6;;;;;;;;;100.85689550000006;None;102.84790060000068;103.14104950000001;103.14104950000001;103.1493418;103.1493418;103.19010930000059;103.19010930000059;None;None;0;;103.19010930000059;None;104.69049330000053;None;['9'];[0.3689293000006728];104.69049330000053;None;;;;;Emoconpilot032;2021_Oct_27_1337;BackwardMask;2020.2.8;120.1271906699742;
;m;033_o_m_n_a.jpg;neutral;8;27;m;027_o_m_n_a.jpg;neutral;congruent;8;match;;140;170;;18;238;block1_Pilot_2;33;n_n;n_n_weak;;;;;0;0;0;0;0;7;7;7;;;;;;;;;107.69033200000013;None;109.71198869999989;110.0084796000001;110.0084796000001;110.15772809999999;110.15772809999999;110.1985809000007;110.1985809000007;None;8;1;0.5248069999997824;110.1985809000007;None;111.69975820000036;None;['7'];[0.49548289999984263];111.69975820000036;None;;;;;Emoconpilot032;2021_Oct_27_1337;BackwardMask;2020.2.8;120.1271906699742;
;f;040_y_f_h_a.jpg;happy;9;19;f;019_m_f_n_a.jpg;neutral;incongruent;8;match;;120;170;;1;238;block1_Pilot_2;40;h_n;h_n_strong;;;;;0;0;0;0;0;8;8;8;;;;;;;;;114.69975620000059;None;116.69122659999994;116.98300100000051;116.98300100000051;116.99103230000037;116.99103230000037;117.03220630000033;117.03220630000033;None;None;0;;117.03220630000033;None;118.53210320000017;None;['9'];[0.66319730000032];118.53210320000017;None;;;;;Emoconpilot032;2021_Oct_27_1337;BackwardMask;2020.2.8;120.1271906699742;
;m;013_y_m_h_a.jpg;happy;9;12;f;012_o_f_s_a.jpg;sad;incongruent;7;mismatch;;120;160;;3;198;block1_Pilot_2;13;h_s;h_s_weak;;;;;0;0;0;0;0;9;9;9;;;;;;;;;121.53289620000032;None;123.21604449999995;123.50822849999986;123.50822849999986;123.5327399000007;123.5327399000007;123.57350720000068;123.57350720000068;None;9;0;0.6218702000005578;123.57350720000068;None;125.07380009999997;None;['7'];[0.4896699000000808];125.07380009999997;None;;;;;Emoconpilot032;2021_Oct_27_1337;BackwardMask;2020.2.8;120.1271906699742;
;m;008_y_m_h_a.jpg;happy;9;4;m;004_o_m_n_a.jpg;neutral;incongruent;8;match;;120;170;;18;150;block1_Pilot_2;8;h_n;h_n_strong;;;;;0;0;0;0;0;10;10;10;;;;;;;;;128.07393820000016;None;129.33256250000068;129.62502800000038;129.62502800000038;129.77487689999998;129.77487689999998;129.81564160000016;129.81564160000016;None;9;0;0.49990230000003066;129.81564160000016;None;131.3160286000002;None;['7'];[0.4234089000001404];131.3160286000002;None;;;;;Emoconpilot032;2021_Oct_27_1337;BackwardMask;2020.2.8;120.1271906699742;
;f;019_m_f_h_a.jpg;happy;9;27;m;027_o_m_s_a.jpg;sad;incongruent;7;mismatch;;120;160;;1;238;block1_Pilot_2;19;h_s;h_s_weak;;;;;0;0;0;0;0;11;11;11;;;;;;;;;134.31674400000065;None;136.30822979999994;136.60024010000052;136.60024010000052;136.6082933000007;136.6082933000007;136.64924430000065;136.64924430000065;None;None;0;;136.64924430000065;None;138.14925920000042;None;None;;138.14925920000042;None;;;;;Emoconpilot032;2021_Oct_27_1337;BackwardMask;2020.2.8;120.1271906699742;
;m;016_y_m_s_a.jpg;sad;7;4;m;004_o_m_s_a.jpg;sad;congruent;7;match;;130;160;;18;142;block1_Pilot_2;16;s_s;s_s_strong;;;;;0;0;0;0;0;12;12;12;;;;;;;;;141.14927630000057;None;142.3406783999999;142.63364309999997;142.63364309999997;142.7834343000004;142.7834343000004;142.82437130000017;142.82437130000017;None;7;1;0.6030555000006643;142.82437130000017;None;144.3244147000005;None;['7'];[0.6231023000000278];144.3244147000005;None;;;;;Emoconpilot032;2021_Oct_27_1337;BackwardMask;2020.2.8;120.1271906699742;
;f;021_o_f_n_a.jpg;neutral;8;21;f;021_o_f_h_a.jpg;happy;incongruent;9;match;;140;150;;3;171;block1_Pilot_2;21;n_h;n_h_weak;;;;;0;0;0;0;0;13;13;13;;;;;;;;;147.3251350999999;None;148.77151270000013;149.06746770000063;149.06746770000063;149.09209370000008;149.09209370000008;149.13273720000052;149.13273720000052;None;8;0;0.7747459000001982;149.13273720000052;None;150.6329635000002;None;['8'];[0.4183967000008124];150.6329635000002;None;;;;;Emoconpilot032;2021_Oct_27_1337;BackwardMask;2020.2.8;120.1271906699742;
;f;012_o_f_h_a.jpg;happy;9;13;m;013_y_m_h_a.jpg;happy;congruent;9;mismatch;;120;150;;3;213;block1_Pilot_2;12;h_h;h_h_weak;;;;;0;0;0;0;0;14;14;14;;;;;;;;;153.63316880000002;None;155.41547320000063;155.70892129999993;155.70892129999993;155.7337688000007;155.7337688000007;155.77466660000027;155.77466660000027;None;9;1;0.5328262000002724;155.77466660000027;None;157.27467290000004;None;['7'];[0.3847081000003527];157.27467290000004;None;;;;;Emoconpilot032;2021_Oct_27_1337;BackwardMask;2020.2.8;120.1271906699742;
;f;021_o_f_s_a.jpg;sad;7;27;m;027_o_m_n_a.jpg;neutral;incongruent;8;mismatch;;130;170;;3;174;block1_Pilot_2;21;s_n;s_n_weak;;;;;0;0;0;0;0;15;15;15;;;;;;;;;160.27548860000024;None;161.73057380000046;162.0256618000003;162.0256618000003;162.0504335000005;162.0504335000005;162.09120919999987;162.09120919999987;None;7;0;1.0242634999995062;162.09120919999987;None;163.5921139000002;None;['8'];[0.659309800000301];163.5921139000002;None;;;;;Emoconpilot032;2021_Oct_27_1337;BackwardMask;2020.2.8;120.1271906699742;
;f;019_m_f_n_a.jpg;neutral;8;19;f;019_m_f_h_a.jpg;happy;incongruent;9;match;;140;150;;3;238;block1_Pilot_2;19;n_h;n_h_weak;;;;;0;0;0;0;0;16;16;16;;;;;;;;;166.5926167000007;None;168.61274520000006;168.90965120000055;168.90965120000055;168.93392740000036;168.93392740000036;168.97471080000014;168.97471080000014;None;8;0;0.7086588000001939;168.97471080000014;None;170.47537980000016;None;['7'];[0.44000039999991714];170.47537980000016;None;;;;;Emoconpilot032;2021_Oct_27_1337;BackwardMask;2020.2.8;120.1271906699742;
;f;028_y_f_n_a.jpg;neutral;8;30;f;030_o_f_s_a.jpg;sad;incongruent;7;match;;140;160;;18;219;block1_Pilot_2;28;n_s;n_s_weak;;;;;0;0;0;0;0;17;17;17;;;;;;;;;173.47520320000058;None;175.32136059999993;175.6181518000003;175.6181518000003;175.7674906000002;175.7674906000002;175.80831750000016;175.80831750000016;None;8;0;0.4830999999994674;175.80831750000016;None;177.30837500000052;None;['7'];[0.3511527999999089];177.30837500000052;None;;;;;Emoconpilot032;2021_Oct_27_1337;BackwardMask;2020.2.8;120.1271906699742;
;m;008_y_m_h_a.jpg;happy;9;8;m;008_y_m_s_a.jpg;sad;incongruent;7;match;;120;160;;3;176;block1_Pilot_2;8;h_s;h_s_weak;;;;;0;0;0;0;0;18;18;18;;;;;;;;;180.30996930000038;None;181.78318209999998;182.0760403000004;182.0760403000004;182.1010094000003;182.1010094000003;182.14173840000058;182.14173840000058;None;9;0;0.5577605999997104;182.14173840000058;None;183.64181069999995;None;['7'];[0.3055767999994714];183.64181069999995;None;;;;;Emoconpilot032;2021_Oct_27_1337;BackwardMask;2020.2.8;120.1271906699742;
;f;019_m_f_h_a.jpg;happy;9;33;m;033_o_m_n_a.jpg;neutral;incongruent;8;mismatch;;120;170;;18;136;block1_Pilot_2;19;h_n;h_n_weak;;;;;0;0;0;0;0;19;19;19;;;;;;;;;186.64184470000055;None;187.78354730000046;188.07631050000055;188.07631050000055;188.2260550000001;188.2260550000001;188.26686840000002;188.26686840000002;None;9;0;0.4404975999996168;188.26686840000002;None;189.7670231000002;None;['7'];[0.42045059999963996];189.7670231000002;None;;;;;Emoconpilot032;2021_Oct_27_1337;BackwardMask;2020.2.8;120.1271906699742;
;m;013_y_m_n_a.jpg;neutral;8;12;f;012_o_f_s_a.jpg;sad;incongruent;7;mismatch;;140;160;;2;132;block1_Pilot_2;13;n_s;n_s_strong;;;;;0;0;0;0;0;20;20;20;;;;;;;;;192.76850410000043;None;193.88859300000058;194.18488310000066;194.18488310000066;194.20111980000001;194.20111980000001;194.2421662000006;194.2421662000006;None;8;0;0.7291015000000698;194.2421662000006;None;195.7423219000002;None;['7'];[0.5249981000006301];195.7423219000002;None;;;;;Emoconpilot032;2021_Oct_27_1337;BackwardMask;2020.2.8;120.1271906699742;
;f;040_y_f_s_a.jpg;sad;7;8;m;008_y_m_h_a.jpg;happy;incongruent;9;mismatch;;130;150;;2;175;block1_Pilot_2;40;s_h;s_h_weak;;;;;0;0;0;0;0;21;21;21;;;;;;;;;198.74293020000005;None;200.20818770000005;200.501491;200.501491;200.51801990000058;200.51801990000058;200.5588545999999;200.5588545999999;None;9;1;0.8844934999997349;200.5588545999999;None;202.05875760000072;None;['8'];[0.4086041999998997];202.05875760000072;None;;;;;Emoconpilot032;2021_Oct_27_1337;BackwardMask;2020.2.8;120.1271906699742;
;m;004_o_m_h_a.jpg;happy;9;40;f;040_y_f_s_a.jpg;sad;incongruent;7;mismatch;;120;160;;2;193;block1_Pilot_2;4;h_s;h_s_weak;;;;;0;0;0;0;0;22;22;22;;;;;;;;;205.05930830000034;None;206.6886669000005;206.9853191000002;206.9853191000002;207.00117630000022;207.00117630000022;207.04226180000023;207.04226180000023;None;9;0;0.6812562999994043;207.04226180000023;None;208.54252859999997;None;['8'];[0.388956099999632];208.54252859999997;None;;;;;Emoconpilot032;2021_Oct_27_1337;BackwardMask;2020.2.8;120.1271906699742;
;f;028_y_f_s_a.jpg;sad;7;13;m;013_y_m_n_a.jpg;neutral;incongruent;8;mismatch;;130;170;;2;126;block1_Pilot_2;28;s_n;s_n_weak;;;;;0;0;0;0;0;23;23;23;;;;;;;;;211.54332090000025;None;212.6035563000005;212.89345110000068;212.89345110000068;212.90971460000037;212.90971460000037;212.95060580000063;212.95060580000063;None;8;1;0.8606865000001562;212.95060580000063;None;214.45083450000038;None;['8'];[0.49645570000029693];214.45083450000038;None;;;;;Emoconpilot032;2021_Oct_27_1337;BackwardMask;2020.2.8;120.1271906699742;
;m;004_o_m_h_a.jpg;happy;9;40;f;040_y_f_n_a.jpg;neutral;incongruent;8;mismatch;;120;170;;3;146;block1_Pilot_2;4;h_n;h_n_strong;;;;;0;0;0;0;0;24;24;24;;;;;;;;;217.45188320000034;None;218.7024104000002;218.99390100000073;218.99390100000073;219.0181848000002;219.0181848000002;219.05913280000004;219.05913280000004;None;9;0;0.6242494999996779;219.05913280000004;None;220.55931599999985;None;['7'];[0.4039271000001463];220.55931599999985;None;;;;;Emoconpilot032;2021_Oct_27_1337;BackwardMask;2020.2.8;120.1271906699742;
;m;008_y_m_s_a.jpg;sad;7;30;f;030_o_f_n_a.jpg;neutral;incongruent;8;mismatch;;130;170;;3;132;block1_Pilot_2;8;s_n;s_n_strong;;;;;0;0;0;0;0;25;25;25;;;;;;;;;223.55966620000072;None;224.6794516;224.96889809999993;224.96889809999993;224.99347190000026;224.99347190000026;225.03434730000026;225.03434730000026;None;7;0;0.7050261999993381;225.03434730000026;None;226.5343794999999;None;['7'];[0.40502099999957863];226.5343794999999;None;;;;;Emoconpilot032;2021_Oct_27_1337;BackwardMask;2020.2.8;120.1271906699742;
;f;040_y_f_n_a.jpg;neutral;8;40;f;040_y_f_s_a.jpg;sad;incongruent;7;match;;140;160;;2;123;block1_Pilot_2;40;n_s;n_s_weak;;;;;0;0;0;0;0;26;26;26;;;;;;;;;229.53455720000056;None;230.5791179000007;230.8690015000002;230.8690015000002;230.88538310000058;230.88538310000058;230.9261176;230.9261176;None;8;0;0.9251611999998204;230.9261176;None;232.42618820000007;None;['8'];[0.42514869999922666];232.42618820000007;None;;;;;Emoconpilot032;2021_Oct_27_1337;BackwardMask;2020.2.8;120.1271906699742;
;f;028_y_f_s_a.jpg;sad;7;27;m;027_o_m_s_a.jpg;sad;congruent;7;mismatch;;130;160;;3;159;block1_Pilot_2;28;s_s;s_s_weak;;;;;0;0;0;0;0;27;27;27;;;;;;;;;235.4264206000007;None;236.76242619999994;237.05217660000017;237.05217660000017;237.07708020000064;237.07708020000064;237.11785270000018;237.11785270000018;None;7;1;0.6936777999999322;237.11785270000018;None;238.61790329999985;None;['7'];[0.4253328999993755];238.61790329999985;None;;;;;Emoconpilot032;2021_Oct_27_1337;BackwardMask;2020.2.8;120.1271906699742;
;f;012_o_f_s_a.jpg;sad;7;27;m;027_o_m_s_a.jpg;sad;congruent;7;mismatch;;130;160;;18;166;block1_Pilot_2;12;s_s;s_s_weak;;;;;0;0;0;0;0;28;28;28;;;;;;;;;241.61824609999985;None;243.00710160000017;243.30234910000036;243.30234910000036;243.4523302000007;243.4523302000007;243.4930972000002;243.4930972000002;None;7;1;0.5103263999999399;243.4930972000002;None;244.9930133000007;None;['7'];[0.3542569999999614];244.9930133000007;None;;;;;Emoconpilot032;2021_Oct_27_1337;BackwardMask;2020.2.8;120.1271906699742;
;f;028_y_f_n_a.jpg;neutral;8;28;f;028_y_f_h_a.jpg;happy;incongruent;9;match;;140;150;;2;186;block1_Pilot_2;28;n_h;n_h_weak;;;;;0;0;0;0;0;29;29;29;;;;;;;;;247.99388720000024;None;249.57835280000018;249.86962230000063;249.86962230000063;249.88566690000061;249.88566690000061;249.92651920000026;249.92651920000026;None;8;0;0.7249446000005264;249.92651920000026;None;251.42664520000017;None;['8'];[0.3847668000007616];251.42664520000017;None;;;;;Emoconpilot032;2021_Oct_27_1337;BackwardMask;2020.2.8;120.1271906699742;
;m;027_o_m_n_a.jpg;neutral;8;16;m;016_y_m_n_a.jpg;neutral;congruent;8;match;;140;170;;2;188;block1_Pilot_2;27;n_n;n_n_weak;;;;;0;0;0;0;0;30;30;30;;;;;;;;;254.42665339999985;None;256.0135;256.3032176000006;256.3032176000006;256.3190794000002;256.3190794000002;256.3598189000004;256.3598189000004;None;None;0;;256.3598189000004;None;257.8598810000003;None;['9'];[0.33538299999963783];257.8598810000003;None;;;;;Emoconpilot032;2021_Oct_27_1337;BackwardMask;2020.2.8;120.1271906699742;
;f;012_o_f_s_a.jpg;sad;7;13;m;013_y_m_n_a.jpg;neutral;incongruent;8;mismatch;;130;170;;3;162;block1_Pilot_2;12;s_n;s_n_strong;;;;;0;0;0;0;0;31;31;31;;;;;;;;;260.8601425000006;None;262.21356110000033;262.5114000000003;262.5114000000003;262.53589420000026;262.53589420000026;262.57668730000023;262.57668730000023;None;7;0;0.7627116000003298;262.57668730000023;None;264.07695539999986;None;['8'];[0.39042309999967983];264.07695539999986;None;;;;;Emoconpilot032;2021_Oct_27_1337;BackwardMask;2020.2.8;120.1271906699742;
;f;012_o_f_s_a.jpg;sad;7;16;m;016_y_m_h_a.jpg;happy;incongruent;9;mismatch;;130;150;;1;238;block1_Pilot_2;12;s_h;s_h_strong;;;;;0;0;0;0;0;32;32;32;;;;;;;;;267.07765240000026;None;269.0631880000001;269.3611453000003;269.3611453000003;269.36934050000036;269.36934050000036;269.4103161000003;269.4103161000003;None;None;0;;269.4103161000003;None;270.9104018000007;None;['9'];[0.6370322000002488];270.9104018000007;None;;;;;Emoconpilot032;2021_Oct_27_1337;BackwardMask;2020.2.8;120.1271906699742;
;f;028_y_f_n_a.jpg;neutral;8;21;f;021_o_f_n_a.jpg;neutral;congruent;8;match;;140;170;;3;220;block1_Pilot_2;28;n_n;n_n_weak;;;;;0;0;0;0;0;33;33;33;;;;;;;;;273.91124709999985;None;275.7657173000007;276.0617611000007;276.0617611000007;276.0862420000003;276.0862420000003;276.12691600000016;276.12691600000016;None;8;1;0.8364138000006278;276.12691600000016;None;277.62780939999993;None;['8'];[0.4396734000001743];277.62780939999993;None;;;;;Emoconpilot032;2021_Oct_27_1337;BackwardMask;2020.2.8;120.1271906699742;
;f;040_y_f_h_a.jpg;happy;9;33;m;033_o_m_s_a.jpg;sad;incongruent;7;mismatch;;120;160;;2;194;block1_Pilot_2;40;h_s;h_s_weak;;;;;0;0;0;0;0;34;34;34;;;;;;;;;280.6277549000006;None;282.2516325000006;282.5448752000002;282.5448752000002;282.5612729000004;282.5612729000004;282.60220819999995;282.60220819999995;None;9;0;0.6013984000001074;282.60220819999995;None;284.1026767000003;None;['8'];[0.38079349999952683];284.1026767000003;None;;;;;Emoconpilot032;2021_Oct_27_1337;BackwardMask;2020.2.8;120.1271906699742;
;f;028_y_f_h_a.jpg;happy;9;8;m;008_y_m_n_a.jpg;neutral;incongruent;8;mismatch;;120;170;;3;162;block1_Pilot_2;28;h_n;h_n_weak;;;;;0;0;0;0;0;35;35;35;;;;;;;;;287.1023227000005;None;288.4637736000004;288.7534755000006;288.7534755000006;288.7779928;288.7779928;288.8188482000005;288.8188482000005;None;9;0;0.6007125999994969;288.8188482000005;None;290.3188974000004;None;['7'];[0.7485999999998967];290.3188974000004;None;;;;;Emoconpilot032;2021_Oct_27_1337;BackwardMask;2020.2.8;120.1271906699742;
;m;013_y_m_n_a.jpg;neutral;8;27;m;027_o_m_n_a.jpg;neutral;congruent;8;match;;140;170;;2;126;block1_Pilot_2;13;n_n;n_n_strong;;;;;0;0;0;0;0;36;36;36;;;;;;;;;293.32004340000003;None;294.40060360000007;294.6953792000004;294.6953792000004;294.71140620000006;294.71140620000006;294.75244120000025;294.75244120000025;None;8;1;0.6589944999996078;294.75244120000025;None;296.2525548000003;None;['7'];[1.0069407999999385];296.2525548000003;None;;;;;Emoconpilot032;2021_Oct_27_1337;BackwardMask;2020.2.8;120.1271906699742;
;f;028_y_f_s_a.jpg;sad;7;19;f;019_m_f_n_a.jpg;neutral;incongruent;8;match;;130;170;;2;156;block1_Pilot_2;28;s_n;s_n_strong;;;;;0;0;0;0;0;37;37;37;;;;;;;;;299.25352920000023;None;300.5637039000003;300.85365270000057;300.85365270000057;300.86991190000026;300.86991190000026;300.91102930000034;300.91102930000034;None;8;1;0.7244716000004701;300.91102930000034;None;302.41124930000024;None;['8'];[0.5840754999999263];302.41124930000024;None;;;;;Emoconpilot032;2021_Oct_27_1337;BackwardMask;2020.2.8;120.1271906699742;
;m;016_y_m_s_a.jpg;sad;7;19;f;019_m_f_n_a.jpg;neutral;incongruent;8;mismatch;;130;170;;3;138;block1_Pilot_2;16;s_n;s_n_weak;;;;;0;0;0;0;0;38;38;38;;;;;;;;;305.41186330000073;None;306.56933579999986;306.8619279000004;306.8619279000004;306.8868164000005;306.8868164000005;306.9277224000007;306.9277224000007;None;7;0;0.7477717000001576;306.9277224000007;None;308.42783150000014;None;['8'];[0.41560930000014196];308.42783150000014;None;;;;;Emoconpilot032;2021_Oct_27_1337;BackwardMask;2020.2.8;120.1271906699742;
;m;033_o_m_s_a.jpg;sad;7;27;m;027_o_m_n_a.jpg;neutral;incongruent;8;match;;130;170;;3;120;block1_Pilot_2;33;s_n;s_n_strong;;;;;0;0;0;0;0;39;39;39;;;;;;;;;311.4287380000005;None;312.43561820000014;312.72877550000067;312.72877550000067;312.7536779000002;312.7536779000002;312.7942754000005;312.7942754000005;None;8;1;0.7209862999998222;312.7942754000005;None;314.2945987000003;None;['8'];[0.38085829999999987];314.2945987000003;None;;;;;Emoconpilot032;2021_Oct_27_1337;BackwardMask;2020.2.8;120.1271906699742;
;f;040_y_f_s_a.jpg;sad;7;33;m;033_o_m_n_a.jpg;neutral;incongruent;8;mismatch;;130;170;;1;238;block1_Pilot_2;40;s_n;s_n_weak;;;;;0;0;0;0;0;40;40;40;;;;;;;;;317.2953124000005;None;319.2851917000007;319.57892130000073;319.57892130000073;319.5869075999999;319.5869075999999;319.62796890000027;319.62796890000027;None;None;0;;319.62796890000027;None;321.1280452000001;None;['9'];[0.49938680000013846];321.1280452000001;None;;;;;Emoconpilot032;2021_Oct_27_1337;BackwardMask;2020.2.8;120.1271906699742;
;f;021_o_f_n_a.jpg;neutral;8;19;f;019_m_f_s_a.jpg;sad;incongruent;7;match;;140;160;;1;238;block1_Pilot_2;21;n_s;n_s_strong;;;;;0;0;0;0;0;41;41;41;;;;;;;;;324.1281847;None;326.13354489999983;326.4296866000004;326.4296866000004;326.43715840000004;326.43715840000004;326.47806050000054;326.47806050000054;None;None;0;;326.47806050000054;None;327.9780791000003;None;['9'];[0.8893126000002667];327.9780791000003;None;;;;;Emoconpilot032;2021_Oct_27_1337;BackwardMask;2020.2.8;120.1271906699742;
;m;033_o_m_h_a.jpg;happy;9;27;m;027_o_m_h_a.jpg;happy;congruent;9;match;;120;150;;3;134;block1_Pilot_2;33;h_h;h_h_weak;;;;;0;0;0;0;0;42;42;42;;;;;;;;;330.97838649999994;None;332.1037758000002;332.3959437000003;332.3959437000003;332.42074610000054;332.42074610000054;332.4616181000001;332.4616181000001;None;9;1;0.9657804999997097;332.4616181000001;None;333.9617452000002;None;['7'];[0.6817485000001398];333.9617452000002;None;;;;;Emoconpilot032;2021_Oct_27_1337;BackwardMask;2020.2.8;120.1271906699742;
;f;040_y_f_s_a.jpg;sad;7;4;m;004_o_m_h_a.jpg;happy;incongruent;9;mismatch;;130;150;;2;225;block1_Pilot_2;40;s_h;s_h_strong;;;;;0;0;0;0;0;43;43;43;;;;;;;;;336.9623572999999;None;338.84407960000044;339.13776920000055;339.13776920000055;339.15415399999983;339.15415399999983;339.19509710000057;339.19509710000057;None;8;0;0.8163755999994464;339.19509710000057;None;340.6949091000006;None;['8'];[0.3726188999999067];340.6949091000006;None;;;;;Emoconpilot032;2021_Oct_27_1337;BackwardMask;2020.2.8;120.1271906699742;
;m;027_o_m_s_a.jpg;sad;7;21;f;021_o_f_n_a.jpg;neutral;incongruent;8;mismatch;;130;170;;18;238;block1_Pilot_2;27;s_n;s_n_weak;;;;;0;0;0;0;0;44;44;44;;;;;;;;;343.69580829999995;None;345.6863847000004;345.9795707000003;345.9795707000003;346.1292579000001;346.1292579000001;346.1702485000005;346.1702485000005;None;8;1;0.9369964999996228;346.1702485000005;None;347.6701640000001;None;['7'];[0.6292981999995391];347.6701640000001;None;;;;;Emoconpilot032;2021_Oct_27_1337;BackwardMask;2020.2.8;120.1271906699742;
;m;016_y_m_h_a.jpg;happy;9;16;m;016_y_m_n_a.jpg;neutral;incongruent;8;match;;120;170;;3;202;block1_Pilot_2;16;h_n;h_n_weak;;;;;0;0;0;0;0;45;45;45;;;;;;;;;350.6708511000006;None;352.36159190000035;352.65449720000015;352.65449720000015;352.6794761000001;352.6794761000001;352.72024020000026;352.72024020000026;None;9;0;0.5471532000001389;352.72024020000026;None;354.22018410000055;None;['7'];[0.41527359999963664];354.22018410000055;None;;;;;Emoconpilot032;2021_Oct_27_1337;BackwardMask;2020.2.8;120.1271906699742;
;m;033_o_m_h_a.jpg;happy;9;13;m;013_y_m_n_a.jpg;neutral;incongruent;8;match;;120;170;;2;150;block1_Pilot_2;33;h_n;h_n_weak;;;;;0;0;0;0;0;46;46;46;;;;;;;;;357.2206339000004;None;358.4786474000002;358.7715113000004;358.7715113000004;358.78793900000073;358.78793900000073;358.82891540000037;358.82891540000037;None;8;1;0.8464615000002595;358.82891540000037;None;360.3287171000002;None;['8'];[0.6505182999999306];360.3287171000002;None;;;;;Emoconpilot032;2021_Oct_27_1337;BackwardMask;2020.2.8;120.1271906699742;
;f;012_o_f_n_a.jpg;neutral;8;16;m;016_y_m_n_a.jpg;neutral;congruent;8;mismatch;;140;170;;1;238;block1_Pilot_2;12;n_n;n_n_strong;;;;;0;0;0;0;0;47;47;47;;;;;;;;;363.32949030000054;None;365.34436730000016;365.6386362000003;365.6386362000003;365.6464532;365.6464532;365.6870549000005;365.6870549000005;None;None;0;;365.6870549000005;None;367.1872305000006;None;['9'];[0.45599010000023554];367.1872305000006;None;;;;;Emoconpilot032;2021_Oct_27_1337;BackwardMask;2020.2.8;120.1271906699742;
;f;040_y_f_n_a.jpg;neutral;8;30;f;030_o_f_h_a.jpg;happy;incongruent;9;match;;140;150;;2;194;block1_Pilot_2;40;n_h;n_h_strong;;;;;0;0;0;0;0;48;48;48;;;;;;;;;370.18842720000066;None;371.8236672000003;372.1136335000001;372.1136335000001;372.1298526999999;372.1298526999999;372.1707143000003;372.1707143000003;None;8;0;0.7127620999999635;372.1707143000003;None;373.67078459999993;None;['7'];[0.9486648000001878];373.67078459999993;None;;;;;Emoconpilot032;2021_Oct_27_1337;BackwardMask;2020.2.8;120.1271906699742;
;m;013_y_m_n_a.jpg;neutral;8;12;f;012_o_f_s_a.jpg;sad;incongruent;7;mismatch;;140;160;;18;238;block1_Pilot_2;13;n_s;n_s_weak;;;;;0;0;0;0;0;49;49;49;;;;;;;;;376.67172029999983;None;378.6734348;378.96359530000063;378.96359530000063;379.1133055;379.1133055;379.1541814000002;379.1541814000002;None;8;0;0.46524349999981496;379.1541814000002;None;380.65414899999996;None;['7'];[0.4052086000001509];380.65414899999996;None;;;;;Emoconpilot032;2021_Oct_27_1337;BackwardMask;2020.2.8;120.1271906699742;
;f;012_o_f_h_a.jpg;happy;9;12;f;012_o_f_n_a.jpg;neutral;incongruent;8;match;;120;170;;2;125;block1_Pilot_2;12;h_n;h_n_strong;;;;;0;0;0;0;0;50;50;50;;;;;;;;;383.65461830000004;None;384.70513910000045;384.9969650000003;384.9969650000003;385.01353650000055;385.01353650000055;385.05438219999996;385.05438219999996;None;9;0;0.5970654000002469;385.05438219999996;None;386.55493750000005;None;['7'];[0.4085805000004257];386.55493750000005;None;;;;;Emoconpilot032;2021_Oct_27_1337;BackwardMask;2020.2.8;120.1271906699742;
;m;008_y_m_s_a.jpg;sad;7;19;f;019_m_f_s_a.jpg;sad;congruent;7;mismatch;;130;160;;2;202;block1_Pilot_2;8;s_s;s_s_strong;;;;;0;0;0;0;0;51;51;51;;;;;;;;;389.55552870000065;None;391.2649650000003;391.5557684000005;391.5557684000005;391.57201280000027;391.57201280000027;391.6127000000006;391.6127000000006;None;7;1;0.8067076999996061;391.6127000000006;None;393.1127443000005;None;['7'];[0.42674040000019886];393.1127443000005;None;;;;;Emoconpilot032;2021_Oct_27_1337;BackwardMask;2020.2.8;120.1271906699742;
;f;028_y_f_n_a.jpg;neutral;8;12;f;012_o_f_n_a.jpg;neutral;congruent;8;match;;140;170;;2;214;block1_Pilot_2;28;n_n;n_n_strong;;;;;0;0;0;0;0;52;52;52;;;;;;;;;396.11374590000014;None;397.9157537000001;398.20582150000064;398.20582150000064;398.2220677000005;398.2220677000005;398.26282340000034;398.26282340000034;None;8;1;0.7805574000003617;398.26282340000034;None;399.7631928999999;None;['9'];[0.4723554000001968];399.7631928999999;None;;;;;Emoconpilot032;2021_Oct_27_1337;BackwardMask;2020.2.8;120.1271906699742;
;m;027_o_m_h_a.jpg;happy;9;19;f;019_m_f_h_a.jpg;happy;congruent;9;mismatch;;120;150;;3;165;block1_Pilot_2;27;h_h;h_h_strong;;;;;0;0;0;0;0;53;53;53;;;;;;;;;402.76377440000033;None;404.15727140000035;404.4478600000002;404.4478600000002;404.4722351999999;404.4722351999999;404.5130943000004;404.5130943000004;None;8;0;0.9461798000002091;404.5130943000004;None;406.0131721000007;None;['8'];[0.55829040000026];406.0131721000007;None;;;;;Emoconpilot032;2021_Oct_27_1337;BackwardMask;2020.2.8;120.1271906699742;
;m;008_y_m_s_a.jpg;sad;7;13;m;013_y_m_h_a.jpg;happy;incongruent;9;match;;130;150;;18;200;block1_Pilot_2;8;s_h;s_h_strong;;;;;0;0;0;0;0;54;54;54;;;;;;;;;409.01322489999984;None;410.69916139999987;410.9895800000004;410.9895800000004;411.13896139999997;411.13896139999997;411.1797436000006;411.1797436000006;None;7;0;0.6397169000001668;411.1797436000006;None;412.68001129999993;None;['7'];[0.4432894000001397];412.68001129999993;None;;;;;Emoconpilot032;2021_Oct_27_1337;BackwardMask;2020.2.8;120.1271906699742;
;f;030_o_f_n_a.jpg;neutral;8;28;f;028_y_f_s_a.jpg;sad;incongruent;7;match;;140;160;;18;238;block1_Pilot_2;30;n_s;n_s_weak;;;;;0;0;0;0;0;55;55;55;;;;;;;;;415.68080850000024;None;417.6838135000007;417.9730798999999;417.9730798999999;418.1225462000002;418.1225462000002;418.16327360000014;418.16327360000014;None;8;0;0.6562266000000818;418.16327360000014;None;419.6636367000001;None;['7'];[0.35583500000029744];419.6636367000001;None;;;;;Emoconpilot032;2021_Oct_27_1337;BackwardMask;2020.2.8;120.1271906699742;
;f;019_m_f_h_a.jpg;happy;9;27;m;027_o_m_h_a.jpg;happy;congruent;9;mismatch;;120;150;;1;238;block1_Pilot_2;19;h_h;h_h_strong;;;;;0;0;0;0;0;56;56;56;;;;;;;;;422.6642715000007;None;424.6548720999999;424.9476942000001;424.9476942000001;424.95594119999987;424.95594119999987;424.9968023000001;424.9968023000001;None;None;0;;424.9968023000001;None;426.4968583;None;['9'];[0.37870099999963713];426.4968583;None;;;;;Emoconpilot032;2021_Oct_27_1337;BackwardMask;2020.2.8;120.1271906699742;
;m;004_o_m_s_a.jpg;sad;7;4;m;004_o_m_h_a.jpg;happy;incongruent;9;match;;130;150;;18;155;block1_Pilot_2;4;s_h;s_h_weak;;;;;0;0;0;0;0;57;57;57;;;;;;;;;429.4976010999999;None;430.79696420000073;431.0895360000004;431.0895360000004;431.23936910000066;431.23936910000066;431.28025510000043;431.28025510000043;None;7;0;0.7952289000004384;431.28025510000043;None;432.7802341000006;None;['7'];[0.39924299999984214];432.7802341000006;None;;;;;Emoconpilot032;2021_Oct_27_1337;BackwardMask;2020.2.8;120.1271906699742;
;f;021_o_f_s_a.jpg;sad;7;27;m;027_o_m_n_a.jpg;neutral;incongruent;8;mismatch;;130;170;;3;224;block1_Pilot_2;21;s_n;s_n_weak;;;;;0;0;0;0;0;58;58;58;;;;;;;;;435.78062839999984;None;437.65318000000025;437.94809070000065;437.94809070000065;437.97282929999983;437.97282929999983;438.0137270000005;438.0137270000005;None;7;0;0.9416337000002386;438.0137270000005;None;439.5138594;None;['7'];[0.3856316000001243];439.5138594;None;;;;;Emoconpilot032;2021_Oct_27_1337;BackwardMask;2020.2.8;120.1271906699742;
;f;021_o_f_h_a.jpg;happy;9;27;m;027_o_m_n_a.jpg;neutral;incongruent;8;mismatch;;120;170;;2;147;block1_Pilot_2;21;h_n;h_n_strong;;;;;0;0;0;0;0;59;59;59;;;;;;;;;442.51483989999997;None;443.7821201000006;444.0737009000004;444.0737009000004;444.08959910000067;444.08959910000067;444.13045820000025;444.13045820000025;None;9;0;0.6810689000003549;444.13045820000025;None;445.6304871000002;None;['8'];[0.32499490000009246];445.6304871000002;None;;;;;Emoconpilot032;2021_Oct_27_1337;BackwardMask;2020.2.8;120.1271906699742;
;f;040_y_f_n_a.jpg;neutral;8;13;m;013_y_m_h_a.jpg;happy;incongruent;9;mismatch;;140;150;;3;237;block1_Pilot_2;40;n_h;n_h_strong;;;;;0;0;0;0;0;60;60;60;;;;;;;;;448.6315545000007;None;450.6262370000004;450.9155117;450.9155117;450.93970660000014;450.93970660000014;450.9805713000005;450.9805713000005;None;8;0;0.5828123999999661;450.9805713000005;None;452.4810442000007;None;['7'];[0.4824315000005299];452.4810442000007;None;;;;;Emoconpilot032;2021_Oct_27_1337;BackwardMask;2020.2.8;120.1271906699742;
;m;027_o_m_n_a.jpg;neutral;8;19;f;019_m_f_h_a.jpg;happy;incongruent;9;mismatch;;140;150;;3;199;block1_Pilot_2;27;n_h;n_h_strong;;;;;0;0;0;0;0;61;61;61;;;;;;;;;455.48165490000065;None;457.1591603000006;457.4487618000003;457.4487618000003;457.4734081000006;457.4734081000006;457.5140707999999;457.5140707999999;None;8;0;0.6251925999995365;457.5140707999999;None;459.01417180000044;None;['8'];[0.3733476999996128];459.01417180000044;None;;;;;Emoconpilot032;2021_Oct_27_1337;BackwardMask;2020.2.8;120.1271906699742;
;m;027_o_m_h_a.jpg;happy;9;21;f;021_o_f_s_a.jpg;sad;incongruent;7;mismatch;;120;160;;2;169;block1_Pilot_2;27;h_s;h_s_strong;;;;;0;0;0;0;0;62;62;62;;;;;;;;;462.0144307999999;None;463.4417583000004;463.7322930999999;463.7322930999999;463.74828270000035;463.74828270000035;463.7892308999999;463.7892308999999;None;None;0;;463.7892308999999;None;465.2892791000004;None;['9'];[0.3459886999999071];465.2892791000004;None;;;;;Emoconpilot032;2021_Oct_27_1337;BackwardMask;2020.2.8;120.1271906699742;
;m;013_y_m_n_a.jpg;neutral;8;33;m;033_o_m_h_a.jpg;happy;incongruent;9;match;;140;150;;18;238;block1_Pilot_2;13;n_h;n_h_strong;;;;;0;0;0;0;0;63;63;63;;;;;;;;;468.2894296000004;None;470.29193100000066;470.58236880000004;470.58236880000004;470.73182350000025;470.73182350000025;470.77285089999987;470.77285089999987;None;8;0;0.43064789999971254;470.77285089999987;None;472.2728754;None;['7'];[0.45851849999962724];472.2728754;None;;;;;Emoconpilot032;2021_Oct_27_1337;BackwardMask;2020.2.8;120.1271906699742;
;m;033_o_m_n_a.jpg;neutral;8;30;f;030_o_f_s_a.jpg;sad;incongruent;7;mismatch;;140;160;;1;238;block1_Pilot_2;33;n_s;n_s_weak;;;;;0;0;0;0;0;64;64;64;;;;;;;;;475.27376920000006;None;477.2753722000007;477.5659007000004;477.5659007000004;477.5736944;477.5736944;477.6144524000001;477.6144524000001;None;None;0;;477.6144524000001;None;479.11454649999996;None;['9'];[0.320739699999649];479.11454649999996;None;;;;;Emoconpilot032;2021_Oct_27_1337;BackwardMask;2020.2.8;120.1271906699742;
;m;033_o_m_s_a.jpg;sad;7;4;m;004_o_m_s_a.jpg;sad;congruent;7;match;;130;160;;18;146;block1_Pilot_2;33;s_s;s_s_weak;;;;;0;0;0;0;0;65;65;65;;;;;;;;;482.11539510000057;None;483.3397302000003;483.6324093000003;483.6324093000003;483.7821154000003;483.7821154000003;483.8230366000007;483.8230366000007;None;8;0;0.5164596999993591;483.8230366000007;None;485.32313780000004;None;['7'];[0.5683192999995299];485.32313780000004;None;;;;;Emoconpilot032;2021_Oct_27_1337;BackwardMask;2020.2.8;120.1271906699742;
;m;016_y_m_s_a.jpg;sad;7;28;f;028_y_f_h_a.jpg;happy;incongruent;9;mismatch;;130;150;;18;238;block1_Pilot_2;16;s_h;s_h_strong;;;;;0;0;0;0;0;66;66;66;;;;;;;;;488.32413129999986;None;490.3132701000004;490.60736890000044;490.60736890000044;490.7571678000004;490.7571678000004;490.7981921999999;490.7981921999999;None;7;0;0.7733045000004495;490.7981921999999;None;492.2982480999999;None;['7'];[0.393229500000416];492.2982480999999;None;;;;;Emoconpilot032;2021_Oct_27_1337;BackwardMask;2020.2.8;120.1271906699742;
;f;030_o_f_h_a.jpg;happy;9;28;f;028_y_f_h_a.jpg;happy;congruent;9;match;;120;150;;3;234;block1_Pilot_2;30;h_h;h_h_weak;;;;;0;0;0;0;0;67;67;67;;;;;;;;;495.29846460000044;None;497.2702798999999;497.5663951000006;497.5663951000006;497.59085440000035;497.59085440000035;497.6316090999999;497.6316090999999;None;9;1;0.5716777999996339;497.6316090999999;None;499.13151130000006;None;['7'];[0.3760214999992968];499.13151130000006;None;;;;;Emoconpilot032;2021_Oct_27_1337;BackwardMask;2020.2.8;120.1271906699742;
;m;013_y_m_h_a.jpg;happy;9;4;m;004_o_m_h_a.jpg;happy;congruent;9;match;;120;150;;2;141;block1_Pilot_2;13;h_h;h_h_strong;;;;;0;0;0;0;0;68;68;68;;;;;;;;;502.1318168000007;None;503.32654379999985;503.61655789999986;503.61655789999986;503.6324818000003;503.6324818000003;503.67351060000055;503.67351060000055;None;9;1;1.073967299999822;503.67351060000055;None;505.17305660000056;None;['8'];[0.4064527000000453];505.17305660000056;None;;;;;Emoconpilot032;2021_Oct_27_1337;BackwardMask;2020.2.8;120.1271906699742;
;f;028_y_f_s_a.jpg;sad;7;8;m;008_y_m_s_a.jpg;sad;congruent;7;mismatch;;130;160;;1;238;block1_Pilot_2;28;s_s;s_s_strong;;;;;0;0;0;0;0;69;69;69;;;;;;;;;508.17433620000065;None;510.17236260000027;510.4663922;510.4663922;510.47440780000034;510.47440780000034;510.5151673999999;510.5151673999999;None;None;0;;510.5151673999999;None;512.0153261000005;None;['9'];[0.660028099999181];512.0153261000005;None;;;;;Emoconpilot032;2021_Oct_27_1337;BackwardMask;2020.2.8;120.1271906699742;
;f;028_y_f_s_a.jpg;sad;7;30;f;030_o_f_h_a.jpg;happy;incongruent;9;match;;130;150;;2;199;block1_Pilot_2;28;s_h;s_h_weak;;;;;0;0;0;0;0;70;70;70;;;;;;;;;515.0160667;None;516.6835039000007;516.9746805000004;516.9746805000004;516.9912725000004;516.9912725000004;517.0318732000005;517.0318732000005;None;None;0;;517.0318732000005;None;518.5320047000005;None;['9'];[0.4075282000003426];518.5320047000005;None;;;;;Emoconpilot032;2021_Oct_27_1337;BackwardMask;2020.2.8;120.1271906699742;
;m;008_y_m_h_a.jpg;happy;9;21;f;021_o_f_n_a.jpg;neutral;incongruent;8;mismatch;;120;170;;2;137;block1_Pilot_2;8;h_n;h_n_weak;;;;;0;0;0;0;0;71;71;71;;;;;;;;;521.5328137000006;None;522.6819753;522.9747388000005;522.9747388000005;522.9913133;522.9913133;523.0319790000003;523.0319790000003;None;9;0;0.8994722999996156;523.0319790000003;None;524.5328734000004;None;['8'];[0.8625418999999965];524.5328734000004;None;;;;;Emoconpilot032;2021_Oct_27_1337;BackwardMask;2020.2.8;120.1271906699742;
;f;012_o_f_n_a.jpg;neutral;8;8;m;008_y_m_s_a.jpg;sad;incongruent;7;mismatch;;140;160;;2;208;block1_Pilot_2;12;n_s;n_s_weak;;;;;0;0;0;0;0;72;72;72;;;;;;;;;527.5323093000006;None;529.3045687000003;529.6006015000003;529.6006015000003;529.6163631;529.6163631;529.6572821;529.6572821;None;8;0;0.802186700000675;529.6572821;None;531.1572247000004;None;['8'];[0.5663280999997369];531.1572247000004;None;;;;;Emoconpilot032;2021_Oct_27_1337;BackwardMask;2020.2.8;120.1271906699742;
;m;016_y_m_n_a.jpg;neutral;8;8;m;008_y_m_n_a.jpg;neutral;congruent;8;match;;140;170;;3;211;block1_Pilot_2;16;n_n;n_n_strong;;;;;0;0;0;0;0;73;73;73;;;;;;;;;534.1582567000005;None;535.9356128;536.2254378000007;536.2254378000007;536.2500212000004;536.2500212000004;536.2908071000002;536.2908071000002;None;8;1;0.5926250000002256;536.2908071000002;None;537.7908139000001;None;['8'];[0.5325810000003912];537.7908139000001;None;;;;;Emoconpilot032;2021_Oct_27_1337;BackwardMask;2020.2.8;120.1271906699742;
;m;016_y_m_h_a.jpg;happy;9;13;m;013_y_m_s_a.jpg;sad;incongruent;7;match;;120;160;;3;138;block1_Pilot_2;16;h_s;h_s_weak;;;;;0;0;0;0;0;74;74;74;;;;;;;;;540.7914739000007;None;541.9497863000006;542.2419838000005;542.2419838000005;542.2666458000003;542.2666458000003;542.3074725000006;542.3074725000006;None;9;0;0.5919874000001073;542.3074725000006;None;543.8074696000003;None;['7'];[0.3959666000000652];543.8074696000003;None;;;;;Emoconpilot032;2021_Oct_27_1337;BackwardMask;2020.2.8;120.1271906699742;
;m;016_y_m_n_a.jpg;neutral;8;19;f;019_m_f_s_a.jpg;sad;incongruent;7;mismatch;;140;160;;2;185;block1_Pilot_2;16;n_s;n_s_strong;;;;;0;0;0;0;0;75;75;75;;;;;;;;;546.8076647000007;None;548.3872525000006;548.6838053000001;548.6838053000001;548.7002998000007;548.7002998000007;548.7411172000002;548.7411172000002;None;8;0;0.6302715000001626;548.7411172000002;None;550.2411479000002;None;['8'];[0.5702430000001186];550.2411479000002;None;;;;;Emoconpilot032;2021_Oct_27_1337;BackwardMask;2020.2.8;120.1271906699742;
;m;027_o_m_s_a.jpg;sad;7;8;m;008_y_m_s_a.jpg;sad;congruent;7;match;;130;160;;1;238;block1_Pilot_2;27;s_s;s_s_strong;;;;;0;0;0;0;0;76;76;76;;;;;;;;;553.2422213999998;None;555.2333142000007;555.5253310000007;555.5253310000007;555.5335798000006;555.5335798000006;555.5744101;555.5744101;None;None;0;;555.5744101;None;557.0746422000002;None;['9'];[0.38478759999998147];557.0746422000002;None;;;;;Emoconpilot032;2021_Oct_27_1337;BackwardMask;2020.2.8;120.1271906699742;
;f;019_m_f_n_a.jpg;neutral;8;27;m;027_o_m_n_a.jpg;neutral;congruent;8;mismatch;;140;170;;3;186;block1_Pilot_2;19;n_n;n_n_strong;;;;;0;0;0;0;0;77;77;77;;;;;;;;;560.0746669;None;561.6563159000007;561.9510565;561.9510565;561.9754247000001;561.9754247000001;562.016192;562.016192;None;8;1;0.6192348000004131;562.016192;None;563.5163312000004;None;['7'];[1.0232058999999936];563.5163312000004;None;;;;;Emoconpilot032;2021_Oct_27_1337;BackwardMask;2020.2.8;120.1271906699742;
;m;004_o_m_s_a.jpg;sad;7;12;f;012_o_f_s_a.jpg;sad;congruent;7;mismatch;;130;160;;1;238;block1_Pilot_2;4;s_s;s_s_strong;;;;;0;0;0;0;0;78;78;78;;;;;;;;;566.5170607;None;568.5081212000005;568.8006765;568.8006765;568.8086491000004;568.8086491000004;568.8498380000001;568.8498380000001;None;None;0;;568.8498380000001;None;570.3498598000006;None;['9'];[0.4056204999997135];570.3498598000006;None;;;;;Emoconpilot032;2021_Oct_27_1337;BackwardMask;2020.2.8;120.1271906699742;
;f;019_m_f_n_a.jpg;neutral;8;13;m;013_y_m_s_a.jpg;sad;incongruent;7;mismatch;;140;160;;3;207;block1_Pilot_2;19;n_s;n_s_strong;;;;;0;0;0;0;0;79;79;79;;;;;;;;;573.3499944000005;None;575.0962005000001;575.3929241000005;575.3929241000005;575.4174105000002;575.4174105000002;575.4581556000003;575.4581556000003;None;8;0;0.6893479999998817;575.4581556000003;None;576.9582559;None;['9'];[1.2450267000003805];576.9582559;None;;;;;Emoconpilot032;2021_Oct_27_1337;BackwardMask;2020.2.8;120.1271906699742;
;m;027_o_m_h_a.jpg;happy;9;33;m;033_o_m_h_a.jpg;happy;congruent;9;match;;120;150;;1;238;block1_Pilot_2;27;h_h;h_h_strong;;;;;0;0;0;0;0;80;80;80;;;;;;;;;579.9583161999999;None;581.9609127000003;582.2514699000003;582.2514699000003;582.2591656000004;582.2591656000004;582.2999967000005;582.2999967000005;None;None;0;;582.2999967000005;None;583.8000013999999;None;['9'];[0.4354912000007971];583.8000013999999;None;;;;;Emoconpilot032;2021_Oct_27_1337;BackwardMask;2020.2.8;120.1271906699742;
;m;027_o_m_h_a.jpg;happy;9;21;f;021_o_f_s_a.jpg;sad;incongruent;7;mismatch;;120;160;;1;238;block1_Pilot_2;27;h_s;h_s_weak;;;;;0;0;0;0;0;81;81;81;;;;;;;;;586.8001359;None;588.8026547;589.0936957000004;589.0936957000004;589.1010371000002;589.1010371000002;589.1418930999998;589.1418930999998;None;None;0;;589.1418930999998;None;590.6418862;None;['9'];[0.4097124999998414];590.6418862;None;;;;;Emoconpilot032;2021_Oct_27_1337;BackwardMask;2020.2.8;120.1271906699742;
;m;033_o_m_s_a.jpg;sad;7;40;f;040_y_f_n_a.jpg;neutral;incongruent;8;mismatch;;130;170;;3;146;block1_Pilot_2;33;s_n;s_n_weak;;;;;0;0;0;0;0;82;82;82;;;;;;;;;593.6426879;None;594.8667265000004;595.1596956000003;595.1596956000003;595.1844154999999;595.1844154999999;595.2254241;595.2254241;None;8;1;0.6341206000006423;595.2254241;None;596.7253631000003;None;['8'];[0.4701635000001261];596.7253631000003;None;;;;;Emoconpilot032;2021_Oct_27_1337;BackwardMask;2020.2.8;120.1271906699742;
;m;008_y_m_h_a.jpg;happy;9;4;m;004_o_m_s_a.jpg;sad;incongruent;7;match;;120;160;;2;225;block1_Pilot_2;8;h_s;h_s_weak;;;;;0;0;0;0;0;83;83;83;;;;;;;;;599.7264363000004;None;601.6076389999998;601.9013666000001;601.9013666000001;601.9179279999998;601.9179279999998;601.9587429000003;601.9587429000003;None;9;0;0.6606076999996731;601.9587429000003;None;603.4589013000004;None;['8'];[0.36858010000014474];603.4589013000004;None;;;;;Emoconpilot032;2021_Oct_27_1337;BackwardMask;2020.2.8;120.1271906699742;
;f;012_o_f_n_a.jpg;neutral;8;4;m;004_o_m_s_a.jpg;sad;incongruent;7;mismatch;;140;160;;3;150;block1_Pilot_2;12;n_s;n_s_strong;;;;;0;0;0;0;0;84;84;84;;;;;;;;;606.4588526000007;None;607.7448322;608.0353040999998;608.0353040999998;608.0597226999998;608.0597226999998;608.1003977999999;608.1003977999999;None;8;0;0.815054699999564;608.1003977999999;None;609.6011858000002;None;['8'];[0.2502452999997331];609.6011858000002;None;;;;;Emoconpilot032;2021_Oct_27_1337;BackwardMask;2020.2.8;120.1271906699742;
;f;021_o_f_s_a.jpg;sad;7;40;f;040_y_f_n_a.jpg;neutral;incongruent;8;match;;130;170;;2;156;block1_Pilot_2;21;s_n;s_n_strong;;;;;0;0;0;0;0;85;85;85;;;;;;;;;612.6006484;None;613.906892;614.2016337000005;614.2016337000005;614.2179980999999;614.2179980999999;614.2591851000006;614.2591851000006;None;7;0;1.160290800000439;614.2591851000006;None;615.7590490000002;None;['8'];[0.5087238999994952];615.7590490000002;None;;;;;Emoconpilot032;2021_Oct_27_1337;BackwardMask;2020.2.8;120.1271906699742;
;m;004_o_m_n_a.jpg;neutral;8;13;m;013_y_m_n_a.jpg;neutral;congruent;8;match;;140;170;;2;225;block1_Pilot_2;4;n_n;n_n_strong;;;;;0;0;0;0;0;86;86;86;;;;;;;;;618.7590885;None;620.6592821000004;620.9521726000003;620.9521726000003;620.9682868999998;620.9682868999998;621.0091659;621.0091659;None;8;1;0.8342646000000968;621.0091659;None;622.5094202;None;['9'];[1.0941791000004741];622.5094202;None;;;;;Emoconpilot032;2021_Oct_27_1337;BackwardMask;2020.2.8;120.1271906699742;
;m;016_y_m_n_a.jpg;neutral;8;16;m;016_y_m_h_a.jpg;happy;incongruent;9;match;;140;150;;18;193;block1_Pilot_2;16;n_h;n_h_strong;;;;;0;0;0;0;0;87;87;87;;;;;;;;;625.5094723000002;None;627.1377018000003;627.4274028;627.4274028;627.5767973000002;627.5767973000002;627.6175713000002;627.6175713000002;None;8;0;0.457905700000083;627.6175713000002;None;629.1175558000004;None;['7'];[0.3659683000005316];629.1175558000004;None;;;;;Emoconpilot032;2021_Oct_27_1337;BackwardMask;2020.2.8;120.1271906699742;
;m;033_o_m_h_a.jpg;happy;9;4;m;004_o_m_h_a.jpg;happy;congruent;9;match;;120;150;;2;195;block1_Pilot_2;33;h_h;h_h_strong;;;;;0;0;0;0;0;88;88;88;;;;;;;;;632.1186318999999;None;633.7504896;634.0438076999999;634.0438076999999;634.0602219000002;634.0602219000002;634.1010403999999;634.1010403999999;None;9;1;0.6865203999996083;634.1010403999999;None;635.6011705999999;None;['8'];[0.38629190000028757];635.6011705999999;None;;;;;Emoconpilot032;2021_Oct_27_1337;BackwardMask;2020.2.8;120.1271906699742;
;m;027_o_m_h_a.jpg;happy;9;16;m;016_y_m_h_a.jpg;happy;congruent;9;match;;120;150;;3;209;block1_Pilot_2;27;h_h;h_h_weak;;;;;0;0;0;0;0;89;89;89;;;;;;;;;638.6035437999999;None;640.3975681000002;640.6942487000006;640.6942487000006;640.7187334999999;640.7187334999999;640.7595416000004;640.7595416000004;None;9;1;1.0599814000006518;640.7595416000004;None;642.2595372000005;None;['8'];[0.47173670000029233];642.2595372000005;None;;;;;Emoconpilot032;2021_Oct_27_1337;BackwardMask;2020.2.8;120.1271906699742;
;m;033_o_m_s_a.jpg;sad;7;16;m;016_y_m_s_a.jpg;sad;congruent;7;match;;130;160;;3;128;block1_Pilot_2;33;s_s;s_s_strong;;;;;0;0;0;0;0;90;90;90;;;;;;;;;645.2596897000003;None;646.3345690000006;646.6274324000005;646.6274324000005;646.6520594000003;646.6520594000003;646.6931666;646.6931666;None;8;0;0.5822912000003271;646.6931666;None;648.1930244000005;None;['8'];[0.5462824999995064];648.1930244000005;None;;;;;Emoconpilot032;2021_Oct_27_1337;BackwardMask;2020.2.8;120.1271906699742;
;f;021_o_f_s_a.jpg;sad;7;30;f;030_o_f_s_a.jpg;sad;congruent;7;match;;130;160;;1;238;block1_Pilot_2;21;s_s;s_s_strong;;;;;0;0;0;0;0;91;91;91;;;;;;;;;651.1938268000004;None;653.1822806999999;653.4774809999999;653.4774809999999;653.4856186000006;653.4856186000006;653.5264388000005;653.5264388000005;None;None;0;;653.5264388000005;None;655.0270398000002;None;['9'];[0.368536299999505];655.0270398000002;None;;;;;Emoconpilot032;2021_Oct_27_1337;BackwardMask;2020.2.8;120.1271906699742;
;m;033_o_m_n_a.jpg;neutral;8;28;f;028_y_f_s_a.jpg;sad;incongruent;7;mismatch;;140;160;;18;166;block1_Pilot_2;33;n_s;n_s_strong;;;;;0;0;0;0;0;92;92;92;;;;;;;;;658.0279340000006;None;659.4350418000004;659.7279806000006;659.7279806000006;659.8774600000006;659.8774600000006;659.9183518;659.9183518;None;8;0;0.4691205999997692;659.9183518;None;661.4186411999999;None;['7'];[0.4247456000002785];661.4186411999999;None;;;;;Emoconpilot032;2021_Oct_27_1337;BackwardMask;2020.2.8;120.1271906699742;
;f;019_m_f_n_a.jpg;neutral;8;30;f;030_o_f_n_a.jpg;neutral;congruent;8;match;;140;170;;18;228;block1_Pilot_2;19;n_n;n_n_weak;;;;;0;0;0;0;0;93;93;93;;;;;;;;;664.4191832000006;None;666.3387409000006;666.6282114000005;666.6282114000005;666.7775056;666.7775056;666.8184236000006;666.8184236000006;None;8;1;0.4969824999998309;666.8184236000006;None;668.319321;None;['7'];[0.540083599999889];668.319321;None;;;;;Emoconpilot032;2021_Oct_27_1337;BackwardMask;2020.2.8;120.1271906699742;
;m;008_y_m_s_a.jpg;sad;7;12;f;012_o_f_h_a.jpg;happy;incongruent;9;mismatch;;130;150;;3;130;block1_Pilot_2;8;s_h;s_h_weak;;;;;0;0;0;0;0;94;94;94;;;;;;;;;671.3186898000004;None;672.4213855000007;672.7114345999998;672.7114345999998;672.7360288;672.7360288;672.7768762000005;672.7768762000005;None;7;0;1.0025735999997778;672.7768762000005;None;674.276965;None;['7'];[0.38252939999983937];674.276965;None;;;;;Emoconpilot032;2021_Oct_27_1337;BackwardMask;2020.2.8;120.1271906699742;
;m;016_y_m_n_a.jpg;neutral;8;28;f;028_y_f_n_a.jpg;neutral;congruent;8;mismatch;;140;170;;18;189;block1_Pilot_2;16;n_n;n_n_strong;;;;;0;0;0;0;0;95;95;95;;;;;;;;;677.2777777000001;None;678.8823087000001;679.1782827000006;679.1782827000006;679.3278084000003;679.3278084000003;679.3687679000004;679.3687679000004;None;8;1;0.8665572999998403;679.3687679000004;None;680.8688059000006;None;['7'];[0.43068570000014006];680.8688059000006;None;;;;;Emoconpilot032;2021_Oct_27_1337;BackwardMask;2020.2.8;120.1271906699742;
;f;012_o_f_s_a.jpg;sad;7;16;m;016_y_m_h_a.jpg;happy;incongruent;9;mismatch;;130;150;;3;238;block1_Pilot_2;12;s_h;s_h_strong;;;;;0;0;0;0;0;96;96;96;;;;;;;;;683.8695631999999;None;685.8556783000004;686.1529979000006;686.1529979000006;686.1779356000006;686.1779356000006;686.2187187;686.2187187;None;7;0;0.912628300000506;686.2187187;None;687.7187602000004;None;['8'];[0.9726684999995996];687.7187602000004;None;;;;;Emoconpilot032;2021_Oct_27_1337;BackwardMask;2020.2.8;120.1271906699742;
;m;013_y_m_h_a.jpg;happy;9;27;m;027_o_m_h_a.jpg;happy;congruent;9;match;;120;150;;18;238;block1_Pilot_2;13;h_h;h_h_strong;;;;;0;0;0;0;0;97;97;97;;;;;;;;;690.7190128000002;None;692.7228212;693.0119177000006;693.0119177000006;693.1614374000001;693.1614374000001;693.2023353000004;693.2023353000004;None;9;1;0.4571686999997837;693.2023353000004;None;694.7025238000006;None;['7'];[0.47677480000038486];694.7025238000006;None;;;;;Emoconpilot032;2021_Oct_27_1337;BackwardMask;2020.2.8;120.1271906699742;
;m;016_y_m_s_a.jpg;sad;7;33;m;033_o_m_n_a.jpg;neutral;incongruent;8;match;;130;170;;1;238;block1_Pilot_2;16;s_n;s_n_weak;;;;;0;0;0;0;0;98;98;98;;;;;;;;;697.7030682000004;None;699.6947821000003;699.9868327000004;699.9868327000004;699.9949127999998;699.9949127999998;700.0357634000002;700.0357634000002;None;None;0;;700.0357634000002;None;701.5360914000003;None;['9'];[0.3953369000000748];701.5360914000003;None;;;;;Emoconpilot032;2021_Oct_27_1337;BackwardMask;2020.2.8;120.1271906699742;
;m;008_y_m_n_a.jpg;neutral;8;30;f;030_o_f_n_a.jpg;neutral;congruent;8;mismatch;;140;170;;1;238;block1_Pilot_2;8;n_n;n_n_weak;;;;;0;0;0;0;0;99;99;99;;;;;;;;;704.5367937999999;None;706.5429168000001;706.8374176000007;706.8374176000007;706.8450769000001;706.8450769000001;706.8859253999999;706.8859253999999;None;None;0;;706.8859253999999;None;708.3858586000006;None;['9'];[0.37771109999994223];708.3858586000006;None;;;;;Emoconpilot032;2021_Oct_27_1337;BackwardMask;2020.2.8;120.1271906699742;
;m;008_y_m_s_a.jpg;sad;7;30;f;030_o_f_s_a.jpg;sad;congruent;7;mismatch;;130;160;;2;133;block1_Pilot_2;8;s_s;s_s_weak;;;;;0;0;0;0;0;100;100;100;;;;;;;;;711.3869328999999;None;712.5137352000002;712.8041450000001;712.8041450000001;712.8201156000005;712.8201156000005;712.8609632000007;712.8609632000007;None;7;1;0.7265330000000176;712.8609632000007;None;714.3612350000003;None;['8'];[0.35442950000015117];714.3612350000003;None;;;;;Emoconpilot032;2021_Oct_27_1337;BackwardMask;2020.2.8;120.1271906699742;
;f;040_y_f_n_a.jpg;neutral;8;30;f;030_o_f_s_a.jpg;sad;incongruent;7;match;;140;160;;3;197;block1_Pilot_2;40;n_s;n_s_strong;;;;;0;0;0;0;0;101;101;101;;;;;;;;;717.3614794000005;None;719.0222473000003;719.3125878000001;719.3125878000001;719.3372164000002;719.3372164000002;719.3779826999998;719.3779826999998;None;8;0;0.6974636999993891;719.3779826999998;None;720.8780522000006;None;['7'];[0.34993610000037734];720.8780522000006;None;;;;;Emoconpilot032;2021_Oct_27_1337;BackwardMask;2020.2.8;120.1271906699742;
;m;004_o_m_h_a.jpg;happy;9;30;f;030_o_f_s_a.jpg;sad;incongruent;7;mismatch;;120;160;;3;121;block1_Pilot_2;4;h_s;h_s_strong;;;;;0;0;0;0;0;102;102;102;;;;;;;;;723.8789858999999;None;724.9061261000006;725.1960925000003;725.1960925000003;725.2205252000003;725.2205252000003;725.2613105;725.2613105;None;9;0;0.5500790999994933;725.2613105;None;726.7615179000004;None;['7'];[0.3060188000008566];726.7615179000004;None;;;;;Emoconpilot032;2021_Oct_27_1337;BackwardMask;2020.2.8;120.1271906699742;
;f;040_y_f_h_a.jpg;happy;9;8;m;008_y_m_h_a.jpg;happy;congruent;9;mismatch;;120;150;;18;211;block1_Pilot_2;40;h_h;h_h_weak;;;;;0;0;0;0;0;103;103;103;;;;;;;;;729.7621010000003;None;731.5281744000004;731.8207775999999;731.8207775999999;731.9706364000003;731.9706364000003;732.0114920000005;732.0114920000005;None;9;1;0.4559412999997221;732.0114920000005;None;733.5115467000005;None;['7'];[0.42003810000005615];733.5115467000005;None;;;;;Emoconpilot032;2021_Oct_27_1337;BackwardMask;2020.2.8;120.1271906699742;
;f;019_m_f_s_a.jpg;sad;7;16;m;016_y_m_n_a.jpg;neutral;incongruent;8;mismatch;;130;170;;2;198;block1_Pilot_2;19;s_n;s_n_strong;;;;;0;0;0;0;0;104;104;104;;;;;;;;;736.5125513000003;None;738.1916701999999;738.4879805999999;738.4879805999999;738.5041207000004;738.5041207000004;738.5450113000006;738.5450113000006;None;8;1;0.6584076999997706;738.5450113000006;None;740.0449364000006;None;['8'];[0.350440900000649];740.0449364000006;None;;;;;Emoconpilot032;2021_Oct_27_1337;BackwardMask;2020.2.8;120.1271906699742;
;f;040_y_f_s_a.jpg;sad;7;12;f;012_o_f_s_a.jpg;sad;congruent;7;match;;130;160;;18;240;block1_Pilot_2;40;s_s;s_s_strong;;;;;0;0;0;0;0;105;105;105;;;;;;;;;743.0451341000007;None;745.0539944000002;745.3461035999999;745.3461035999999;745.4959612000002;745.4959612000002;745.5368134999999;745.5368134999999;None;7;1;0.6747105000004012;745.5368134999999;None;747.0368392;None;['7'];[0.5348046999997678];747.0368392;None;;;;;Emoconpilot032;2021_Oct_27_1337;BackwardMask;2020.2.8;120.1271906699742;
;f;040_y_f_n_a.jpg;neutral;8;33;m;033_o_m_s_a.jpg;sad;incongruent;7;mismatch;;140;160;;3;188;block1_Pilot_2;40;n_s;n_s_weak;;;;;0;0;0;0;0;106;106;106;;;;;;;;;750.0373630000004;None;751.6421759000004;751.93811;751.93811;751.9626308000006;751.9626308000006;752.0035308000006;752.0035308000006;None;8;0;0.7517844999993031;752.0035308000006;None;753.5035715000004;None;['7'];[0.5158879999999044];753.5035715000004;None;;;;;Emoconpilot032;2021_Oct_27_1337;BackwardMask;2020.2.8;120.1271906699742;
;f;028_y_f_h_a.jpg;happy;9;21;f;021_o_f_s_a.jpg;sad;incongruent;7;match;;120;160;;3;193;block1_Pilot_2;28;h_s;h_s_strong;;;;;0;0;0;0;0;107;107;107;;;;;;;;;756.5037685000007;None;758.1226190000007;758.4129255000007;758.4129255000007;758.4377823000004;758.4377823000004;758.4785305000005;758.4785305000005;None;9;0;0.5649481999998898;758.4785305000005;None;759.9787139999999;None;None;;759.9787139999999;None;;;;;Emoconpilot032;2021_Oct_27_1337;BackwardMask;2020.2.8;120.1271906699742;
;f;040_y_f_s_a.jpg;sad;7;13;m;013_y_m_n_a.jpg;neutral;incongruent;8;mismatch;;130;170;;2;198;block1_Pilot_2;40;s_n;s_n_strong;;;;;0;0;0;0;0;108;108;108;;;;;;;;;762.9789721000006;None;764.6371921999998;764.9298196999998;764.9298196999998;764.9463111000005;764.9463111000005;764.9870676999999;764.9870676999999;None;8;1;0.6644883999997546;764.9870676999999;None;766.4869957999999;None;['7'];[0.6685492999995404];766.4869957999999;None;;;;;Emoconpilot032;2021_Oct_27_1337;BackwardMask;2020.2.8;120.1271906699742;
;f;030_o_f_n_a.jpg;neutral;8;33;m;033_o_m_s_a.jpg;sad;incongruent;7;mismatch;;140;160;;1;238;block1_Pilot_2;30;n_s;n_s_strong;;;;;0;0;0;0;0;109;109;109;;;;;;;;;769.4874391000003;None;771.5084434;771.7967011999999;771.7967011999999;771.8046564000006;771.8046564000006;771.8451556999999;771.8451556999999;None;None;0;;771.8451556999999;None;773.3456419000004;None;['9'];[0.4099798999995983];773.3456419000004;None;;;;;Emoconpilot032;2021_Oct_27_1337;BackwardMask;2020.2.8;120.1271906699742;
;f;021_o_f_h_a.jpg;happy;9;40;f;040_y_f_n_a.jpg;neutral;incongruent;8;match;;120;170;;2;125;block1_Pilot_2;21;h_n;h_n_weak;;;;;0;0;0;0;0;110;110;110;;;;;;;;;776.3467042000002;None;777.4080232000006;777.6971947000002;777.6971947000002;777.7130420000003;777.7130420000003;777.7541432000007;777.7541432000007;None;9;0;0.6253166999995301;777.7541432000007;None;779.2542512999999;None;['7'];[0.40523399999983667];779.2542512999999;None;;;;;Emoconpilot032;2021_Oct_27_1337;BackwardMask;2020.2.8;120.1271906699742;
;f;021_o_f_h_a.jpg;happy;9;16;m;016_y_m_s_a.jpg;sad;incongruent;7;mismatch;;120;160;;1;238;block1_Pilot_2;21;h_s;h_s_strong;;;;;0;0;0;0;0;111;111;111;;;;;;;;;782.2553121999999;None;784.2624580000002;784.5556440999999;784.5556440999999;784.5633495000002;784.5633495000002;784.6042969999999;784.6042969999999;None;None;0;;784.6042969999999;None;786.1040892999999;None;['9'];[0.403251800000362];786.1040892999999;None;;;;;Emoconpilot032;2021_Oct_27_1337;BackwardMask;2020.2.8;120.1271906699742;
;f;012_o_f_h_a.jpg;happy;9;8;m;008_y_m_s_a.jpg;sad;incongruent;7;mismatch;;120;160;;1;238;block1_Pilot_2;12;h_s;h_s_weak;;;;;0;0;0;0;0;112;112;112;;;;;;;;;789.1044421000006;None;791.0958492;791.3887375000004;791.3887375000004;791.3968955999999;791.3968955999999;791.4377330000007;791.4377330000007;None;None;0;;791.4377330000007;None;792.9375367000002;None;['9'];[0.38595819999954983];792.9375367000002;None;;;;;Emoconpilot032;2021_Oct_27_1337;BackwardMask;2020.2.8;120.1271906699742;
;m;013_y_m_h_a.jpg;happy;9;16;m;016_y_m_s_a.jpg;sad;incongruent;7;match;;120;160;;3;202;block1_Pilot_2;13;h_s;h_s_weak;;;;;0;0;0;0;0;113;113;113;;;;;;;;;795.9378123000006;None;797.6434217000005;797.9388511000006;797.9388511000006;797.9638335;797.9638335;798.0045332;798.0045332;None;None;0;;798.0045332;None;799.5045192000007;None;['7'];[0.39484970000012254];799.5045192000007;None;;;;;Emoconpilot032;2021_Oct_27_1337;BackwardMask;2020.2.8;120.1271906699742;
;f;019_m_f_s_a.jpg;sad;7;4;m;004_o_m_n_a.jpg;neutral;incongruent;8;mismatch;;130;170;;1;238;block1_Pilot_2;19;s_n;s_n_strong;;;;;0;0;0;0;0;114;114;114;;;;;;;;;802.5047309000001;None;804.5076200000003;804.7977674000003;804.7977674000003;804.8052886000005;804.8052886000005;804.8461771000002;804.8461771000002;None;None;0;;804.8461771000002;None;806.3463929;None;['9'];[0.3050052999997206];806.3463929;None;;;;;Emoconpilot032;2021_Oct_27_1337;BackwardMask;2020.2.8;120.1271906699742;
;f;028_y_f_n_a.jpg;neutral;8;27;m;027_o_m_s_a.jpg;sad;incongruent;7;mismatch;;140;160;;18;238;block1_Pilot_2;28;n_s;n_s_strong;;;;;0;0;0;0;0;115;115;115;;;;;;;;;809.3468235999999;None;811.3501741999999;811.6395456;811.6395456;811.7889928000004;811.7889928000004;811.8298191000003;811.8298191000003;None;8;0;0.8857256000001144;811.8298191000003;None;813.3300773999999;None;['7'];[0.817371600000115];813.3300773999999;None;;;;;Emoconpilot032;2021_Oct_27_1337;BackwardMask;2020.2.8;120.1271906699742;
;m;013_y_m_s_a.jpg;sad;7;12;f;012_o_f_h_a.jpg;happy;incongruent;9;mismatch;;130;150;;1;238;block1_Pilot_2;13;s_h;s_h_strong;;;;;0;0;0;0;0;116;116;116;;;;;;;;;816.3306481;None;818.3230406000002;818.6142587000004;818.6142587000004;818.6225127000007;818.6225127000007;818.6632608;818.6632608;None;None;0;;818.6632608;None;820.1632128000001;None;['9'];[0.44021820000034495];820.1632128000001;None;;;;;Emoconpilot032;2021_Oct_27_1337;BackwardMask;2020.2.8;120.1271906699742;
;m;016_y_m_s_a.jpg;sad;7;19;f;019_m_f_h_a.jpg;happy;incongruent;9;mismatch;;130;150;;1;238;block1_Pilot_2;16;s_h;s_h_strong;;;;;0;0;0;0;0;117;117;117;;;;;;;;;823.1639264000005;None;825.1549879000004;825.4477901999999;825.4477901999999;825.4557690000001;825.4557690000001;825.4967293;825.4967293;None;None;0;;825.4967293;None;826.9967801000003;None;['9'];[0.37468019999960234];826.9967801000003;None;;;;;Emoconpilot032;2021_Oct_27_1337;BackwardMask;2020.2.8;120.1271906699742;
;m;013_y_m_s_a.jpg;sad;7;21;f;021_o_f_h_a.jpg;happy;incongruent;9;mismatch;;130;150;;18;238;block1_Pilot_2;13;s_h;s_h_strong;;;;;0;0;0;0;0;118;118;118;;;;;;;;;829.9977524000005;None;831.9882513000002;832.2811882000005;832.2811882000005;832.4309954999999;832.4309954999999;832.4718249000007;832.4718249000007;None;7;0;0.8437456999999995;832.4718249000007;None;833.9720168000003;None;['7'];[0.3434213999998974];833.9720168000003;None;;;;;Emoconpilot032;2021_Oct_27_1337;BackwardMask;2020.2.8;120.1271906699742;
;f;012_o_f_s_a.jpg;sad;7;13;m;013_y_m_h_a.jpg;happy;incongruent;9;mismatch;;130;150;;3;235;block1_Pilot_2;12;s_h;s_h_weak;;;;;0;0;0;0;0;119;119;119;;;;;;;;;836.9719384;None;838.9341647000001;839.2311528;839.2311528;839.2561986000001;839.2561986000001;839.2969836000002;839.2969836000002;None;7;0;0.7383795000005193;839.2969836000002;None;840.7971304000002;None;['8'];[0.3663969999997789];840.7971304000002;None;;;;;Emoconpilot032;2021_Oct_27_1337;BackwardMask;2020.2.8;120.1271906699742;
;f;019_m_f_s_a.jpg;sad;7;30;f;030_o_f_h_a.jpg;happy;incongruent;9;match;;130;150;;3;235;block2_Pilot_2;19;s_h;s_h_strong;;;;;0;1;1;1;0;0;0;0;;;;;;;;;863.8259730999998;None;865.8279312000004;866.1239395000002;866.1239395000002;866.1484286000004;866.1484286000004;866.1891740000001;866.1891740000001;None;None;0;;866.1891740000001;None;867.6901634000005;None;['9'];[0.3372034000003623];867.6901634000005;None;;;843.7980892000005;None;Emoconpilot032;2021_Oct_27_1337;BackwardMask;2020.2.8;120.1271906699742;
;m;008_y_m_n_a.jpg;neutral;8;40;f;040_y_f_h_a.jpg;happy;incongruent;9;mismatch;;140;150;;2;121;block2_Pilot_2;8;n_h;n_h_strong;;;;;0;1;1;1;0;1;1;1;;;;;;;;;870.6904463000001;None;871.7170088000003;872.0072461999998;872.0072461999998;872.0233194000002;872.0233194000002;872.0644261000007;872.0644261000007;None;8;0;0.5870476999998573;872.0644261000007;None;873.5642481000004;None;['8'];[0.39134699999976874];873.5642481000004;None;;;;;Emoconpilot032;2021_Oct_27_1337;BackwardMask;2020.2.8;120.1271906699742;
;f;012_o_f_h_a.jpg;happy;9;27;m;027_o_m_n_a.jpg;neutral;incongruent;8;mismatch;;120;170;;2;240;block2_Pilot_2;12;h_n;h_n_weak;;;;;0;1;1;1;0;2;2;2;;;;;;;;;876.5644670000001;None;878.5721714000001;878.8655017000001;878.8655017000001;878.8820435000007;878.8820435000007;878.9227627999999;878.9227627999999;None;9;0;0.9365426000003936;878.9227627999999;None;880.4228536;None;['8'];[0.3326697000002241];880.4228536;None;;;;;Emoconpilot032;2021_Oct_27_1337;BackwardMask;2020.2.8;120.1271906699742;
;m;008_y_m_h_a.jpg;happy;9;40;f;040_y_f_h_a.jpg;happy;congruent;9;mismatch;;120;150;;18;195;block2_Pilot_2;8;h_h;h_h_strong;;;;;0;1;1;1;0;3;3;3;;;;;;;;;883.4229222000004;None;885.0557374999999;885.3488615000006;885.3488615000006;885.4987330000004;885.4987330000004;885.5395603000006;885.5395603000006;None;9;1;0.40801300000021;885.5395603000006;None;887.0398966000002;None;['7'];[0.41159890000017185];887.0398966000002;None;;;;;Emoconpilot032;2021_Oct_27_1337;BackwardMask;2020.2.8;120.1271906699742;
;m;004_o_m_n_a.jpg;neutral;8;33;m;033_o_m_s_a.jpg;sad;incongruent;7;match;;140;160;;18;126;block2_Pilot_2;4;n_s;n_s_weak;;;;;0;1;1;1;0;4;4;4;;;;;;;;;890.0397432;None;891.1295828000002;891.4245983999999;891.4245983999999;891.5739014999999;891.5739014999999;891.6147608000001;891.6147608000001;None;8;0;1.0848854999994728;891.6147608000001;None;893.1147019;None;['7'];[0.3926428000004307];893.1147019;None;;;;;Emoconpilot032;2021_Oct_27_1337;BackwardMask;2020.2.8;120.1271906699742;
;f;028_y_f_s_a.jpg;sad;7;27;m;027_o_m_n_a.jpg;neutral;incongruent;8;mismatch;;130;170;;18;225;block2_Pilot_2;28;s_n;s_n_strong;;;;;0;1;1;1;0;5;5;5;;;;;;;;;896.1157569000006;None;898.0050815000004;898.2992623;898.2992623;898.4489868999999;898.4489868999999;898.4899420000002;898.4899420000002;None;7;0;0.9134420999998838;898.4899420000002;None;899.9899773000006;None;['7'];[0.7014572999996744];899.9899773000006;None;;;;;Emoconpilot032;2021_Oct_27_1337;BackwardMask;2020.2.8;120.1271906699742;
;m;027_o_m_s_a.jpg;sad;7;30;f;030_o_f_h_a.jpg;happy;incongruent;9;mismatch;;130;150;;18;238;block2_Pilot_2;27;s_h;s_h_weak;;;;;0;1;1;1;0;6;6;6;;;;;;;;;902.9909353000003;None;904.9814089000001;905.2743192000007;905.2743192000007;905.4243486000005;905.4243486000005;905.4649919000003;905.4649919000003;None;7;0;0.642508199999611;905.4649919000003;None;906.9650433000006;None;['7'];[0.2623419000001377];906.9650433000006;None;;;;;Emoconpilot032;2021_Oct_27_1337;BackwardMask;2020.2.8;120.1271906699742;
;m;033_o_m_h_a.jpg;happy;9;40;f;040_y_f_s_a.jpg;sad;incongruent;7;mismatch;;120;160;;1;238;block2_Pilot_2;33;h_s;h_s_strong;;;;;0;1;1;1;0;7;7;7;;;;;;;;;909.9659452000005;None;911.9562562000001;912.2492262000005;912.2492262000005;912.2576508000002;912.2576508000002;912.2986281000003;912.2986281000003;None;None;0;;912.2986281000003;None;913.7985763000006;None;['9'];[0.40474150000045483];913.7985763000006;None;;;;;Emoconpilot032;2021_Oct_27_1337;BackwardMask;2020.2.8;120.1271906699742;
;f;012_o_f_n_a.jpg;neutral;8;12;f;012_o_f_h_a.jpg;happy;incongruent;9;match;;140;150;;2;200;block2_Pilot_2;12;n_h;n_h_weak;;;;;0;1;1;1;0;8;8;8;;;;;;;;;916.7987301000003;None;918.4862596000003;918.7750855000004;918.7750855000004;918.7910406000001;918.7910406000001;918.8318962000003;918.8318962000003;None;9;1;0.9635239999997793;918.8318962000003;None;920.3322317000002;None;['9'];[0.33521569999993517];920.3322317000002;None;;;;;Emoconpilot032;2021_Oct_27_1337;BackwardMask;2020.2.8;120.1271906699742;
;f;030_o_f_n_a.jpg;neutral;8;19;f;019_m_f_n_a.jpg;neutral;congruent;8;match;;140;170;;1;238;block2_Pilot_2;30;n_n;n_n_weak;;;;;0;1;1;1;0;9;9;9;;;;;;;;;923.3328110000002;None;925.3345749999999;925.6251338000002;925.6251338000002;925.6328730000005;925.6328730000005;925.6736322000006;925.6736322000006;None;None;0;;925.6736322000006;None;927.1739119000003;None;['9'];[0.46155110000017885];927.1739119000003;None;;;;;Emoconpilot032;2021_Oct_27_1337;BackwardMask;2020.2.8;120.1271906699742;
;m;013_y_m_h_a.jpg;happy;9;8;m;008_y_m_n_a.jpg;neutral;incongruent;8;match;;120;170;;1;238;block2_Pilot_2;13;h_n;h_n_strong;;;;;0;1;1;1;0;10;10;10;;;;;;;;;930.1749509000001;None;932.1766127000001;932.4668621000001;932.4668621000001;932.4747861000005;932.4747861000005;932.5155160000004;932.5155160000004;None;None;0;;932.5155160000004;None;934.0156492000006;None;['9'];[0.48371060000044963];934.0156492000006;None;;;;;Emoconpilot032;2021_Oct_27_1337;BackwardMask;2020.2.8;120.1271906699742;
;f;040_y_f_h_a.jpg;happy;9;19;f;019_m_f_s_a.jpg;sad;incongruent;7;match;;120;160;;3;133;block2_Pilot_2;40;h_s;h_s_strong;;;;;0;1;1;1;0;11;11;11;;;;;;;;;937.0164089;None;938.1322746000005;938.425201;938.425201;938.4496214999999;938.4496214999999;938.4907100999999;938.4907100999999;None;9;0;0.7046778000003542;938.4907100999999;None;939.9907659999999;None;['7'];[0.3727168999994319];939.9907659999999;None;;;;;Emoconpilot032;2021_Oct_27_1337;BackwardMask;2020.2.8;120.1271906699742;
;f;040_y_f_h_a.jpg;happy;9;13;m;013_y_m_s_a.jpg;sad;incongruent;7;mismatch;;120;160;;3;226;block2_Pilot_2;40;h_s;h_s_strong;;;;;0;1;1;1;0;12;12;12;;;;;;;;;942.9908727000002;None;944.8821908999998;945.1754142;945.1754142;945.2000034000002;945.2000034000002;945.2410659000006;945.2410659000006;None;9;0;0.4985287999998036;945.2410659000006;None;946.7408830000004;None;['7'];[0.36646640000071784];946.7408830000004;None;;;;;Emoconpilot032;2021_Oct_27_1337;BackwardMask;2020.2.8;120.1271906699742;
;f;030_o_f_s_a.jpg;sad;7;27;m;027_o_m_h_a.jpg;happy;incongruent;9;mismatch;;130;150;;1;238;block2_Pilot_2;30;s_h;s_h_strong;;;;;0;1;1;1;0;13;13;13;;;;;;;;;949.7418404;None;951.7492966;952.0424338000003;952.0424338000003;952.0501383000001;952.0501383000001;952.0908950000003;952.0908950000003;None;None;0;;952.0908950000003;None;953.5911295000005;None;['9'];[0.420304500000384];953.5911295000005;None;;;;;Emoconpilot032;2021_Oct_27_1337;BackwardMask;2020.2.8;120.1271906699742;
;m;033_o_m_h_a.jpg;happy;9;30;f;030_o_f_s_a.jpg;sad;incongruent;7;mismatch;;120;160;;1;238;block2_Pilot_2;33;h_s;h_s_weak;;;;;0;1;1;1;0;14;14;14;;;;;;;;;956.5922458000005;None;958.5834923000002;958.8754558999999;958.8754558999999;958.8835687000001;958.8835687000001;958.9244520000002;958.9244520000002;None;None;0;;958.9244520000002;None;960.4246469;None;['9'];[0.3867248999995354];960.4246469;None;;;;;Emoconpilot032;2021_Oct_27_1337;BackwardMask;2020.2.8;120.1271906699742;
;f;030_o_f_s_a.jpg;sad;7;28;f;028_y_f_n_a.jpg;neutral;incongruent;8;match;;130;170;;3;198;block2_Pilot_2;30;s_n;s_n_weak;;;;;0;1;1;1;0;15;15;15;;;;;;;;;963.4254818;None;965.1081410000006;965.4009435000007;965.4009435000007;965.425424;965.425424;965.4663215;965.4663215;None;7;0;1.1451360000000932;965.4663215;None;966.9667468000007;None;['8'];[0.34077759999945556];966.9667468000007;None;;;;;Emoconpilot032;2021_Oct_27_1337;BackwardMask;2020.2.8;120.1271906699742;
;f;030_o_f_s_a.jpg;sad;7;33;m;033_o_m_h_a.jpg;happy;incongruent;9;mismatch;;130;150;;3;175;block2_Pilot_2;30;s_h;s_h_weak;;;;;0;1;1;1;0;16;16;16;;;;;;;;;969.9666924000003;None;971.4449849000002;971.7343234;971.7343234;971.7589136000006;971.7589136000006;971.7998247000005;971.7998247000005;None;7;0;0.6276984999994966;971.7998247000005;None;973.2997974999998;None;['8'];[0.2396600000001854];973.2997974999998;None;;;;;Emoconpilot032;2021_Oct_27_1337;BackwardMask;2020.2.8;120.1271906699742;
;f;021_o_f_h_a.jpg;happy;9;30;f;030_o_f_h_a.jpg;happy;congruent;9;match;;120;150;;2;194;block2_Pilot_2;21;h_h;h_h_strong;;;;;0;1;1;1;0;17;17;17;;;;;;;;;976.3006292;None;977.93631;978.2263241999999;978.2263241999999;978.2420563000005;978.2420563000005;978.2831168000002;978.2831168000002;None;9;1;0.6082832999991297;978.2831168000002;None;979.783794;None;['8'];[0.5875506000002133];979.783794;None;;;;;Emoconpilot032;2021_Oct_27_1337;BackwardMask;2020.2.8;120.1271906699742;
;f;019_m_f_n_a.jpg;neutral;8;16;m;016_y_m_s_a.jpg;sad;incongruent;7;mismatch;;140;160;;18;163;block2_Pilot_2;19;n_s;n_s_weak;;;;;0;1;1;1;0;18;18;18;;;;;;;;;982.7840739000003;None;984.1610819000007;984.4515259;984.4515259;984.6008753000006;984.6008753000006;984.6415963;984.6415963;None;8;0;0.4578999000004842;984.6415963;None;986.1417857000006;None;['7'];[0.5017373999999108];986.1417857000006;None;;;;;Emoconpilot032;2021_Oct_27_1337;BackwardMask;2020.2.8;120.1271906699742;
;m;033_o_m_n_a.jpg;neutral;8;13;m;013_y_m_n_a.jpg;neutral;congruent;8;match;;140;170;;2;217;block2_Pilot_2;33;n_n;n_n_strong;;;;;0;1;1;1;0;19;19;19;;;;;;;;;989.1417860000001;None;990.9732848000003;991.2681339000001;991.2681339000001;991.2838967000007;991.2838967000007;991.3251753000004;991.3251753000004;None;8;1;0.5823613999991721;991.3251753000004;None;992.8252186;None;['7'];[0.37015530000007857];992.8252186;None;;;;;Emoconpilot032;2021_Oct_27_1337;BackwardMask;2020.2.8;120.1271906699742;
;m;033_o_m_h_a.jpg;happy;9;13;m;013_y_m_n_a.jpg;neutral;incongruent;8;match;;120;170;;2;227;block2_Pilot_2;33;h_n;h_n_weak;;;;;0;1;1;1;0;20;20;20;;;;;;;;;995.8259065000002;None;997.7249810000003;998.0178430000005;998.0178430000005;998.0344369000004;998.0344369000004;998.0751780999999;998.0751780999999;None;9;0;0.6801802999998472;998.0751780999999;None;999.5752523000001;None;['8'];[0.37228440000035334];999.5752523000001;None;;;;;Emoconpilot032;2021_Oct_27_1337;BackwardMask;2020.2.8;120.1271906699742;
;f;012_o_f_s_a.jpg;sad;7;16;m;016_y_m_n_a.jpg;neutral;incongruent;8;mismatch;;130;170;;1;238;block2_Pilot_2;12;s_n;s_n_weak;;;;;0;1;1;1;0;21;21;21;;;;;;;;;1002.5762328000001;None;1004.5626086000002;1004.859488;1004.859488;1004.8678262000003;1004.8678262000003;1004.9088023000004;1004.9088023000004;None;None;0;;1004.9088023000004;None;1006.4092221999999;None;['9'];[0.39429569999992964];1006.4092221999999;None;;;;;Emoconpilot032;2021_Oct_27_1337;BackwardMask;2020.2.8;120.1271906699742;
;f;028_y_f_n_a.jpg;neutral;8;21;f;021_o_f_h_a.jpg;happy;incongruent;9;match;;140;150;;18;202;block2_Pilot_2;28;n_h;n_h_strong;;;;;0;1;1;1;0;22;22;22;;;;;;;;;1009.4090004;None;1011.1224102000006;1011.4186585000007;1011.4186585000007;1011.5681424000004;1011.5681424000004;1011.6089322000007;1011.6089322000007;None;8;0;0.45837850000043545;1011.6089322000007;None;1013.1097187000005;None;['7'];[0.533826500000032];1013.1097187000005;None;;;;;Emoconpilot032;2021_Oct_27_1337;BackwardMask;2020.2.8;120.1271906699742;
;f;028_y_f_s_a.jpg;sad;7;30;f;030_o_f_n_a.jpg;neutral;incongruent;8;match;;130;170;;2;127;block2_Pilot_2;28;s_n;s_n_weak;;;;;0;1;1;1;0;23;23;23;;;;;;;;;1016.1094793000002;None;1017.1792247000003;1017.46832;1017.46832;1017.4848206000006;1017.4848206000006;1017.5256739000006;1017.5256739000006;None;8;1;0.5018260999995618;1017.5256739000006;None;1019.0255843000004;None;['7'];[0.44185509999988426];1019.0255843000004;None;;;;;Emoconpilot032;2021_Oct_27_1337;BackwardMask;2020.2.8;120.1271906699742;
;m;004_o_m_n_a.jpg;neutral;8;40;f;040_y_f_n_a.jpg;neutral;congruent;8;mismatch;;140;170;;1;238;block2_Pilot_2;4;n_n;n_n_weak;;;;;0;1;1;1;0;24;24;24;;;;;;;;;1022.0259347000001;None;1024.0539537000004;1024.3439234000007;1024.3439234000007;1024.3516475000006;1024.3516475000006;1024.3925904000007;1024.3925904000007;None;None;0;;1024.3925904000007;None;1025.8924652000005;None;['9'];[0.3268115000000762];1025.8924652000005;None;;;;;Emoconpilot032;2021_Oct_27_1337;BackwardMask;2020.2.8;120.1271906699742;
;m;016_y_m_n_a.jpg;neutral;8;16;m;016_y_m_h_a.jpg;happy;incongruent;9;match;;140;150;;18;239;block2_Pilot_2;16;n_h;n_h_weak;;;;;0;1;1;1;0;25;25;25;;;;;;;;;1028.8935795000007;None;1030.9056916;1031.2023746000004;1031.2023746000004;1031.3517544000006;1031.3517544000006;1031.3926986000006;1031.3926986000006;None;8;0;0.3948156000005838;1031.3926986000006;None;1032.8927386000005;None;['7'];[0.422725100000207];1032.8927386000005;None;;;;;Emoconpilot032;2021_Oct_27_1337;BackwardMask;2020.2.8;120.1271906699742;
;f;012_o_f_n_a.jpg;neutral;8;33;m;033_o_m_n_a.jpg;neutral;congruent;8;mismatch;;140;170;;3;134;block2_Pilot_2;12;n_n;n_n_weak;;;;;0;1;1;1;0;26;26;26;;;;;;;;;1035.8934444000006;None;1037.0288809000003;1037.3191455000006;1037.3191455000006;1037.3433423000006;1037.3433423000006;1037.3845407;1037.3845407;None;8;1;0.5789103999995859;1037.3845407;None;1038.8845206000005;None;['7'];[0.6070005999999921];1038.8845206000005;None;;;;;Emoconpilot032;2021_Oct_27_1337;BackwardMask;2020.2.8;120.1271906699742;
;m;013_y_m_h_a.jpg;happy;9;27;m;027_o_m_s_a.jpg;sad;incongruent;7;match;;120;160;;2;194;block2_Pilot_2;13;h_s;h_s_strong;;;;;0;1;1;1;0;27;27;27;;;;;;;;;1041.8856392000007;None;1043.5218364000002;1043.8108695;1043.8108695;1043.8270522000003;1043.8270522000003;1043.8679011000004;1043.8679011000004;None;9;0;0.5277090999998109;1043.8679011000004;None;1045.3679084000005;None;['8'];[0.4196400000000722];1045.3679084000005;None;;;;;Emoconpilot032;2021_Oct_27_1337;BackwardMask;2020.2.8;120.1271906699742;
;m;013_y_m_n_a.jpg;neutral;8;28;f;028_y_f_n_a.jpg;neutral;congruent;8;mismatch;;140;170;;1;238;block2_Pilot_2;13;n_n;n_n_weak;;;;;0;1;1;1;0;28;28;28;;;;;;;;;1048.3690363000005;None;1050.3707466000005;1050.6610518000007;1050.6610518000007;1050.6689139;1050.6689139;1050.7097152000006;1050.7097152000006;None;None;0;;1050.7097152000006;None;1052.2096110000002;None;['9'];[0.3539229999996678];1052.2096110000002;None;;;;;Emoconpilot032;2021_Oct_27_1337;BackwardMask;2020.2.8;120.1271906699742;
;f;030_o_f_s_a.jpg;sad;7;33;m;033_o_m_h_a.jpg;happy;incongruent;9;mismatch;;130;150;;3;168;block2_Pilot_2;30;s_h;s_h_weak;;;;;0;1;1;1;0;29;29;29;;;;;;;;;1055.2110369000002;None;1056.6284482;1056.9194975;1056.9194975;1056.9439121000005;1056.9439121000005;1056.9849224;1056.9849224;None;7;0;0.7624679999998989;1056.9849224;None;1058.4848091000003;None;['8'];[0.3584813999996186];1058.4848091000003;None;;;;;Emoconpilot032;2021_Oct_27_1337;BackwardMask;2020.2.8;120.1271906699742;
;m;008_y_m_n_a.jpg;neutral;8;12;f;012_o_f_n_a.jpg;neutral;congruent;8;mismatch;;140;170;;18;208;block2_Pilot_2;8;n_n;n_n_weak;;;;;0;1;1;1;0;30;30;30;;;;;;;;;1061.4851771000003;None;1063.2379363999999;1063.5281081000003;1063.5281081000003;1063.6774757000003;1063.6774757000003;1063.7183232000007;1063.7183232000007;None;8;1;0.3652454000002763;1063.7183232000007;None;1065.2188098000006;None;['7'];[0.34471399999983987];1065.2188098000006;None;;;;;Emoconpilot032;2021_Oct_27_1337;BackwardMask;2020.2.8;120.1271906699742;
;m;008_y_m_s_a.jpg;sad;7;4;m;004_o_m_n_a.jpg;neutral;incongruent;8;match;;130;170;;2;231;block2_Pilot_2;8;s_n;s_n_weak;;;;;0;1;1;1;0;31;31;31;;;;;;;;;1068.2191559000003;None;1070.1627627000007;1070.4530352000002;1070.4530352000002;1070.4693990000005;1070.4693990000005;1070.5101101999999;1070.5101101999999;None;7;0;1.0854044999996404;1070.5101101999999;None;1072.0098961000003;None;['8'];[0.40957020000041666];1072.0098961000003;None;;;;;Emoconpilot032;2021_Oct_27_1337;BackwardMask;2020.2.8;120.1271906699742;
;m;016_y_m_n_a.jpg;neutral;8;28;f;028_y_f_n_a.jpg;neutral;congruent;8;mismatch;;140;170;;2;218;block2_Pilot_2;16;n_n;n_n_weak;;;;;0;1;1;1;0;32;32;32;;;;;;;;;1075.010585;None;1076.8461242000003;1077.1367008000007;1077.1367008000007;1077.1526861000002;1077.1526861000002;1077.1936523000004;1077.1936523000004;None;8;1;0.5458787999996275;1077.1936523000004;None;1078.6936044000004;None;['7'];[0.4138223999998445];1078.6936044000004;None;;;;;Emoconpilot032;2021_Oct_27_1337;BackwardMask;2020.2.8;120.1271906699742;
;m;033_o_m_n_a.jpg;neutral;8;33;m;033_o_m_s_a.jpg;sad;incongruent;7;match;;140;160;;3;141;block2_Pilot_2;33;n_s;n_s_weak;;;;;0;1;1;1;0;33;33;33;;;;;;;;;1081.6942383000005;None;1082.8881093;1083.1783307000005;1083.1783307000005;1083.2030819000001;1083.2030819000001;1083.2436029;1083.2436029;None;8;0;0.6078431000005367;1083.2436029;None;1084.7438644000003;None;['7'];[0.2837294999999358];1084.7438644000003;None;;;;;Emoconpilot032;2021_Oct_27_1337;BackwardMask;2020.2.8;120.1271906699742;
;m;016_y_m_n_a.jpg;neutral;8;13;m;013_y_m_s_a.jpg;sad;incongruent;7;match;;140;160;;1;238;block2_Pilot_2;16;n_s;n_s_weak;;;;;0;1;1;1;0;34;34;34;;;;;;;;;1087.7447939000003;None;1089.7509654000005;1090.0451255000007;1090.0451255000007;1090.0529379;1090.0529379;1090.0940633999999;1090.0940633999999;None;None;0;;1090.0940633999999;None;1091.5941287000005;None;['9'];[0.2733603000006042];1091.5941287000005;None;;;;;Emoconpilot032;2021_Oct_27_1337;BackwardMask;2020.2.8;120.1271906699742;
;f;030_o_f_h_a.jpg;happy;9;12;f;012_o_f_n_a.jpg;neutral;incongruent;8;match;;120;170;;3;190;block2_Pilot_2;30;h_n;h_n_weak;;;;;0;1;1;1;0;35;35;35;;;;;;;;;1094.5948429;None;1096.1975003000007;1096.4870744;1096.4870744;1096.5115254000002;1096.5115254000002;1096.5523332000002;1096.5523332000002;None;9;0;0.6751237999997102;1096.5523332000002;None;1098.0522566;None;['7'];[0.287100499999724];1098.0522566;None;;;;;Emoconpilot032;2021_Oct_27_1337;BackwardMask;2020.2.8;120.1271906699742;
;f;030_o_f_s_a.jpg;sad;7;12;f;012_o_f_n_a.jpg;neutral;incongruent;8;match;;130;170;;3;197;block2_Pilot_2;30;s_n;s_n_strong;;;;;0;1;1;1;0;36;36;36;;;;;;;;;1101.0524152000007;None;1102.7145637000003;1103.0036036000001;1103.0036036000001;1103.0282812000005;1103.0282812000005;1103.0691654000002;1103.0691654000002;None;8;1;1.0543417999997473;1103.0691654000002;None;1104.5691184000007;None;['8'];[0.36231990000032965];1104.5691184000007;None;;;;;Emoconpilot032;2021_Oct_27_1337;BackwardMask;2020.2.8;120.1271906699742;
;m;004_o_m_s_a.jpg;sad;7;8;m;008_y_m_h_a.jpg;happy;incongruent;9;match;;130;150;;3;201;block2_Pilot_2;4;s_h;s_h_strong;;;;;0;1;1;1;0;37;37;37;;;;;;;;;1107.5699953000003;None;1109.2522505000006;1109.5450449;1109.5450449;1109.5701505000006;1109.5701505000006;1109.6110265000007;1109.6110265000007;None;8;0;0.6484793999998146;1109.6110265000007;None;1111.1107274000005;None;['8'];[0.2688999000001786];1111.1107274000005;None;;;;;Emoconpilot032;2021_Oct_27_1337;BackwardMask;2020.2.8;120.1271906699742;
;f;040_y_f_n_a.jpg;neutral;8;16;m;016_y_m_n_a.jpg;neutral;congruent;8;mismatch;;140;170;;3;198;block2_Pilot_2;40;n_n;n_n_strong;;;;;0;1;1;1;0;38;38;38;;;;;;;;;1114.1110447;None;1115.7953738000006;1116.0873619000004;1116.0873619000004;1116.1118396000002;1116.1118396000002;1116.1527505000004;1116.1527505000004;None;8;1;0.7306822000000466;1116.1527505000004;None;1117.6530185000001;None;['7'];[0.45454739999968297];1117.6530185000001;None;;;;;Emoconpilot032;2021_Oct_27_1337;BackwardMask;2020.2.8;120.1271906699742;
;m;027_o_m_n_a.jpg;neutral;8;16;m;016_y_m_s_a.jpg;sad;incongruent;7;match;;140;160;;1;238;block2_Pilot_2;27;n_s;n_s_strong;;;;;0;1;1;1;0;39;39;39;;;;;;;;;1120.6534741000005;None;1122.6565632000002;1122.9459426000003;1122.9459426000003;1122.9536932;1122.9536932;1122.9943873000002;1122.9943873000002;None;None;0;;1122.9943873000002;None;1124.4944369000004;None;['9'];[0.38902909999978874];1124.4944369000004;None;;;;;Emoconpilot032;2021_Oct_27_1337;BackwardMask;2020.2.8;120.1271906699742;
;m;033_o_m_n_a.jpg;neutral;8;40;f;040_y_f_h_a.jpg;happy;incongruent;9;mismatch;;140;150;;2;137;block2_Pilot_2;33;n_h;n_h_strong;;;;;0;1;1;1;0;40;40;40;;;;;;;;;1127.4955893000006;None;1128.6557853000004;1128.9459907;1128.9459907;1128.9620966000002;1128.9620966000002;1129.0030401000004;1129.0030401000004;None;8;0;0.6404229999998279;1129.0030401000004;None;1130.5032722000005;None;['9'];[0.8520659999994677];1130.5032722000005;None;;;;;Emoconpilot032;2021_Oct_27_1337;BackwardMask;2020.2.8;120.1271906699742;
;m;004_o_m_s_a.jpg;sad;7;8;m;008_y_m_h_a.jpg;happy;incongruent;9;match;;130;150;;18;193;block2_Pilot_2;4;s_h;s_h_strong;;;;;0;1;1;1;0;41;41;41;;;;;;;;;1133.5039891000006;None;1135.1192998000006;1135.4124870000005;1135.4124870000005;1135.5620988;1135.5620988;1135.6030828000003;1135.6030828000003;None;7;0;0.6565228999997998;1135.6030828000003;None;1137.1031753000007;None;['7'];[0.6202485000003435];1137.1031753000007;None;;;;;Emoconpilot032;2021_Oct_27_1337;BackwardMask;2020.2.8;120.1271906699742;
;f;012_o_f_h_a.jpg;happy;9;4;m;004_o_m_s_a.jpg;sad;incongruent;7;mismatch;;120;160;;3;198;block2_Pilot_2;12;h_s;h_s_weak;;;;;0;1;1;1;0;42;42;42;;;;;;;;;1140.1032134000006;None;1141.7610954000002;1142.0543336;1142.0543336;1142.0790371000003;1142.0790371000003;1142.1200548000006;1142.1200548000006;None;9;0;0.5793091999994431;1142.1200548000006;None;1143.619944;None;['7'];[0.3835415000003195];1143.619944;None;;;;;Emoconpilot032;2021_Oct_27_1337;BackwardMask;2020.2.8;120.1271906699742;
;f;012_o_f_n_a.jpg;neutral;8;8;m;008_y_m_s_a.jpg;sad;incongruent;7;mismatch;;140;160;;1;238;block2_Pilot_2;12;n_s;n_s_strong;;;;;0;1;1;1;0;43;43;43;;;;;;;;;1146.6208445000002;None;1148.6315143000002;1148.9216428;1148.9216428;1148.9292203000005;1148.9292203000005;1148.970206;1148.970206;None;None;0;;1148.970206;None;1150.4701807000001;None;['9'];[0.34939089999988937];1150.4701807000001;None;;;;;Emoconpilot032;2021_Oct_27_1337;BackwardMask;2020.2.8;120.1271906699742;
;f;040_y_f_n_a.jpg;neutral;8;8;m;008_y_m_n_a.jpg;neutral;congruent;8;mismatch;;140;170;;3;165;block2_Pilot_2;40;n_n;n_n_weak;;;;;0;1;1;1;0;44;44;44;;;;;;;;;1153.4710091000006;None;1154.8653867000003;1155.1549626000005;1155.1549626000005;1155.1792027000001;1155.1792027000001;1155.2202204000005;1155.2202204000005;None;8;1;0.6791169999996782;1155.2202204000005;None;1156.7203600000003;None;['8'];[0.3712074000004577];1156.7203600000003;None;;;;;Emoconpilot032;2021_Oct_27_1337;BackwardMask;2020.2.8;120.1271906699742;
;f;028_y_f_h_a.jpg;happy;9;33;m;033_o_m_n_a.jpg;neutral;incongruent;8;mismatch;;120;170;;1;238;block2_Pilot_2;28;h_n;h_n_strong;;;;;0;1;1;1;0;45;45;45;;;;;;;;;1159.7207205000004;None;1161.7158042;1162.0046212000007;1162.0046212000007;1162.0126679000005;1162.0126679000005;1162.0537150999999;1162.0537150999999;None;None;0;;1162.0537150999999;None;1163.5536441000004;None;['9'];[0.29780899999968824];1163.5536441000004;None;;;;;Emoconpilot032;2021_Oct_27_1337;BackwardMask;2020.2.8;120.1271906699742;
;m;027_o_m_s_a.jpg;sad;7;19;f;019_m_f_n_a.jpg;neutral;incongruent;8;mismatch;;130;170;;2;236;block2_Pilot_2;27;s_n;s_n_weak;;;;;0;1;1;1;0;46;46;46;;;;;;;;;1166.5544183000002;None;1168.5283851000004;1168.8215520000003;1168.8215520000003;1168.8379302000003;1168.8379302000003;1168.8787137;1168.8787137;None;None;0;;1168.8787137;None;1170.3787907000005;None;['9'];[0.376834400000007];1170.3787907000005;None;;;;;Emoconpilot032;2021_Oct_27_1337;BackwardMask;2020.2.8;120.1271906699742;
;m;027_o_m_h_a.jpg;happy;9;19;f;019_m_f_s_a.jpg;sad;incongruent;7;mismatch;;120;160;;1;238;block2_Pilot_2;27;h_s;h_s_strong;;;;;0;1;1;1;0;47;47;47;;;;;;;;;1173.3799749999998;None;1175.4053303;1175.6971187;1175.6971187;1175.7047911;1175.7047911;1175.7456209000002;1175.7456209000002;None;None;0;;1175.7456209000002;None;1177.2457181999998;None;['9'];[0.31760249999933876];1177.2457181999998;None;;;;;Emoconpilot032;2021_Oct_27_1337;BackwardMask;2020.2.8;120.1271906699742;
;m;016_y_m_h_a.jpg;happy;9;4;m;004_o_m_s_a.jpg;sad;incongruent;7;match;;120;160;;3;227;block2_Pilot_2;16;h_s;h_s_strong;;;;;0;1;1;1;0;48;48;48;;;;;;;;;1180.2464813000006;None;1182.1463968000007;1182.4382442000006;1182.4382442000006;1182.4631649000003;1182.4631649000003;1182.5040374999999;1182.5040374999999;None;9;0;0.6274438000000373;1182.5040374999999;None;1184.0040948000005;None;['7'];[0.43942319999950996];1184.0040948000005;None;;;;;Emoconpilot032;2021_Oct_27_1337;BackwardMask;2020.2.8;120.1271906699742;
;f;040_y_f_h_a.jpg;happy;9;13;m;013_y_m_h_a.jpg;happy;congruent;9;mismatch;;120;150;;3;165;block2_Pilot_2;40;h_h;h_h_strong;;;;;0;1;1;1;0;49;49;49;;;;;;;;;1187.0044526000001;None;1188.3871102000003;1188.6801199000001;1188.6801199000001;1188.7050061999998;1188.7050061999998;1188.7458049000006;1188.7458049000006;None;9;1;0.47375300000021525;1188.7458049000006;None;1190.2458702000004;None;['7'];[0.26964549999956944];1190.2458702000004;None;;;;;Emoconpilot032;2021_Oct_27_1337;BackwardMask;2020.2.8;120.1271906699742;
;m;033_o_m_s_a.jpg;sad;7;28;f;028_y_f_n_a.jpg;neutral;incongruent;8;mismatch;;130;170;;2;227;block2_Pilot_2;33;s_n;s_n_weak;;;;;0;1;1;1;0;50;50;50;;;;;;;;;1193.2462155000003;None;1195.1456699;1195.4386828000006;1195.4386828000006;1195.4552216000002;1195.4552216000002;1195.4961217;1195.4961217;None;8;1;0.5796380000001591;1195.4961217;None;1196.9961226000005;None;['8'];[0.36740199999985634];1196.9961226000005;None;;;;;Emoconpilot032;2021_Oct_27_1337;BackwardMask;2020.2.8;120.1271906699742;
;f;019_m_f_s_a.jpg;sad;7;27;m;027_o_m_h_a.jpg;happy;incongruent;9;mismatch;;130;150;;1;238;block2_Pilot_2;19;s_h;s_h_weak;;;;;0;1;1;1;0;51;51;51;;;;;;;;;1199.9961272;None;1202.0030799000006;1202.2974615000003;1202.2974615000003;1202.3054154000001;1202.3054154000001;1202.3462147999999;1202.3462147999999;None;None;0;;1202.3462147999999;None;1203.8466429999999;None;['9'];[0.3246505999995861];1203.8466429999999;None;;;;;Emoconpilot032;2021_Oct_27_1337;BackwardMask;2020.2.8;120.1271906699742;
;m;016_y_m_h_a.jpg;happy;9;19;f;019_m_f_n_a.jpg;neutral;incongruent;8;mismatch;;120;170;;18;238;block2_Pilot_2;16;h_n;h_n_strong;;;;;0;1;1;1;0;52;52;52;;;;;;;;;1206.8473635;None;1208.8376627000007;1209.1306273;1209.1306273;1209.2802603;1209.2802603;1209.3213215000005;1209.3213215000005;None;9;0;0.4101612999993449;1209.3213215000005;None;1210.8209699;None;['7'];[0.2865360999994664];1210.8209699;None;;;;;Emoconpilot032;2021_Oct_27_1337;BackwardMask;2020.2.8;120.1271906699742;
;f;021_o_f_s_a.jpg;sad;7;8;m;008_y_m_n_a.jpg;neutral;incongruent;8;mismatch;;130;170;;1;238;block2_Pilot_2;21;s_n;s_n_strong;;;;;0;1;1;1;0;53;53;53;;;;;;;;;1213.8223987000001;None;1215.8105983000005;1216.1058031000002;1216.1058031000002;1216.1140302000003;1216.1140302000003;1216.1548827000006;1216.1548827000006;None;None;0;;1216.1548827000006;None;1217.6548923;None;['9'];[0.33263609999994515];1217.6548923;None;;;;;Emoconpilot032;2021_Oct_27_1337;BackwardMask;2020.2.8;120.1271906699742;
;f;012_o_f_s_a.jpg;sad;7;33;m;033_o_m_s_a.jpg;sad;congruent;7;mismatch;;130;160;;2;148;block2_Pilot_2;12;s_s;s_s_weak;;;;;0;1;1;1;0;54;54;54;;;;;;;;;1220.6555105000007;None;1221.8916140000001;1222.1891463000002;1222.1891463000002;1222.2056689;1222.2056689;1222.2466207000007;1222.2466207000007;None;None;0;;1222.2466207000007;None;1223.7467912000002;None;['9'];[0.32070700000076613];1223.7467912000002;None;;;;;Emoconpilot032;2021_Oct_27_1337;BackwardMask;2020.2.8;120.1271906699742;
;f;030_o_f_s_a.jpg;sad;7;40;f;040_y_f_s_a.jpg;sad;congruent;7;match;;130;160;;3;136;block2_Pilot_2;30;s_s;s_s_strong;;;;;0;1;1;1;0;55;55;55;;;;;;;;;1226.7475647;None;1227.9020197999998;1228.1981235000003;1228.1981235000003;1228.2224808;1228.2224808;1228.2633538;1228.2633538;None;8;0;0.5800085000000763;1228.2633538;None;1229.7634060999999;None;['8'];[0.456113500000356];1229.7634060999999;None;;;;;Emoconpilot032;2021_Oct_27_1337;BackwardMask;2020.2.8;120.1271906699742;
;m;027_o_m_s_a.jpg;sad;7;28;f;028_y_f_h_a.jpg;happy;incongruent;9;mismatch;;130;150;;1;238;block2_Pilot_2;27;s_h;s_h_weak;;;;;0;1;1;1;0;56;56;56;;;;;;;;;1232.7636729000005;None;1234.7547062000003;1235.0479834000007;1235.0479834000007;1235.0560541000004;1235.0560541000004;1235.0968815000006;1235.0968815000006;None;None;0;;1235.0968815000006;None;1236.5968452000006;None;['9'];[0.454563600000256];1236.5968452000006;None;;;;;Emoconpilot032;2021_Oct_27_1337;BackwardMask;2020.2.8;120.1271906699742;
;m;004_o_m_n_a.jpg;neutral;8;8;m;008_y_m_s_a.jpg;sad;incongruent;7;match;;140;160;;3;225;block2_Pilot_2;4;n_s;n_s_strong;;;;;0;1;1;1;0;57;57;57;;;;;;;;;1239.5978190000005;None;1241.5103473;1241.8066903;1241.8066903;1241.8312430000005;1241.8312430000005;1241.8718214;1241.8718214;None;8;0;1.1556712000001426;1241.8718214;None;1243.3721323;None;['8'];[0.5913511999997354];1243.3721323;None;;;;;Emoconpilot032;2021_Oct_27_1337;BackwardMask;2020.2.8;120.1271906699742;
;f;012_o_f_s_a.jpg;sad;7;40;f;040_y_f_s_a.jpg;sad;congruent;7;match;;130;160;;1;238;block2_Pilot_2;12;s_s;s_s_strong;;;;;0;1;1;1;0;58;58;58;;;;;;;;;1246.3730831000003;None;1248.3597158000002;1248.6564163000003;1248.6564163000003;1248.6645576;1248.6645576;1248.7055931000004;1248.7055931000004;None;None;0;;1248.7055931000004;None;1250.2053528000006;None;['9'];[0.43004889999974694];1250.2053528000006;None;;;;;Emoconpilot032;2021_Oct_27_1337;BackwardMask;2020.2.8;120.1271906699742;
;f;021_o_f_h_a.jpg;happy;9;4;m;004_o_m_n_a.jpg;neutral;incongruent;8;mismatch;;120;170;;1;238;block2_Pilot_2;21;h_n;h_n_weak;;;;;0;1;1;1;0;59;59;59;;;;;;;;;1253.2056878000003;None;1255.2107517000004;1255.5071034000002;1255.5071034000002;1255.5147776000003;1255.5147776000003;1255.5556468000004;1255.5556468000004;None;None;0;;1255.5556468000004;None;1257.0555063000002;None;['9'];[0.35600309999972524];1257.0555063000002;None;;;;;Emoconpilot032;2021_Oct_27_1337;BackwardMask;2020.2.8;120.1271906699742;
;f;040_y_f_h_a.jpg;happy;9;16;m;016_y_m_n_a.jpg;neutral;incongruent;8;mismatch;;120;170;;2;154;block2_Pilot_2;40;h_n;h_n_weak;;;;;0;1;1;1;0;60;60;60;;;;;;;;;1260.0566431000007;None;1261.3469679;1261.6400646000002;1261.6400646000002;1261.6565471000004;1261.6565471000004;1261.6973873000006;1261.6973873000006;None;None;0;;1261.6973873000006;None;1263.1976266000001;None;['9'];[0.6539121999994677];1263.1976266000001;None;;;;;Emoconpilot032;2021_Oct_27_1337;BackwardMask;2020.2.8;120.1271906699742;
;m;008_y_m_n_a.jpg;neutral;8;4;m;004_o_m_s_a.jpg;sad;incongruent;7;match;;140;160;;18;145;block2_Pilot_2;8;n_s;n_s_strong;;;;;0;1;1;1;0;61;61;61;;;;;;;;;1266.1974937000005;None;1267.4375166999998;1267.7322734;1267.7322734;1267.8815355000006;1267.8815355000006;1267.9225686999998;1267.9225686999998;None;8;0;0.3929623999993055;1267.9225686999998;None;1269.4224098000004;None;['7'];[0.8689067000004798];1269.4224098000004;None;;;;;Emoconpilot032;2021_Oct_27_1337;BackwardMask;2020.2.8;120.1271906699742;
;f;021_o_f_s_a.jpg;sad;7;33;m;033_o_m_h_a.jpg;happy;incongruent;9;mismatch;;130;150;;1;238;block2_Pilot_2;21;s_h;s_h_strong;;;;;0;1;1;1;0;62;62;62;;;;;;;;;1272.4226888000003;None;1274.4131940000007;1274.7068925000003;1274.7068925000003;1274.7151251000005;1274.7151251000005;1274.7559631000004;1274.7559631000004;None;None;0;;1274.7559631000004;None;1276.2559731000001;None;['9'];[0.3075281999999788];1276.2559731000001;None;;;;;Emoconpilot032;2021_Oct_27_1337;BackwardMask;2020.2.8;120.1271906699742;
;m;033_o_m_n_a.jpg;neutral;8;30;f;030_o_f_h_a.jpg;happy;incongruent;9;mismatch;;140;150;;18;171;block2_Pilot_2;33;n_h;n_h_weak;;;;;0;1;1;1;0;63;63;63;;;;;;;;;1279.2566843000004;None;1280.702531;1280.9992110000003;1280.9992110000003;1281.1488097000001;1281.1488097000001;1281.1896362000007;1281.1896362000007;None;8;0;0.37385380000068835;1281.1896362000007;None;1282.6894297;None;['7'];[0.4020553000000291];1282.6894297;None;;;;;Emoconpilot032;2021_Oct_27_1337;BackwardMask;2020.2.8;120.1271906699742;
;m;027_o_m_n_a.jpg;neutral;8;27;m;027_o_m_h_a.jpg;happy;incongruent;9;match;;140;150;;2;164;block2_Pilot_2;27;n_h;n_h_weak;;;;;0;1;1;1;0;64;64;64;;;;;;;;;1285.6903865000004;None;1287.0756676;1287.3659570999998;1287.3659570999998;1287.3819601000005;1287.3819601000005;1287.4229511000003;1287.4229511000003;None;None;0;;1287.4229511000003;None;1288.9228790000006;None;['9'];[0.5526899999995294];1288.9228790000006;None;;;;;Emoconpilot032;2021_Oct_27_1337;BackwardMask;2020.2.8;120.1271906699742;
;m;008_y_m_n_a.jpg;neutral;8;40;f;040_y_f_n_a.jpg;neutral;congruent;8;mismatch;;140;170;;1;238;block2_Pilot_2;8;n_n;n_n_strong;;;;;0;1;1;1;0;65;65;65;;;;;;;;;1291.9230764000004;None;1293.9265888999998;1294.2160408999998;1294.2160408999998;1294.2238112000005;1294.2238112000005;1294.2647514999999;1294.2647514999999;None;None;0;;1294.2647514999999;None;1295.7649023000004;None;['9'];[0.34243269999933545];1295.7649023000004;None;;;;;Emoconpilot032;2021_Oct_27_1337;BackwardMask;2020.2.8;120.1271906699742;
;f;040_y_f_h_a.jpg;happy;9;21;f;021_o_f_n_a.jpg;neutral;incongruent;8;match;;120;170;;18;239;block2_Pilot_2;40;h_n;h_n_strong;;;;;0;1;1;1;0;66;66;66;;;;;;;;;1298.7648710000003;None;1300.7655015999999;1301.0575489000003;1301.0575489000003;1301.2073618000004;1301.2073618000004;1301.2480936000002;1301.2480936000002;None;9;0;0.4513514000000214;1301.2480936000002;None;1302.7482962000004;None;['7'];[0.4071653000000879];1302.7482962000004;None;;;;;Emoconpilot032;2021_Oct_27_1337;BackwardMask;2020.2.8;120.1271906699742;
;f;021_o_f_s_a.jpg;sad;7;28;f;028_y_f_h_a.jpg;happy;incongruent;9;match;;130;150;;1;238;block2_Pilot_2;21;s_h;s_h_weak;;;;;0;1;1;1;0;67;67;67;;;;;;;;;1305.7486901000002;None;1307.7382413000005;1308.0326765;1308.0326765;1308.0408990000005;1308.0408990000005;1308.0816094000002;1308.0816094000002;None;None;0;;1308.0816094000002;None;1309.5817494000003;None;['9'];[0.3817170000002079];1309.5817494000003;None;;;;;Emoconpilot032;2021_Oct_27_1337;BackwardMask;2020.2.8;120.1271906699742;
;f;021_o_f_n_a.jpg;neutral;8;30;f;030_o_f_n_a.jpg;neutral;congruent;8;match;;140;170;;2;209;block2_Pilot_2;21;n_n;n_n_strong;;;;;0;1;1;1;0;68;68;68;;;;;;;;;1312.5819455;None;1314.3635771;1314.6583221;1314.6583221;1314.6742494999999;1314.6742494999999;1314.7151278000001;1314.7151278000001;None;8;1;0.5923478000004252;1314.7151278000001;None;1316.2159401;None;['7'];[0.7716307000000597];1316.2159401;None;;;;;Emoconpilot032;2021_Oct_27_1337;BackwardMask;2020.2.8;120.1271906699742;
;f;040_y_f_s_a.jpg;sad;7;13;m;013_y_m_s_a.jpg;sad;congruent;7;mismatch;;130;160;;3;147;block2_Pilot_2;40;s_s;s_s_strong;;;;;0;1;1;1;0;69;69;69;;;;;;;;;1319.2154816000002;None;1320.4481657000006;1320.7414055;1320.7414055;1320.7659285;1320.7659285;1320.8068727;1320.8068727;None;8;0;0.5566513999992821;1320.8068727;None;1322.3069732000004;None;['8'];[0.2884302000002208];1322.3069732000004;None;;;;;Emoconpilot032;2021_Oct_27_1337;BackwardMask;2020.2.8;120.1271906699742;
;f;040_y_f_s_a.jpg;sad;7;21;f;021_o_f_h_a.jpg;happy;incongruent;9;match;;130;150;;3;172;block2_Pilot_2;40;s_h;s_h_strong;;;;;0;1;1;1;0;70;70;70;;;;;;;;;1325.3069004;None;1326.7472297000004;1327.0413336000001;1327.0413336000001;1327.0660864000001;1327.0660864000001;1327.1069428;1327.1069428;None;7;0;0.8724870999994891;1327.1069428;None;1328.6071732999999;None;['8'];[0.36442079999960697];1328.6071732999999;None;;;;;Emoconpilot032;2021_Oct_27_1337;BackwardMask;2020.2.8;120.1271906699742;
;m;013_y_m_s_a.jpg;sad;7;16;m;016_y_m_n_a.jpg;neutral;incongruent;8;match;;130;170;;1;238;block2_Pilot_2;13;s_n;s_n_strong;;;;;0;1;1;1;0;71;71;71;;;;;;;;;1331.6078185000006;None;1333.5985308;1333.8914803000007;1333.8914803000007;1333.899649;1333.899649;1333.9406581000003;1333.9406581000003;None;None;0;;1333.9406581000003;None;1335.4406063000006;None;['9'];[0.3789580000002388];1335.4406063000006;None;;;;;Emoconpilot032;2021_Oct_27_1337;BackwardMask;2020.2.8;120.1271906699742;
;m;008_y_m_s_a.jpg;sad;7;12;f;012_o_f_h_a.jpg;happy;incongruent;9;mismatch;;130;150;;18;238;block2_Pilot_2;8;s_h;s_h_weak;;;;;0;1;1;1;0;72;72;72;;;;;;;;;1338.4416403000005;None;1340.4462678999998;1340.7419918000005;1340.7419918000005;1340.8914891000004;1340.8914891000004;1340.9323193999999;1340.9323193999999;None;7;0;0.5512842999996792;1340.9323193999999;None;1342.4324427000001;None;['7'];[0.6431452000006175];1342.4324427000001;None;;;;;Emoconpilot032;2021_Oct_27_1337;BackwardMask;2020.2.8;120.1271906699742;
;m;013_y_m_s_a.jpg;sad;7;21;f;021_o_f_n_a.jpg;neutral;incongruent;8;mismatch;;130;170;;1;238;block2_Pilot_2;13;s_n;s_n_weak;;;;;0;1;1;1;0;73;73;73;;;;;;;;;1345.4324526;None;1347.4250438;1347.7167547;1347.7167547;1347.7250701000003;1347.7250701000003;1347.7658802000005;1347.7658802000005;None;None;0;;1347.7658802000005;None;1349.2657153999999;None;['9'];[0.38564339999993535];1349.2657153999999;None;;;;;Emoconpilot032;2021_Oct_27_1337;BackwardMask;2020.2.8;120.1271906699742;
;f;019_m_f_s_a.jpg;sad;7;12;f;012_o_f_n_a.jpg;neutral;incongruent;8;match;;130;170;;2;208;block2_Pilot_2;19;s_n;s_n_weak;;;;;0;1;1;1;0;74;74;74;;;;;;;;;1352.2663814000007;None;1354.0195976000005;1354.3091140000006;1354.3091140000006;1354.3250268000002;1354.3250268000002;1354.3658187;1354.3658187;None;None;0;;1354.3658187;None;1355.866008;None;['9'];[0.40930980000030104];1355.866008;None;;;;;Emoconpilot032;2021_Oct_27_1337;BackwardMask;2020.2.8;120.1271906699742;
