Person;primeGender;prime;primeEmotion;corrAnsPrime;targetPerson;targetGender;target;targetEmotion;Cond;corrAnsTar;gender;condition;ID_primer;ID_target;PrimerTime;PrimerTime120;JitterTime;conditionsFile;primePerson;emotion_condition;Condition;example.thisRepN;example.thisTrialN;example.thisN;example.thisIndex;readinBlocks.thisRepN;readinBlocks.thisTrialN;readinBlocks.thisN;readinBlocks.thisIndex;trials.thisRepN;trials.thisTrialN;trials.thisN;trials.thisIndex;text_intro.started;text_intro.stopped;text_probe.started;text_probe.stopped;key_resp_2.keys;key_resp_2.rt;key_resp_2.started;key_resp_2.stopped;polygon_ISI.started;polygon_ISI.stopped;polygon.started;polygon.stopped;primerImage.started;primerImage.stopped;maskImage.started;maskImage.stopped;response.started;response.stopped;key_resp.keys;key_resp.corr;key_resp.rt;key_resp.started;key_resp.stopped;text.started;text.stopped;key_resp_Rating.keys;key_resp_Rating.rt;key_resp_Rating.started;key_resp_Rating.stopped;text_start.started;text_start.stopped;text_pause.started;text_pause.stopped;text_ende.started;text_ende.stopped;participant;date;expName;psychopyVersion;frameRate;
;;;;;;;;;;;;;;;;;;;;;;;;;;;;;;;;;;18.332937700000002;23.30411359999971;23.30411359999971;None;7;15.20843190000005;18.332937700000002;None;;;;;;;;;;;;;;;;;;;;;;;;;;;;Emoconpilot046;2022_Jan_07_1217;BackwardMask;2020.2.8;120.1534599994396;
2;f;1113_y_f_s_a.jpg;sad;7;1;m;1111_m_m_h_a.jpg;happy;incongruent;9;mix;s+h;130;150;1;2;148;;;;;0;0;0;0;;;;;;;;;;;;;;;;;33.617691099999774;None;34.88518339999973;35.203327199999876;35.203327199999876;35.23655239999971;35.23655239999971;35.26943839999967;35.26943839999967;None;7;0;0.8718549999998686;35.26943839999967;None;36.77094609999995;None;['8'];[1.578339600000163];36.77094609999995;None;;;;;;;Emoconpilot046;2022_Jan_07_1217;BackwardMask;2020.2.8;120.1534599994396;
2;f;1111_m_m_h_a.jpg;happy;9;3;f;1113_y_f_s_a.jpg;sad;incongruent;7;mix;h+s;120;160;9;18;195;;;;;0;1;1;1;;;;;;;;;;;;;;;;;39.770712699999876;None;41.4213321999996;41.713158699999894;41.713158699999894;41.86247119999962;41.86247119999962;41.90328479999971;41.90328479999971;None;9;0;0.902104799999961;41.90328479999971;None;43.40381499999967;None;['7'];[1.137519500000053];43.40381499999967;None;;;;;;;Emoconpilot046;2022_Jan_07_1217;BackwardMask;2020.2.8;120.1534599994396;
2;f;1112_m_f_n_a.jpg;neutral;8;2;f;1112_m_f_n_a.jpg;neutral;congruent;8;match;n+n;140;170;9;18;134;;;;;0;2;2;2;;;;;;;;;;;;;;;;;46.40439049999986;None;47.54601579999962;47.83822959999998;47.83822959999998;47.987731599999734;47.987731599999734;48.02838380000003;48.02838380000003;None;8;1;0.8091620000000148;48.02838380000003;None;49.52863639999987;None;['7'];[0.3488514999999097];49.52863639999987;None;;;;;;;Emoconpilot046;2022_Jan_07_1217;BackwardMask;2020.2.8;120.1534599994396;
;m;033_o_m_h_a.jpg;happy;9;30;f;030_o_f_n_a.jpg;neutral;incongruent;8;mismatch;;120;170;;18;238;block1_Pilot_2;33;h_n;h_n_strong;;;;;0;0;0;0;0;0;0;0;;;;;;;;;53.573787999999695;None;55.56454489999987;55.854773699999896;55.854773699999896;56.0044997;56.0044997;56.04518829999961;56.04518829999961;None;9;0;0.7602067000002535;56.04518829999961;None;57.54613139999992;None;['7'];[0.33937169999990147];57.54613139999992;None;52.52912259999994;None;None;None;;;Emoconpilot046;2022_Jan_07_1217;BackwardMask;2020.2.8;120.1534599994396;
;m;004_o_m_h_a.jpg;happy;9;12;f;012_o_f_h_a.jpg;happy;congruent;9;mismatch;;120;150;;2;218;block1_Pilot_2;4;h_h;h_h_weak;;;;;0;0;0;0;0;1;1;1;;;;;;;;;60.546084099999916;None;62.40324049999981;62.69675649999999;62.69675649999999;62.712856699999975;62.712856699999975;62.75382300000001;62.75382300000001;None;None;0;;62.75382300000001;None;64.25383729999976;None;['9'];[0.583617399999639];64.25383729999976;None;;;;;;;Emoconpilot046;2022_Jan_07_1217;BackwardMask;2020.2.8;120.1534599994396;
;f;012_o_f_h_a.jpg;happy;9;33;m;033_o_m_h_a.jpg;happy;congruent;9;mismatch;;120;150;;2;140;block1_Pilot_2;12;h_h;h_h_weak;;;;;0;0;0;0;0;2;2;2;;;;;;;;;67.25471959999959;None;68.4286503999997;68.72160080000003;68.72160080000003;68.73802799999976;68.73802799999976;68.77869859999964;68.77869859999964;None;9;1;0.5787467999998626;68.77869859999964;None;70.27888529999973;None;['8'];[0.23831160000008822];70.27888529999973;None;;;;;;;Emoconpilot046;2022_Jan_07_1217;BackwardMask;2020.2.8;120.1534599994396;
;f;040_y_f_n_a.jpg;neutral;8;40;f;040_y_f_h_a.jpg;happy;incongruent;9;match;;140;150;;2;192;block1_Pilot_2;40;n_h;n_h_weak;;;;;0;0;0;0;0;3;3;3;;;;;;;;;73.27906609999991;None;74.90907040000002;75.20535249999966;75.20535249999966;75.22148249999964;75.22148249999964;75.26226449999967;75.26226449999967;None;None;0;;75.26226449999967;None;76.7623435999999;None;['9'];[0.3471118999996179];76.7623435999999;None;;;;;;;Emoconpilot046;2022_Jan_07_1217;BackwardMask;2020.2.8;120.1534599994396;
;m;013_y_m_s_a.jpg;sad;7;16;m;016_y_m_n_a.jpg;neutral;incongruent;8;match;;130;170;;3;155;block1_Pilot_2;13;s_n;s_n_weak;;;;;0;0;0;0;0;4;4;4;;;;;;;;;79.76260460000003;None;81.06247919999987;81.3555225;81.3555225;81.38006869999981;81.38006869999981;81.42089559999977;81.42089559999977;None;7;0;0.6963263000002371;81.42089559999977;None;82.92080420000002;None;['8'];[0.24461220000011963];82.92080420000002;None;;;;;;;Emoconpilot046;2022_Jan_07_1217;BackwardMask;2020.2.8;120.1534599994396;
;f;012_o_f_h_a.jpg;happy;9;21;f;021_o_f_h_a.jpg;happy;congruent;9;match;;120;150;;2;216;block1_Pilot_2;12;h_h;h_h_strong;;;;;0;0;0;0;0;5;5;5;;;;;;;;;85.92210269999987;None;87.72890149999967;88.02174209999976;88.02174209999976;88.03853249999975;88.03853249999975;88.07944029999999;88.07944029999999;None;9;1;0.8059627000002365;88.07944029999999;None;89.58005049999974;None;['8'];[0.3053957000001901];89.58005049999974;None;;;;;;;Emoconpilot046;2022_Jan_07_1217;BackwardMask;2020.2.8;120.1534599994396;
;f;040_y_f_s_a.jpg;sad;7;40;f;040_y_f_h_a.jpg;happy;incongruent;9;match;;130;150;;1;238;block1_Pilot_2;40;s_h;s_h_weak;;;;;0;0;0;0;0;6;6;6;;;;;;;;;92.5801406999999;None;94.57091939999964;94.86381729999994;94.86381729999994;94.87205219999987;94.87205219999987;94.91274619999967;94.91274619999967;None;None;0;;94.91274619999967;None;96.41266649999989;None;['9'];[0.3927327999999761];96.41266649999989;None;;;;;;;Emoconpilot046;2022_Jan_07_1217;BackwardMask;2020.2.8;120.1534599994396;
;m;033_o_m_n_a.jpg;neutral;8;27;m;027_o_m_n_a.jpg;neutral;congruent;8;match;;140;170;;18;238;block1_Pilot_2;33;n_n;n_n_weak;;;;;0;0;0;0;0;7;7;7;;;;;;;;;99.41423859999986;None;101.42656709999983;101.7225454999998;101.7225454999998;101.87217059999966;101.87217059999966;101.9129326999996;101.9129326999996;None;8;1;0.6843310999997811;101.9129326999996;None;103.41384689999995;None;['7'];[0.38367609999977503];103.41384689999995;None;;;;;;;Emoconpilot046;2022_Jan_07_1217;BackwardMask;2020.2.8;120.1534599994396;
;f;040_y_f_h_a.jpg;happy;9;19;f;019_m_f_n_a.jpg;neutral;incongruent;8;match;;120;170;;1;238;block1_Pilot_2;40;h_n;h_n_strong;;;;;0;0;0;0;0;8;8;8;;;;;;;;;106.41381969999975;None;108.4044144999998;108.69740060000004;108.69740060000004;108.70566699999972;108.70566699999972;108.74638359999972;108.74638359999972;None;None;0;;108.74638359999972;None;110.24631239999962;None;['9'];[0.5031452999996873];110.24631239999962;None;;;;;;;Emoconpilot046;2022_Jan_07_1217;BackwardMask;2020.2.8;120.1534599994396;
;m;013_y_m_h_a.jpg;happy;9;12;f;012_o_f_s_a.jpg;sad;incongruent;7;mismatch;;120;160;;3;198;block1_Pilot_2;13;h_s;h_s_weak;;;;;0;0;0;0;0;9;9;9;;;;;;;;;113.24732619999986;None;114.93042709999963;115.22278329999972;115.22278329999972;115.24718499999972;115.24718499999972;115.28815609999992;115.28815609999992;None;9;0;0.5812983999999233;115.28815609999992;None;116.78811299999961;None;['7'];[0.3533209000001989];116.78811299999961;None;;;;;;;Emoconpilot046;2022_Jan_07_1217;BackwardMask;2020.2.8;120.1534599994396;
;m;008_y_m_h_a.jpg;happy;9;4;m;004_o_m_n_a.jpg;neutral;incongruent;8;match;;120;170;;18;150;block1_Pilot_2;8;h_n;h_n_strong;;;;;0;0;0;0;0;10;10;10;;;;;;;;;119.7892695999999;None;121.0457865999997;121.33956089999992;121.33956089999992;121.4889435;121.4889435;121.5299301;121.5299301;None;9;0;0.41960759999983566;121.5299301;None;123.03015449999975;None;['7'];[0.3032642999996824];123.03015449999975;None;;;;;;;Emoconpilot046;2022_Jan_07_1217;BackwardMask;2020.2.8;120.1534599994396;
;f;019_m_f_h_a.jpg;happy;9;27;m;027_o_m_s_a.jpg;sad;incongruent;7;mismatch;;120;160;;1;238;block1_Pilot_2;19;h_s;h_s_weak;;;;;0;0;0;0;0;11;11;11;;;;;;;;;126.03008950000003;None;128.02157659999966;128.31437329999972;128.31437329999972;128.3226639999998;128.3226639999998;128.3634864999999;128.3634864999999;None;None;0;;128.3634864999999;None;129.86342579999973;None;['9'];[0.486017400000037];129.86342579999973;None;;;;;;;Emoconpilot046;2022_Jan_07_1217;BackwardMask;2020.2.8;120.1534599994396;
;m;016_y_m_s_a.jpg;sad;7;4;m;004_o_m_s_a.jpg;sad;congruent;7;match;;130;160;;18;142;block1_Pilot_2;16;s_s;s_s_strong;;;;;0;0;0;0;0;12;12;12;;;;;;;;;132.8643632999997;None;134.05558459999975;134.34795469999972;134.34795469999972;134.49773179999966;134.49773179999966;134.53864309999972;134.53864309999972;None;7;1;0.7228035999996791;134.53864309999972;None;136.03849889999992;None;['7'];[0.31084629999986646];136.03849889999992;None;;;;;;;Emoconpilot046;2022_Jan_07_1217;BackwardMask;2020.2.8;120.1534599994396;
;f;021_o_f_n_a.jpg;neutral;8;21;f;021_o_f_h_a.jpg;happy;incongruent;9;match;;140;150;;3;171;block1_Pilot_2;21;n_h;n_h_weak;;;;;0;0;0;0;0;13;13;13;;;;;;;;;139.0390127999999;None;140.48568449999993;140.7817181999999;140.7817181999999;140.8061958999997;140.8061958999997;140.8469745999996;140.8469745999996;None;8;0;0.662411300000258;140.8469745999996;None;142.34695769999962;None;['7'];[0.3465515000002597];142.34695769999962;None;;;;;;;Emoconpilot046;2022_Jan_07_1217;BackwardMask;2020.2.8;120.1534599994396;
;f;012_o_f_h_a.jpg;happy;9;13;m;013_y_m_h_a.jpg;happy;congruent;9;mismatch;;120;150;;3;213;block1_Pilot_2;12;h_h;h_h_weak;;;;;0;0;0;0;0;14;14;14;;;;;;;;;145.34793330000002;None;147.12999869999976;147.42314689999967;147.42314689999967;147.44795639999984;147.44795639999984;147.4887721;147.4887721;None;9;1;0.5166414000000259;147.4887721;None;148.98884599999974;None;['7'];[0.31255070000042906];148.98884599999974;None;;;;;;;Emoconpilot046;2022_Jan_07_1217;BackwardMask;2020.2.8;120.1534599994396;
;f;021_o_f_s_a.jpg;sad;7;27;m;027_o_m_n_a.jpg;neutral;incongruent;8;mismatch;;130;170;;3;174;block1_Pilot_2;21;s_n;s_n_weak;;;;;0;0;0;0;0;15;15;15;;;;;;;;;151.99031549999972;None;153.44544189999988;153.7398737999997;153.7398737999997;153.76474229999985;153.76474229999985;153.80562650000002;153.80562650000002;None;8;1;1.0317623000000822;153.80562650000002;None;155.30562220000002;None;['8'];[0.26772299999993265];155.30562220000002;None;;;;;;;Emoconpilot046;2022_Jan_07_1217;BackwardMask;2020.2.8;120.1534599994396;
;f;019_m_f_n_a.jpg;neutral;8;19;f;019_m_f_h_a.jpg;happy;incongruent;9;match;;140;150;;3;238;block1_Pilot_2;19;n_h;n_h_weak;;;;;0;0;0;0;0;16;16;16;;;;;;;;;158.3064675999999;None;160.31066659999988;160.60703019999983;160.60703019999983;160.63154529999974;160.63154529999974;160.67244449999998;160.67244449999998;None;None;0;;160.67244449999998;None;162.17261569999982;None;['9'];[0.7206105000000207];162.17261569999982;None;;;;;;;Emoconpilot046;2022_Jan_07_1217;BackwardMask;2020.2.8;120.1534599994396;
;f;028_y_f_n_a.jpg;neutral;8;30;f;030_o_f_s_a.jpg;sad;incongruent;7;match;;140;160;;18;219;block1_Pilot_2;28;n_s;n_s_weak;;;;;0;0;0;0;0;17;17;17;;;;;;;;;165.17346409999982;None;167.0169318999997;167.30726269999968;167.30726269999968;167.45667009999988;167.45667009999988;167.49756909999996;167.49756909999996;None;8;0;0.4437133999999787;167.49756909999996;None;168.99745249999978;None;['7'];[0.2800157000001491];168.99745249999978;None;;;;;;;Emoconpilot046;2022_Jan_07_1217;BackwardMask;2020.2.8;120.1534599994396;
;m;008_y_m_h_a.jpg;happy;9;8;m;008_y_m_s_a.jpg;sad;incongruent;7;match;;120;160;;3;176;block1_Pilot_2;8;h_s;h_s_weak;;;;;0;0;0;0;0;18;18;18;;;;;;;;;171.99766779999982;None;173.47257479999962;173.7652475;173.7652475;173.79039779999994;173.79039779999994;173.83103699999992;173.83103699999992;None;9;0;0.5022942999999032;173.83103699999992;None;175.3309890999999;None;['7'];[0.3063486000000921];175.3309890999999;None;;;;;;;Emoconpilot046;2022_Jan_07_1217;BackwardMask;2020.2.8;120.1534599994396;
;f;019_m_f_h_a.jpg;happy;9;33;m;033_o_m_n_a.jpg;neutral;incongruent;8;mismatch;;120;170;;18;136;block1_Pilot_2;19;h_n;h_n_weak;;;;;0;0;0;0;0;19;19;19;;;;;;;;;178.33254279999983;None;179.47245799999973;179.76547919999985;179.76547919999985;179.9152522999998;179.9152522999998;179.95621889999984;179.95621889999984;None;9;0;0.4172211999998581;179.95621889999984;None;181.45618709999962;None;['7'];[0.35713480000003983];181.45618709999962;None;;;;;;;Emoconpilot046;2022_Jan_07_1217;BackwardMask;2020.2.8;120.1534599994396;
;m;013_y_m_n_a.jpg;neutral;8;12;f;012_o_f_s_a.jpg;sad;incongruent;7;mismatch;;140;160;;2;132;block1_Pilot_2;13;n_s;n_s_strong;;;;;0;0;0;0;0;20;20;20;;;;;;;;;184.456995;None;185.57741709999982;185.86623669999972;185.86623669999972;185.8824439;185.8824439;185.9227047999998;185.9227047999998;None;8;0;0.7066737999998622;185.9227047999998;None;187.42292269999962;None;['8'];[0.4144420999996328];187.42292269999962;None;;;;;;;Emoconpilot046;2022_Jan_07_1217;BackwardMask;2020.2.8;120.1534599994396;
;f;040_y_f_s_a.jpg;sad;7;8;m;008_y_m_h_a.jpg;happy;incongruent;9;mismatch;;130;150;;2;175;block1_Pilot_2;40;s_h;s_h_weak;;;;;0;0;0;0;0;21;21;21;;;;;;;;;190.4235819999999;None;191.89101859999982;192.1841741999997;192.1841741999997;192.19880149999972;192.19880149999972;192.23930599999994;192.23930599999994;None;None;0;;192.23930599999994;None;193.73992109999972;None;['9'];[0.3373068000000785];193.73992109999972;None;;;;;;;Emoconpilot046;2022_Jan_07_1217;BackwardMask;2020.2.8;120.1534599994396;
;m;004_o_m_h_a.jpg;happy;9;40;f;040_y_f_s_a.jpg;sad;incongruent;7;mismatch;;120;160;;2;193;block1_Pilot_2;4;h_s;h_s_weak;;;;;0;0;0;0;0;22;22;22;;;;;;;;;196.74058699999978;None;198.37628670000004;198.66621450000002;198.66621450000002;198.6823671999996;198.6823671999996;198.7230927999999;198.7230927999999;None;None;0;;198.7230927999999;None;200.2233529;None;['9'];[0.350141800000074];200.2233529;None;;;;;;;Emoconpilot046;2022_Jan_07_1217;BackwardMask;2020.2.8;120.1534599994396;
;f;028_y_f_s_a.jpg;sad;7;13;m;013_y_m_n_a.jpg;neutral;incongruent;8;mismatch;;130;170;;2;126;block1_Pilot_2;28;s_n;s_n_weak;;;;;0;0;0;0;0;23;23;23;;;;;;;;;203.2232310999998;None;204.28547509999999;204.5742736999996;204.5742736999996;204.59089069999982;204.59089069999982;204.63159129999985;204.63159129999985;None;8;1;1.0058185000002595;204.63159129999985;None;206.1315983999998;None;['8'];[0.24989100000038889];206.1315983999998;None;;;;;;;Emoconpilot046;2022_Jan_07_1217;BackwardMask;2020.2.8;120.1534599994396;
;m;004_o_m_h_a.jpg;happy;9;40;f;040_y_f_n_a.jpg;neutral;incongruent;8;mismatch;;120;170;;3;146;block1_Pilot_2;4;h_n;h_n_strong;;;;;0;0;0;0;0;24;24;24;;;;;;;;;209.13285099999985;None;210.36909100000003;210.65807809999978;210.65807809999978;210.68267129999958;210.68267129999958;210.72322329999997;210.72322329999997;None;9;0;0.6179806999998618;210.72322329999997;None;212.22356189999982;None;['7'];[0.3256914000003235];212.22356189999982;None;;;;;;;Emoconpilot046;2022_Jan_07_1217;BackwardMask;2020.2.8;120.1534599994396;
;m;008_y_m_s_a.jpg;sad;7;30;f;030_o_f_n_a.jpg;neutral;incongruent;8;mismatch;;130;170;;3;132;block1_Pilot_2;8;s_n;s_n_strong;;;;;0;0;0;0;0;25;25;25;;;;;;;;;215.22421959999974;None;216.34278499999982;216.63318059999983;216.63318059999983;216.65766859999985;216.65766859999985;216.69858009999962;216.69858009999962;None;7;0;0.5466885999999249;216.69858009999962;None;218.1985568;None;['7'];[0.2627913000001172];218.1985568;None;;;;;;;Emoconpilot046;2022_Jan_07_1217;BackwardMask;2020.2.8;120.1534599994396;
;f;040_y_f_n_a.jpg;neutral;8;40;f;040_y_f_s_a.jpg;sad;incongruent;7;match;;140;160;;2;123;block1_Pilot_2;40;n_s;n_s_weak;;;;;0;0;0;0;0;26;26;26;;;;;;;;;221.19952889999968;None;222.24285999999984;222.5333768999999;222.5333768999999;222.54947730000004;222.54947730000004;222.5904343999996;222.5904343999996;None;None;0;;222.5904343999996;None;224.09024060000002;None;['9'];[0.31523539999989225];224.09024060000002;None;;;;;;;Emoconpilot046;2022_Jan_07_1217;BackwardMask;2020.2.8;120.1534599994396;
;f;028_y_f_s_a.jpg;sad;7;27;m;027_o_m_s_a.jpg;sad;congruent;7;mismatch;;130;160;;3;159;block1_Pilot_2;28;s_s;s_s_weak;;;;;0;0;0;0;0;27;27;27;;;;;;;;;227.09119789999977;None;228.4424538999997;228.73304879999978;228.73304879999978;228.75776399999995;228.75776399999995;228.79850069999975;228.79850069999975;None;8;0;1.2868109000000914;228.79850069999975;None;230.2987745999999;None;['8'];[0.5464308000000528];230.2987745999999;None;;;;;;;Emoconpilot046;2022_Jan_07_1217;BackwardMask;2020.2.8;120.1534599994396;
;f;012_o_f_s_a.jpg;sad;7;27;m;027_o_m_s_a.jpg;sad;congruent;7;mismatch;;130;160;;18;166;block1_Pilot_2;12;s_s;s_s_weak;;;;;0;0;0;0;0;28;28;28;;;;;;;;;233.29977059999965;None;234.69014949999973;234.98320339999964;234.98320339999964;235.1330842999996;235.1330842999996;235.17396299999973;235.17396299999973;None;7;1;0.47126570000000356;235.17396299999973;None;236.6742548999996;None;['7'];[0.27502929999991466];236.6742548999996;None;;;;;;;Emoconpilot046;2022_Jan_07_1217;BackwardMask;2020.2.8;120.1534599994396;
;f;028_y_f_n_a.jpg;neutral;8;28;f;028_y_f_h_a.jpg;happy;incongruent;9;match;;140;150;;2;186;block1_Pilot_2;28;n_h;n_h_weak;;;;;0;0;0;0;0;29;29;29;;;;;;;;;239.6748617999997;None;241.30883259999973;241.6002443999996;241.6002443999996;241.61647959999982;241.61647959999982;241.65734429999975;241.65734429999975;None;8;0;0.7000645999996777;241.65734429999975;None;243.15722189999997;None;['8'];[0.26407579999977315];243.15722189999997;None;;;;;;;Emoconpilot046;2022_Jan_07_1217;BackwardMask;2020.2.8;120.1534599994396;
;m;027_o_m_n_a.jpg;neutral;8;16;m;016_y_m_n_a.jpg;neutral;congruent;8;match;;140;170;;2;188;block1_Pilot_2;27;n_n;n_n_weak;;;;;0;0;0;0;0;30;30;30;;;;;;;;;246.1573374999998;None;247.74749459999975;248.04222549999986;248.04222549999986;248.05807539999978;248.05807539999978;248.09919149999996;248.09919149999996;None;None;0;;248.09919149999996;None;249.59928199999968;None;['9'];[0.4860917999999401];249.59928199999968;None;;;;;;;Emoconpilot046;2022_Jan_07_1217;BackwardMask;2020.2.8;120.1534599994396;
;f;012_o_f_s_a.jpg;sad;7;13;m;013_y_m_n_a.jpg;neutral;incongruent;8;mismatch;;130;170;;3;162;block1_Pilot_2;12;s_n;s_n_strong;;;;;0;0;0;0;0;31;31;31;;;;;;;;;252.6003111;None;253.95396749999964;254.25019350000002;254.25019350000002;254.27483249999977;254.27483249999977;254.3160058999997;254.3160058999997;None;None;0;;254.3160058999997;None;255.8160780999997;None;['9'];[0.30924610000010944];255.8160780999997;None;;;;;;;Emoconpilot046;2022_Jan_07_1217;BackwardMask;2020.2.8;120.1534599994396;
;f;012_o_f_s_a.jpg;sad;7;16;m;016_y_m_h_a.jpg;happy;incongruent;9;mismatch;;130;150;;1;238;block1_Pilot_2;12;s_h;s_h_strong;;;;;0;0;0;0;0;32;32;32;;;;;;;;;258.8171137999998;None;260.8029465999998;261.1004303999998;261.1004303999998;261.1085942999998;261.1085942999998;261.14943519999997;261.14943519999997;None;None;0;;261.14943519999997;None;262.6495157999998;None;['9'];[0.37972209999998086];262.6495157999998;None;;;;;;;Emoconpilot046;2022_Jan_07_1217;BackwardMask;2020.2.8;120.1534599994396;
;f;028_y_f_n_a.jpg;neutral;8;21;f;021_o_f_n_a.jpg;neutral;congruent;8;match;;140;170;;3;220;block1_Pilot_2;28;n_n;n_n_weak;;;;;0;0;0;0;0;33;33;33;;;;;;;;;265.6508689999996;None;267.5511978999998;267.8425285999997;267.8425285999997;267.8670857999996;267.8670857999996;267.9079806999998;267.9079806999998;None;8;1;0.6573358999999073;267.9079806999998;None;269.40800179999997;None;['7'];[0.3013907999998082];269.40800179999997;None;;;;;;;Emoconpilot046;2022_Jan_07_1217;BackwardMask;2020.2.8;120.1534599994396;
;f;040_y_f_h_a.jpg;happy;9;33;m;033_o_m_s_a.jpg;sad;incongruent;7;mismatch;;120;160;;2;194;block1_Pilot_2;40;h_s;h_s_weak;;;;;0;0;0;0;0;34;34;34;;;;;;;;;272.4079425;None;274.0329142999999;274.32567119999976;274.32567119999976;274.34190179999996;274.34190179999996;274.3830353999997;274.3830353999997;None;None;0;;274.3830353999997;None;275.8833328999999;None;['9'];[0.3298018000000411];275.8833328999999;None;;;;;;;Emoconpilot046;2022_Jan_07_1217;BackwardMask;2020.2.8;120.1534599994396;
;f;028_y_f_h_a.jpg;happy;9;8;m;008_y_m_n_a.jpg;neutral;incongruent;8;mismatch;;120;170;;3;162;block1_Pilot_2;28;h_n;h_n_weak;;;;;0;0;0;0;0;35;35;35;;;;;;;;;278.8839459999999;None;280.2452619999999;280.5341254;280.5341254;280.55881759999966;280.55881759999966;280.5997556999996;280.5997556999996;None;9;0;0.501716100000067;280.5997556999996;None;282.0997937999996;None;['7'];[0.27354409999998097];282.0997937999996;None;;;;;;;Emoconpilot046;2022_Jan_07_1217;BackwardMask;2020.2.8;120.1534599994396;
;m;013_y_m_n_a.jpg;neutral;8;27;m;027_o_m_n_a.jpg;neutral;congruent;8;match;;140;170;;2;126;block1_Pilot_2;13;n_n;n_n_strong;;;;;0;0;0;0;0;36;36;36;;;;;;;;;285.10015599999997;None;286.2281116999998;286.51798029999964;286.51798029999964;286.53427859999965;286.53427859999965;286.57494789999964;286.57494789999964;None;None;0;;286.57494789999964;None;288.0750205999998;None;['9'];[0.3142410000000382];288.0750205999998;None;;;;;;;Emoconpilot046;2022_Jan_07_1217;BackwardMask;2020.2.8;120.1534599994396;
;f;028_y_f_s_a.jpg;sad;7;19;f;019_m_f_n_a.jpg;neutral;incongruent;8;match;;130;170;;2;156;block1_Pilot_2;28;s_n;s_n_strong;;;;;0;0;0;0;0;37;37;37;;;;;;;;;291.0758692999998;None;292.38655679999965;292.6760528;292.6760528;292.69248979999975;292.69248979999975;292.7334428999998;292.7334428999998;None;None;0;;292.7334428999998;None;294.2333956999996;None;['9'];[0.37205479999965974];294.2333956999996;None;;;;;;;Emoconpilot046;2022_Jan_07_1217;BackwardMask;2020.2.8;120.1534599994396;
;m;016_y_m_s_a.jpg;sad;7;19;f;019_m_f_n_a.jpg;neutral;incongruent;8;mismatch;;130;170;;3;138;block1_Pilot_2;16;s_n;s_n_weak;;;;;0;0;0;0;0;38;38;38;;;;;;;;;297.23429499999975;None;298.39359779999995;298.6843979;298.6843979;298.7093568;298.7093568;298.75009729999965;298.75009729999965;None;8;1;0.7512381999999889;298.75009729999965;None;300.2501556999996;None;['8'];[0.24317629999995916];300.2501556999996;None;;;;;;;Emoconpilot046;2022_Jan_07_1217;BackwardMask;2020.2.8;120.1534599994396;
;m;033_o_m_s_a.jpg;sad;7;27;m;027_o_m_n_a.jpg;neutral;incongruent;8;match;;130;170;;3;120;block1_Pilot_2;33;s_n;s_n_strong;;;;;0;0;0;0;0;39;39;39;;;;;;;;;303.251444;None;304.25784780000004;304.5513114999999;304.5513114999999;304.5765757999998;304.5765757999998;304.6168897999996;304.6168897999996;None;8;1;0.6364920000000893;304.6168897999996;None;306.1170245999997;None;['7'];[0.3203353999997489];306.1170245999997;None;;;;;;;Emoconpilot046;2022_Jan_07_1217;BackwardMask;2020.2.8;120.1534599994396;
;f;040_y_f_s_a.jpg;sad;7;33;m;033_o_m_n_a.jpg;neutral;incongruent;8;mismatch;;130;170;;1;238;block1_Pilot_2;40;s_n;s_n_weak;;;;;0;0;0;0;0;40;40;40;;;;;;;;;309.1170520999999;None;311.1099285999999;311.40140889999975;311.40140889999975;311.4096400999997;311.4096400999997;311.4504804999997;311.4504804999997;None;None;0;;311.4504804999997;None;312.9508358999997;None;['9'];[0.42242069999974774];312.9508358999997;None;;;;;;;Emoconpilot046;2022_Jan_07_1217;BackwardMask;2020.2.8;120.1534599994396;
;f;021_o_f_n_a.jpg;neutral;8;19;f;019_m_f_s_a.jpg;sad;incongruent;7;match;;140;160;;1;238;block1_Pilot_2;21;n_s;n_s_strong;;;;;0;0;0;0;0;41;41;41;;;;;;;;;315.95140279999987;None;317.98456739999983;318.2771313999997;318.2771313999997;318.28481029999966;318.28481029999966;318.32547969999996;318.32547969999996;None;None;0;;318.32547969999996;None;319.82559619999984;None;['9'];[0.34770750000006956];319.82559619999984;None;;;;;;;Emoconpilot046;2022_Jan_07_1217;BackwardMask;2020.2.8;120.1534599994396;
;m;033_o_m_h_a.jpg;happy;9;27;m;027_o_m_h_a.jpg;happy;congruent;9;match;;120;150;;3;134;block1_Pilot_2;33;h_h;h_h_weak;;;;;0;0;0;0;0;42;42;42;;;;;;;;;322.8256584999999;None;323.95081379999965;324.24331519999987;324.24331519999987;324.26824880000004;324.26824880000004;324.3090514999999;324.3090514999999;None;9;1;0.5521568999997726;324.3090514999999;None;325.80917769999996;None;['7'];[0.24422940000022209];325.80917769999996;None;;;;;;;Emoconpilot046;2022_Jan_07_1217;BackwardMask;2020.2.8;120.1534599994396;
;f;040_y_f_s_a.jpg;sad;7;4;m;004_o_m_h_a.jpg;happy;incongruent;9;mismatch;;130;150;;2;225;block1_Pilot_2;40;s_h;s_h_strong;;;;;0;0;0;0;0;43;43;43;;;;;;;;;328.8092766;None;330.6912218999996;330.9851349999999;330.9851349999999;331.00150989999975;331.00150989999975;331.0424739;331.0424739;None;8;0;0.6988986000001205;331.0424739;None;332.54359069999964;None;['8'];[0.9257296999999198];332.54359069999964;None;;;;;;;Emoconpilot046;2022_Jan_07_1217;BackwardMask;2020.2.8;120.1534599994396;
;m;027_o_m_s_a.jpg;sad;7;21;f;021_o_f_n_a.jpg;neutral;incongruent;8;mismatch;;130;170;;18;238;block1_Pilot_2;27;s_n;s_n_weak;;;;;0;0;0;0;0;44;44;44;;;;;;;;;335.5434814;None;337.5336980999996;337.82712519999995;337.82712519999995;337.9767686;337.9767686;338.01769749999994;338.01769749999994;None;7;0;0.7955873999999312;338.01769749999994;None;339.5175598999999;None;['7'];[0.24778629999991608];339.5175598999999;None;;;;;;;Emoconpilot046;2022_Jan_07_1217;BackwardMask;2020.2.8;120.1534599994396;
;m;016_y_m_h_a.jpg;happy;9;16;m;016_y_m_n_a.jpg;neutral;incongruent;8;match;;120;170;;3;202;block1_Pilot_2;16;h_n;h_n_weak;;;;;0;0;0;0;0;45;45;45;;;;;;;;;342.5177388999996;None;344.2092226;344.5021509999997;344.5021509999997;344.5269463999998;344.5269463999998;344.5676784999996;344.5676784999996;None;9;0;0.5256751000001714;344.5676784999996;None;346.06774749999977;None;['7'];[0.28952810000009777];346.06774749999977;None;;;;;;;Emoconpilot046;2022_Jan_07_1217;BackwardMask;2020.2.8;120.1534599994396;
;m;033_o_m_h_a.jpg;happy;9;13;m;013_y_m_n_a.jpg;neutral;incongruent;8;match;;120;170;;2;150;block1_Pilot_2;33;h_n;h_n_weak;;;;;0;0;0;0;0;46;46;46;;;;;;;;;349.06865519999974;None;350.3260121999997;350.6189978999996;350.6189978999996;350.6354365999996;350.6354365999996;350.67609509999966;350.67609509999966;None;9;0;0.6492402000003494;350.67609509999966;None;352.1761958999996;None;['8'];[0.25310940000008486];352.1761958999996;None;;;;;;;Emoconpilot046;2022_Jan_07_1217;BackwardMask;2020.2.8;120.1534599994396;
;f;012_o_f_n_a.jpg;neutral;8;16;m;016_y_m_n_a.jpg;neutral;congruent;8;mismatch;;140;170;;1;238;block1_Pilot_2;12;n_n;n_n_strong;;;;;0;0;0;0;0;47;47;47;;;;;;;;;355.17632509999976;None;357.18145189999996;357.47792009999966;357.47792009999966;357.4855556999996;357.4855556999996;357.5264115;357.5264115;None;None;0;;357.5264115;None;359.02716569999984;None;['9'];[0.33012959999996383];359.02716569999984;None;;;;;;;Emoconpilot046;2022_Jan_07_1217;BackwardMask;2020.2.8;120.1534599994396;
;f;040_y_f_n_a.jpg;neutral;8;30;f;030_o_f_h_a.jpg;happy;incongruent;9;match;;140;150;;2;194;block1_Pilot_2;40;n_h;n_h_strong;;;;;0;0;0;0;0;48;48;48;;;;;;;;;362.0270034;None;363.6630951999996;363.9527988;363.9527988;363.9688151999999;363.9688151999999;364.0097536999997;364.0097536999997;None;None;0;;364.0097536999997;None;365.51017699999966;None;['9'];[0.29512709999971776];365.51017699999966;None;;;;;;;Emoconpilot046;2022_Jan_07_1217;BackwardMask;2020.2.8;120.1534599994396;
;m;013_y_m_n_a.jpg;neutral;8;12;f;012_o_f_s_a.jpg;sad;incongruent;7;mismatch;;140;160;;18;238;block1_Pilot_2;13;n_s;n_s_weak;;;;;0;0;0;0;0;49;49;49;;;;;;;;;368.5100346999998;None;370.5124847999996;370.80284570000003;370.80284570000003;370.9525077999997;370.9525077999997;370.99340089999987;370.99340089999987;None;8;0;0.4677762999999686;370.99340089999987;None;372.4933173999998;None;['7'];[0.2719590000001517];372.4933173999998;None;;;;;;;Emoconpilot046;2022_Jan_07_1217;BackwardMask;2020.2.8;120.1534599994396;
;f;012_o_f_h_a.jpg;happy;9;12;f;012_o_f_n_a.jpg;neutral;incongruent;8;match;;120;170;;2;125;block1_Pilot_2;12;h_n;h_n_strong;;;;;0;0;0;0;0;50;50;50;;;;;;;;;375.49412809999967;None;376.5431030999998;376.8363237999997;376.8363237999997;376.8526701999999;376.8526701999999;376.8933860999996;376.8933860999996;None;None;0;;376.8933860999996;None;378.39341579999973;None;['9'];[0.29998169999998936];378.39341579999973;None;;;;;;;Emoconpilot046;2022_Jan_07_1217;BackwardMask;2020.2.8;120.1534599994396;
;m;008_y_m_s_a.jpg;sad;7;19;f;019_m_f_s_a.jpg;sad;congruent;7;mismatch;;130;160;;2;202;block1_Pilot_2;8;s_s;s_s_strong;;;;;0;0;0;0;0;51;51;51;;;;;;;;;381.39367049999964;None;383.1118145999999;383.4033365;383.4033365;383.41935859999967;383.41935859999967;383.46026729999994;383.46026729999994;None;7;1;0.7771339999999327;383.46026729999994;None;384.96022029999995;None;['8'];[0.253122600000097];384.96022029999995;None;;;;;;;Emoconpilot046;2022_Jan_07_1217;BackwardMask;2020.2.8;120.1534599994396;
;f;028_y_f_n_a.jpg;neutral;8;12;f;012_o_f_n_a.jpg;neutral;congruent;8;match;;140;170;;2;214;block1_Pilot_2;28;n_n;n_n_strong;;;;;0;0;0;0;0;52;52;52;;;;;;;;;387.96121949999997;None;389.7634349;390.0533296999997;390.0533296999997;390.0695386999996;390.0695386999996;390.1103423999998;390.1103423999998;None;None;0;;390.1103423999998;None;391.6105402999997;None;['9'];[0.45865890000004583];391.6105402999997;None;;;;;;;Emoconpilot046;2022_Jan_07_1217;BackwardMask;2020.2.8;120.1534599994396;
;m;027_o_m_h_a.jpg;happy;9;19;f;019_m_f_h_a.jpg;happy;congruent;9;mismatch;;120;150;;3;165;block1_Pilot_2;27;h_h;h_h_strong;;;;;0;0;0;0;0;53;53;53;;;;;;;;;394.61062479999964;None;396.0050747999999;396.2952952999999;396.2952952999999;396.3197484999996;396.3197484999996;396.3604725;396.3604725;None;9;1;0.45287839999991775;396.3604725;None;397.8606907999997;None;['7'];[0.2805339000001368];397.8606907999997;None;;;;;;;Emoconpilot046;2022_Jan_07_1217;BackwardMask;2020.2.8;120.1534599994396;
;m;008_y_m_s_a.jpg;sad;7;13;m;013_y_m_h_a.jpg;happy;incongruent;9;match;;130;150;;18;200;block1_Pilot_2;8;s_h;s_h_strong;;;;;0;0;0;0;0;54;54;54;;;;;;;;;400.86178489999975;None;402.5582717999996;402.85405249999985;402.85405249999985;403.00302469999997;403.00302469999997;403.04401289999987;403.04401289999987;None;7;0;0.3853165999998964;403.04401289999987;None;404.54458339999974;None;['7'];[0.3887923000002047];404.54458339999974;None;;;;;;;Emoconpilot046;2022_Jan_07_1217;BackwardMask;2020.2.8;120.1534599994396;
;f;030_o_f_n_a.jpg;neutral;8;28;f;028_y_f_s_a.jpg;sad;incongruent;7;match;;140;160;;18;238;block1_Pilot_2;30;n_s;n_s_weak;;;;;0;0;0;0;0;55;55;55;;;;;;;;;407.5449010999996;None;409.5483663;409.83724059999986;409.83724059999986;409.9865783;409.9865783;410.02749019999965;410.02749019999965;None;8;0;0.6418730999998843;410.02749019999965;None;411.5274052;None;['7'];[0.3099275999998099];411.5274052;None;;;;;;;Emoconpilot046;2022_Jan_07_1217;BackwardMask;2020.2.8;120.1534599994396;
;f;019_m_f_h_a.jpg;happy;9;27;m;027_o_m_h_a.jpg;happy;congruent;9;mismatch;;120;150;;1;238;block1_Pilot_2;19;h_h;h_h_strong;;;;;0;0;0;0;0;56;56;56;;;;;;;;;414.5284343999997;None;416.5186202;416.81190309999965;416.81190309999965;416.8201715;416.8201715;416.8608941999996;416.8608941999996;None;None;0;;416.8608941999996;None;418.3611504999999;None;['9'];[0.340154199999688];418.3611504999999;None;;;;;;;Emoconpilot046;2022_Jan_07_1217;BackwardMask;2020.2.8;120.1534599994396;
;m;004_o_m_s_a.jpg;sad;7;4;m;004_o_m_h_a.jpg;happy;incongruent;9;match;;130;150;;18;155;block1_Pilot_2;4;s_h;s_h_weak;;;;;0;0;0;0;0;57;57;57;;;;;;;;;421.3617359;None;422.6598386999999;422.95364489999974;422.95364489999974;423.10347699999966;423.10347699999966;423.1442597;423.1442597;None;7;0;0.49310520000017277;423.1442597;None;424.64450239999996;None;['7'];[0.30471929999976055];424.64450239999996;None;;;;;;;Emoconpilot046;2022_Jan_07_1217;BackwardMask;2020.2.8;120.1534599994396;
;f;021_o_f_s_a.jpg;sad;7;27;m;027_o_m_n_a.jpg;neutral;incongruent;8;mismatch;;130;170;;3;224;block1_Pilot_2;21;s_n;s_n_weak;;;;;0;0;0;0;0;58;58;58;;;;;;;;;427.64540169999964;None;429.51774290000003;429.8121293999998;429.8121293999998;429.8369128999998;429.8369128999998;429.8779064999999;429.8779064999999;None;None;0;;429.8779064999999;None;431.3777707999998;None;['9'];[0.4995190999998158];431.3777707999998;None;;;;;;;Emoconpilot046;2022_Jan_07_1217;BackwardMask;2020.2.8;120.1534599994396;
;f;021_o_f_h_a.jpg;happy;9;27;m;027_o_m_n_a.jpg;neutral;incongruent;8;mismatch;;120;170;;2;147;block1_Pilot_2;21;h_n;h_n_strong;;;;;0;0;0;0;0;59;59;59;;;;;;;;;434.3779408999999;None;435.6358304999999;435.9293364;435.9293364;435.9454314999998;435.9454314999998;435.9862414999998;435.9862414999998;None;None;0;;435.9862414999998;None;437.4866588;None;['8'];[0.3585408999997526];437.4866588;None;;;;;;;Emoconpilot046;2022_Jan_07_1217;BackwardMask;2020.2.8;120.1534599994396;
;f;040_y_f_n_a.jpg;neutral;8;13;m;013_y_m_h_a.jpg;happy;incongruent;9;mismatch;;140;150;;3;237;block1_Pilot_2;40;n_h;n_h_strong;;;;;0;0;0;0;0;60;60;60;;;;;;;;;440.4871051;None;442.4818215999999;442.77103069999976;442.77103069999976;442.7955273999996;442.7955273999996;442.8365094999999;442.8365094999999;None;8;0;0.552809199999956;442.8365094999999;None;444.33655009999984;None;['7'];[0.30057629999964774];444.33655009999984;None;;;;;;;Emoconpilot046;2022_Jan_07_1217;BackwardMask;2020.2.8;120.1534599994396;
;m;027_o_m_n_a.jpg;neutral;8;19;f;019_m_f_h_a.jpg;happy;incongruent;9;mismatch;;140;150;;3;199;block1_Pilot_2;27;n_h;n_h_strong;;;;;0;0;0;0;0;61;61;61;;;;;;;;;447.3372333999996;None;449.01393689999986;449.3046162999999;449.3046162999999;449.3291419999996;449.3291419999996;449.36978839999983;449.36978839999983;None;8;0;0.6435306000003038;449.36978839999983;None;450.87000039999975;None;['8'];[0.41532169999982216];450.87000039999975;None;;;;;;;Emoconpilot046;2022_Jan_07_1217;BackwardMask;2020.2.8;120.1534599994396;
;m;027_o_m_h_a.jpg;happy;9;21;f;021_o_f_s_a.jpg;sad;incongruent;7;mismatch;;120;160;;2;169;block1_Pilot_2;27;h_s;h_s_strong;;;;;0;0;0;0;0;62;62;62;;;;;;;;;453.872159;None;455.3021933;455.5965462999998;455.5965462999998;455.6124275999996;455.6124275999996;455.6534008999997;455.6534008999997;None;9;0;1.1759299999998802;455.6534008999997;None;457.15348099999983;None;['8'];[0.28366520000008677];457.15348099999983;None;;;;;;;Emoconpilot046;2022_Jan_07_1217;BackwardMask;2020.2.8;120.1534599994396;
;m;013_y_m_n_a.jpg;neutral;8;33;m;033_o_m_h_a.jpg;happy;incongruent;9;match;;140;150;;18;238;block1_Pilot_2;13;n_h;n_h_strong;;;;;0;0;0;0;0;63;63;63;;;;;;;;;460.1541078999999;None;462.15886729999966;462.4547848999996;462.4547848999996;462.6044780999996;462.6044780999996;462.64516319999984;462.64516319999984;None;8;0;0.35994909999999436;462.64516319999984;None;464.14521349999995;None;['7'];[0.46007719999988694];464.14521349999995;None;;;;;;;Emoconpilot046;2022_Jan_07_1217;BackwardMask;2020.2.8;120.1534599994396;
;m;033_o_m_n_a.jpg;neutral;8;30;f;030_o_f_s_a.jpg;sad;incongruent;7;mismatch;;140;160;;1;238;block1_Pilot_2;33;n_s;n_s_weak;;;;;0;0;0;0;0;64;64;64;;;;;;;;;467.1460785999998;None;469.14808479999965;469.43848449999996;469.43848449999996;469.4461968999999;469.4461968999999;469.48687189999964;469.48687189999964;None;None;0;;469.48687189999964;None;470.98684669999966;None;['9'];[0.3622430999998869];470.98684669999966;None;;;;;;;Emoconpilot046;2022_Jan_07_1217;BackwardMask;2020.2.8;120.1534599994396;
;m;033_o_m_s_a.jpg;sad;7;4;m;004_o_m_s_a.jpg;sad;congruent;7;match;;130;160;;18;146;block1_Pilot_2;33;s_s;s_s_weak;;;;;0;0;0;0;0;65;65;65;;;;;;;;;473.98782409999967;None;475.2125917999997;475.50492669999994;475.50492669999994;475.65462019999995;475.65462019999995;475.6954662999997;475.6954662999997;None;8;0;0.6136825000003228;475.6954662999997;None;477.1960385999996;None;['7'];[0.2892123999999967];477.1960385999996;None;;;;;;;Emoconpilot046;2022_Jan_07_1217;BackwardMask;2020.2.8;120.1534599994396;
;m;016_y_m_s_a.jpg;sad;7;28;f;028_y_f_h_a.jpg;happy;incongruent;9;mismatch;;130;150;;18;238;block1_Pilot_2;16;s_h;s_h_strong;;;;;0;0;0;0;0;66;66;66;;;;;;;;;480.19649200000003;None;482.1854288999998;482.4798747;482.4798747;482.62967899999967;482.62967899999967;482.6704138;482.6704138;None;7;0;0.4548445999998876;482.6704138;None;484.17054949999965;None;['7'];[0.2505676000000676];484.17054949999965;None;;;;;;;Emoconpilot046;2022_Jan_07_1217;BackwardMask;2020.2.8;120.1534599994396;
;f;030_o_f_h_a.jpg;happy;9;28;f;028_y_f_h_a.jpg;happy;congruent;9;match;;120;150;;3;234;block1_Pilot_2;30;h_h;h_h_weak;;;;;0;0;0;0;0;67;67;67;;;;;;;;;487.1707137999997;None;489.14549279999983;489.4388409999997;489.4388409999997;489.46321820000003;489.46321820000003;489.5040162999999;489.5040162999999;None;9;1;0.47726330000023154;489.5040162999999;None;491.0041500999996;None;['7'];[0.2410530000001927];491.0041500999996;None;;;;;;;Emoconpilot046;2022_Jan_07_1217;BackwardMask;2020.2.8;120.1534599994396;
;m;013_y_m_h_a.jpg;happy;9;4;m;004_o_m_h_a.jpg;happy;congruent;9;match;;120;150;;2;141;block1_Pilot_2;13;h_h;h_h_strong;;;;;0;0;0;0;0;68;68;68;;;;;;;;;494.0050412999999;None;495.1985916999997;495.4888361999997;495.4888361999997;495.5049626;495.5049626;495.5457736999997;495.5457736999997;None;9;1;0.5633997999998428;495.5457736999997;None;497.04580499999975;None;['7'];[0.23142009999992297];497.04580499999975;None;;;;;;;Emoconpilot046;2022_Jan_07_1217;BackwardMask;2020.2.8;120.1534599994396;
;f;028_y_f_s_a.jpg;sad;7;8;m;008_y_m_s_a.jpg;sad;congruent;7;mismatch;;130;160;;1;238;block1_Pilot_2;28;s_s;s_s_strong;;;;;0;0;0;0;0;69;69;69;;;;;;;;;500.0460532999996;None;502.041428;502.3304211999998;502.3304211999998;502.33890999999994;502.33890999999994;502.3793340999996;502.3793340999996;None;None;0;;502.3793340999996;None;503.87929239999994;None;['9'];[0.4379202999998597];503.87929239999994;None;;;;;;;Emoconpilot046;2022_Jan_07_1217;BackwardMask;2020.2.8;120.1534599994396;
;f;028_y_f_s_a.jpg;sad;7;30;f;030_o_f_h_a.jpg;happy;incongruent;9;match;;130;150;;2;199;block1_Pilot_2;28;s_h;s_h_weak;;;;;0;0;0;0;0;70;70;70;;;;;;;;;506.8794269;None;508.54712299999983;508.8388891999998;508.8388891999998;508.85514939999985;508.85514939999985;508.8960512999997;508.8960512999997;None;None;0;;508.8960512999997;None;510.3960893999997;None;['9'];[0.352983199999926];510.3960893999997;None;;;;;;;Emoconpilot046;2022_Jan_07_1217;BackwardMask;2020.2.8;120.1534599994396;
;m;008_y_m_h_a.jpg;happy;9;21;f;021_o_f_n_a.jpg;neutral;incongruent;8;mismatch;;120;170;;2;137;block1_Pilot_2;8;h_n;h_n_weak;;;;;0;0;0;0;0;71;71;71;;;;;;;;;513.3969542;None;514.5467693999999;514.8386935999997;514.8386935999997;514.8555492999999;514.8555492999999;514.8962180999997;514.8962180999997;None;9;0;0.6609888999996656;514.8962180999997;None;516.3970282999999;None;['8'];[0.2642284999997173];516.3970282999999;None;;;;;;;Emoconpilot046;2022_Jan_07_1217;BackwardMask;2020.2.8;120.1534599994396;
;f;012_o_f_n_a.jpg;neutral;8;8;m;008_y_m_s_a.jpg;sad;incongruent;7;mismatch;;140;160;;2;208;block1_Pilot_2;12;n_s;n_s_weak;;;;;0;0;0;0;0;72;72;72;;;;;;;;;519.3970430999998;None;521.1837065999998;521.4727834;521.4727834;521.4888864;521.4888864;521.5297346999996;521.5297346999996;None;None;0;;521.5297346999996;None;523.0299388999997;None;['9'];[0.30329370000026756];523.0299388999997;None;;;;;;;Emoconpilot046;2022_Jan_07_1217;BackwardMask;2020.2.8;120.1534599994396;
;m;016_y_m_n_a.jpg;neutral;8;8;m;008_y_m_n_a.jpg;neutral;congruent;8;match;;140;170;;3;211;block1_Pilot_2;16;n_n;n_n_strong;;;;;0;0;0;0;0;73;73;73;;;;;;;;;526.0299347999999;None;527.8088418999996;528.0979746999997;528.0979746999997;528.1223319999999;528.1223319999999;528.1632121999996;528.1632121999996;None;8;1;0.6339935000000878;528.1632121999996;None;529.6631301999996;None;['7'];[0.5339466999998876];529.6631301999996;None;;;;;;;Emoconpilot046;2022_Jan_07_1217;BackwardMask;2020.2.8;120.1534599994396;
;m;016_y_m_h_a.jpg;happy;9;13;m;013_y_m_s_a.jpg;sad;incongruent;7;match;;120;160;;3;138;block1_Pilot_2;16;h_s;h_s_weak;;;;;0;0;0;0;0;74;74;74;;;;;;;;;532.6638329999996;None;533.8213489999998;534.1141460999997;534.1141460999997;534.1391397999996;534.1391397999996;534.1799539999997;534.1799539999997;None;9;0;0.5051594000001387;534.1799539999997;None;535.6798655999996;None;['7'];[0.31727950000004057];535.6798655999996;None;;;;;;;Emoconpilot046;2022_Jan_07_1217;BackwardMask;2020.2.8;120.1534599994396;
;m;016_y_m_n_a.jpg;neutral;8;19;f;019_m_f_s_a.jpg;sad;incongruent;7;mismatch;;140;160;;2;185;block1_Pilot_2;16;n_s;n_s_strong;;;;;0;0;0;0;0;75;75;75;;;;;;;;;538.6811868;None;540.2421709;540.5312583999998;540.5312583999998;540.5475905999997;540.5475905999997;540.5883565999998;540.5883565999998;None;8;0;0.7609235999998418;540.5883565999998;None;542.0885615999996;None;['8'];[0.28463160000001153];542.0885615999996;None;;;;;;;Emoconpilot046;2022_Jan_07_1217;BackwardMask;2020.2.8;120.1534599994396;
;m;027_o_m_s_a.jpg;sad;7;8;m;008_y_m_s_a.jpg;sad;congruent;7;match;;130;160;;1;238;block1_Pilot_2;27;s_s;s_s_strong;;;;;0;0;0;0;0;76;76;76;;;;;;;;;545.0891984;None;547.0806702999998;547.3727866999998;547.3727866999998;547.3810242;547.3810242;547.4219061999997;547.4219061999997;None;None;0;;547.4219061999997;None;548.9218443999998;None;['9'];[0.3712580000001253];548.9218443999998;None;;;;;;;Emoconpilot046;2022_Jan_07_1217;BackwardMask;2020.2.8;120.1534599994396;
;f;019_m_f_n_a.jpg;neutral;8;27;m;027_o_m_n_a.jpg;neutral;congruent;8;mismatch;;140;170;;3;186;block1_Pilot_2;19;n_n;n_n_strong;;;;;0;0;0;0;0;77;77;77;;;;;;;;;551.9227622999997;None;553.4936352;553.7901689;553.7901689;553.8145059999997;553.8145059999997;553.8552397999997;553.8552397999997;None;8;1;0.7420381000001726;553.8552397999997;None;555.3556146999999;None;['7'];[0.3376298000002862];555.3556146999999;None;;;;;;;Emoconpilot046;2022_Jan_07_1217;BackwardMask;2020.2.8;120.1534599994396;
;m;004_o_m_s_a.jpg;sad;7;12;f;012_o_f_s_a.jpg;sad;congruent;7;mismatch;;130;160;;1;238;block1_Pilot_2;4;s_s;s_s_strong;;;;;0;0;0;0;0;78;78;78;;;;;;;;;558.3557781;None;560.3469179999997;560.6396971999998;560.6396971999998;560.6477612999997;560.6477612999997;560.6888196;560.6888196;None;None;0;;560.6888196;None;562.1887849999998;None;['9'];[0.3285710000000108];562.1887849999998;None;;;;;;;Emoconpilot046;2022_Jan_07_1217;BackwardMask;2020.2.8;120.1534599994396;
;f;019_m_f_n_a.jpg;neutral;8;13;m;013_y_m_s_a.jpg;sad;incongruent;7;mismatch;;140;160;;3;207;block1_Pilot_2;19;n_s;n_s_strong;;;;;0;0;0;0;0;79;79;79;;;;;;;;;565.1896752999996;None;566.9349413999998;567.2234747999996;567.2234747999996;567.2481551999999;567.2481551999999;567.2889888999998;567.2889888999998;None;8;0;0.5562452999997731;567.2889888999998;None;568.7897826999997;None;['7'];[0.43138520000002245];568.7897826999997;None;;;;;;;Emoconpilot046;2022_Jan_07_1217;BackwardMask;2020.2.8;120.1534599994396;
;m;027_o_m_h_a.jpg;happy;9;33;m;033_o_m_h_a.jpg;happy;congruent;9;match;;120;150;;1;238;block1_Pilot_2;27;h_h;h_h_strong;;;;;0;0;0;0;0;80;80;80;;;;;;;;;571.7893942999999;None;573.7911288999999;574.0821557999998;574.0821557999998;574.0898269999998;574.0898269999998;574.1307548;574.1307548;None;None;0;;574.1307548;None;575.6308730999999;None;['9'];[0.31835559999990437];575.6308730999999;None;;;;;;;Emoconpilot046;2022_Jan_07_1217;BackwardMask;2020.2.8;120.1534599994396;
;m;027_o_m_h_a.jpg;happy;9;21;f;021_o_f_s_a.jpg;sad;incongruent;7;mismatch;;120;160;;1;238;block1_Pilot_2;27;h_s;h_s_weak;;;;;0;0;0;0;0;81;81;81;;;;;;;;;578.6311277;None;580.6331056999998;580.9239407;580.9239407;580.931681;580.931681;580.9725645999997;580.9725645999997;None;None;0;;580.9725645999997;None;582.4725871999999;None;['9'];[0.3565548999999919];582.4725871999999;None;;;;;;;Emoconpilot046;2022_Jan_07_1217;BackwardMask;2020.2.8;120.1534599994396;
;m;033_o_m_s_a.jpg;sad;7;40;f;040_y_f_n_a.jpg;neutral;incongruent;8;mismatch;;130;170;;3;146;block1_Pilot_2;33;s_n;s_n_weak;;;;;0;0;0;0;0;82;82;82;;;;;;;;;585.4733454999996;None;586.6972286999999;586.9902653999998;586.9902653999998;587.0151317999998;587.0151317999998;587.0559332999997;587.0559332999997;None;8;1;0.8693767999998272;587.0559332999997;None;588.5558876;None;['7'];[0.32142430000021704];588.5558876;None;;;;;;;Emoconpilot046;2022_Jan_07_1217;BackwardMask;2020.2.8;120.1534599994396;
;m;008_y_m_h_a.jpg;happy;9;4;m;004_o_m_s_a.jpg;sad;incongruent;7;match;;120;160;;2;225;block1_Pilot_2;8;h_s;h_s_weak;;;;;0;0;0;0;0;83;83;83;;;;;;;;;591.5568199999998;None;593.4388798999998;593.7321309999998;593.7321309999998;593.7486377999999;593.7486377999999;593.7894078999998;593.7894078999998;None;None;0;;593.7894078999998;None;595.2896111;None;['9'];[0.4675678000003245];595.2896111;None;;;;;;;Emoconpilot046;2022_Jan_07_1217;BackwardMask;2020.2.8;120.1534599994396;
;f;012_o_f_n_a.jpg;neutral;8;4;m;004_o_m_s_a.jpg;sad;incongruent;7;mismatch;;140;160;;3;150;block1_Pilot_2;12;n_s;n_s_strong;;;;;0;0;0;0;0;84;84;84;;;;;;;;;598.2904331;None;599.5601296999998;599.8494244999997;599.8494244999997;599.8737314;599.8737314;599.9147199999998;599.9147199999998;None;8;0;0.6104897000000165;599.9147199999998;None;601.4145174999999;None;['7'];[0.30266470000015033];601.4145174999999;None;;;;;;;Emoconpilot046;2022_Jan_07_1217;BackwardMask;2020.2.8;120.1534599994396;
;f;021_o_f_s_a.jpg;sad;7;40;f;040_y_f_n_a.jpg;neutral;incongruent;8;match;;130;170;;2;156;block1_Pilot_2;21;s_n;s_n_strong;;;;;0;0;0;0;0;85;85;85;;;;;;;;;604.4154589999998;None;605.7211355999998;606.0156877;606.0156877;606.0321980999997;606.0321980999997;606.0731161999997;606.0731161999997;None;None;0;;606.0731161999997;None;607.5730399999998;None;['9'];[0.3519439000001512];607.5730399999998;None;;;;;;;Emoconpilot046;2022_Jan_07_1217;BackwardMask;2020.2.8;120.1534599994396;
;m;004_o_m_n_a.jpg;neutral;8;13;m;013_y_m_n_a.jpg;neutral;congruent;8;match;;140;170;;2;225;block1_Pilot_2;4;n_n;n_n_strong;;;;;0;0;0;0;0;86;86;86;;;;;;;;;610.5733047999997;None;612.4687913999996;612.7580224999997;612.7580224999997;612.7740987999996;612.7740987999996;612.8149547999997;612.8149547999997;None;None;0;;612.8149547999997;None;614.3149776999999;None;['9'];[0.33020689999966635];614.3149776999999;None;;;;;;;Emoconpilot046;2022_Jan_07_1217;BackwardMask;2020.2.8;120.1534599994396;
;m;016_y_m_n_a.jpg;neutral;8;16;m;016_y_m_h_a.jpg;happy;incongruent;9;match;;140;150;;18;193;block1_Pilot_2;16;n_h;n_h_strong;;;;;0;0;0;0;0;87;87;87;;;;;;;;;617.3158844999998;None;618.9429653999996;619.2330497999997;619.2330497999997;619.3822986;619.3822986;619.4233706999999;619.4233706999999;None;8;0;0.5176165000002584;619.4233706999999;None;620.9233442;None;['7'];[0.5060399000003599];620.9233442;None;;;;;;;Emoconpilot046;2022_Jan_07_1217;BackwardMask;2020.2.8;120.1534599994396;
;m;033_o_m_h_a.jpg;happy;9;4;m;004_o_m_h_a.jpg;happy;congruent;9;match;;120;150;;2;195;block1_Pilot_2;33;h_h;h_h_strong;;;;;0;0;0;0;0;88;88;88;;;;;;;;;623.9246086999997;None;625.5561413;625.8493958999998;625.8493958999998;625.8658888;625.8658888;625.9067440999997;625.9067440999997;None;None;0;;625.9067440999997;None;627.4066447;None;['9'];[0.36657530000002225];627.4066447;None;;;;;;;Emoconpilot046;2022_Jan_07_1217;BackwardMask;2020.2.8;120.1534599994396;
;m;027_o_m_h_a.jpg;happy;9;16;m;016_y_m_h_a.jpg;happy;congruent;9;match;;120;150;;3;209;block1_Pilot_2;27;h_h;h_h_weak;;;;;0;0;0;0;0;89;89;89;;;;;;;;;630.4068694999996;None;632.1691797999997;632.4583233999997;632.4583233999997;632.4827862999996;632.4827862999996;632.5235685999996;632.5235685999996;None;9;1;1.201730199999929;632.5235685999996;None;634.0234498999998;None;['8'];[0.2776275999999598];634.0234498999998;None;;;;;;;Emoconpilot046;2022_Jan_07_1217;BackwardMask;2020.2.8;120.1534599994396;
;m;033_o_m_s_a.jpg;sad;7;16;m;016_y_m_s_a.jpg;sad;congruent;7;match;;130;160;;3;128;block1_Pilot_2;33;s_s;s_s_strong;;;;;0;0;0;0;0;90;90;90;;;;;;;;;637.0244340999998;None;638.0984402999998;638.3913447999998;638.3913447999998;638.4162016999999;638.4162016999999;638.4570494;638.4570494;None;8;0;0.5961932000000161;638.4570494;None;639.9569256999998;None;['7'];[0.26418089999970107];639.9569256999998;None;;;;;;;Emoconpilot046;2022_Jan_07_1217;BackwardMask;2020.2.8;120.1534599994396;
;f;021_o_f_s_a.jpg;sad;7;30;f;030_o_f_s_a.jpg;sad;congruent;7;match;;130;160;;1;238;block1_Pilot_2;21;s_s;s_s_strong;;;;;0;0;0;0;0;91;91;91;;;;;;;;;642.9578312999997;None;644.9482203999996;645.2415016;645.2415016;645.2496554999998;645.2496554999998;645.2905498;645.2905498;None;None;0;;645.2905498;None;646.7904045;None;['9'];[0.3506351999999424];646.7904045;None;;;;;;;Emoconpilot046;2022_Jan_07_1217;BackwardMask;2020.2.8;120.1534599994396;
;m;033_o_m_n_a.jpg;neutral;8;28;f;028_y_f_s_a.jpg;sad;incongruent;7;mismatch;;140;160;;18;166;block1_Pilot_2;33;n_s;n_s_strong;;;;;0;0;0;0;0;92;92;92;;;;;;;;;649.7913292999997;None;651.2497300999999;651.5420035999996;651.5420035999996;651.6915427999998;651.6915427999998;651.7321821999999;651.7321821999999;None;8;0;0.39295979999997144;651.7321821999999;None;653.2324632;None;['7'];[0.2447640999998839];653.2324632;None;;;;;;;Emoconpilot046;2022_Jan_07_1217;BackwardMask;2020.2.8;120.1534599994396;
;f;019_m_f_n_a.jpg;neutral;8;30;f;030_o_f_n_a.jpg;neutral;congruent;8;match;;140;170;;18;228;block1_Pilot_2;19;n_n;n_n_weak;;;;;0;0;0;0;0;93;93;93;;;;;;;;;656.2332978;None;658.1557293999999;658.4506213999998;658.4506213999998;658.5999118;658.5999118;658.6407477999996;658.6407477999996;None;8;1;0.4204718999999386;658.6407477999996;None;660.1414399999999;None;['7'];[0.5276435000000674];660.1414399999999;None;;;;;;;Emoconpilot046;2022_Jan_07_1217;BackwardMask;2020.2.8;120.1534599994396;
;m;008_y_m_s_a.jpg;sad;7;12;f;012_o_f_h_a.jpg;happy;incongruent;9;mismatch;;130;150;;3;130;block1_Pilot_2;8;s_h;s_h_weak;;;;;0;0;0;0;0;94;94;94;;;;;;;;;663.1415162999997;None;664.2448464999998;664.5337716999998;664.5337716999998;664.5584902999999;664.5584902999999;664.5991592;664.5991592;None;7;0;0.6619620999999825;664.5991592;None;666.0993745999999;None;['7'];[0.24974479999991672];666.0993745999999;None;;;;;;;Emoconpilot046;2022_Jan_07_1217;BackwardMask;2020.2.8;120.1534599994396;
;m;016_y_m_n_a.jpg;neutral;8;28;f;028_y_f_n_a.jpg;neutral;congruent;8;mismatch;;140;170;;18;189;block1_Pilot_2;16;n_n;n_n_strong;;;;;0;0;0;0;0;95;95;95;;;;;;;;;669.1000236999998;None;670.6981965999998;670.9924354;670.9924354;671.142038;671.142038;671.1826551999998;671.1826551999998;None;8;1;0.4544828000002781;671.1826551999998;None;672.6827313999997;None;['7'];[0.35425960000020495];672.6827313999997;None;;;;;;;Emoconpilot046;2022_Jan_07_1217;BackwardMask;2020.2.8;120.1534599994396;
;f;012_o_f_s_a.jpg;sad;7;16;m;016_y_m_h_a.jpg;happy;incongruent;9;mismatch;;130;150;;3;238;block1_Pilot_2;12;s_h;s_h_strong;;;;;0;0;0;0;0;96;96;96;;;;;;;;;675.6828439999999;None;677.6701479999997;677.9670507999999;677.9670507999999;677.9919403999997;677.9919403999997;678.0328173999997;678.0328173999997;None;7;0;0.6843650000000707;678.0328173999997;None;679.5327883;None;['8'];[0.2881662999998298];679.5327883;None;;;;;;;Emoconpilot046;2022_Jan_07_1217;BackwardMask;2020.2.8;120.1534599994396;
;m;013_y_m_h_a.jpg;happy;9;27;m;027_o_m_h_a.jpg;happy;congruent;9;match;;120;150;;18;238;block1_Pilot_2;13;h_h;h_h_strong;;;;;0;0;0;0;0;97;97;97;;;;;;;;;682.5337354999997;None;684.5592606999999;684.8508965999999;684.8508965999999;685.000481;685.000481;685.0413249999997;685.0413249999997;None;9;1;0.3957663999999568;685.0413249999997;None;686.5414363999998;None;['7'];[0.3117207000000235];686.5414363999998;None;;;;;;;Emoconpilot046;2022_Jan_07_1217;BackwardMask;2020.2.8;120.1534599994396;
;m;016_y_m_s_a.jpg;sad;7;33;m;033_o_m_n_a.jpg;neutral;incongruent;8;match;;130;170;;1;238;block1_Pilot_2;16;s_n;s_n_weak;;;;;0;0;0;0;0;98;98;98;;;;;;;;;689.5415743999997;None;691.533786;691.8255600999996;691.8255600999996;691.8338842999997;691.8338842999997;691.8747850999998;691.8747850999998;None;None;0;;691.8747850999998;None;693.3747395999999;None;['9'];[0.3984754999996767];693.3747395999999;None;;;;;;;Emoconpilot046;2022_Jan_07_1217;BackwardMask;2020.2.8;120.1534599994396;
;m;008_y_m_n_a.jpg;neutral;8;30;f;030_o_f_n_a.jpg;neutral;congruent;8;mismatch;;140;170;;1;238;block1_Pilot_2;8;n_n;n_n_weak;;;;;0;0;0;0;0;99;99;99;;;;;;;;;696.3756446999996;None;698.4175163;698.7095455999997;698.7095455999997;698.7175201999999;698.7175201999999;698.7581946;698.7581946;None;None;0;;698.7581946;None;700.2582312999998;None;['9'];[0.36275000000023283];700.2582312999998;None;;;;;;;Emoconpilot046;2022_Jan_07_1217;BackwardMask;2020.2.8;120.1534599994396;
;m;008_y_m_s_a.jpg;sad;7;30;f;030_o_f_s_a.jpg;sad;congruent;7;mismatch;;130;160;;2;133;block1_Pilot_2;8;s_s;s_s_weak;;;;;0;0;0;0;0;100;100;100;;;;;;;;;703.2592664999997;None;704.3876129999999;704.6763054999997;704.6763054999997;704.6925606;704.6925606;704.7334625999997;704.7334625999997;None;None;0;;704.7334625999997;None;706.2332603;None;['9'];[0.31588160000001153];706.2332603;None;;;;;;;Emoconpilot046;2022_Jan_07_1217;BackwardMask;2020.2.8;120.1534599994396;
;f;040_y_f_n_a.jpg;neutral;8;30;f;030_o_f_s_a.jpg;sad;incongruent;7;match;;140;160;;3;197;block1_Pilot_2;40;n_s;n_s_strong;;;;;0;0;0;0;0;101;101;101;;;;;;;;;709.2341646999998;None;710.9085744999998;711.2015933999996;711.2015933999996;711.2260069999998;711.2260069999998;711.2669358999997;711.2669358999997;None;8;0;0.9622622000001684;711.2669358999997;None;712.7667736999997;None;['7'];[0.3663915000001907];712.7667736999997;None;;;;;;;Emoconpilot046;2022_Jan_07_1217;BackwardMask;2020.2.8;120.1534599994396;
;m;004_o_m_h_a.jpg;happy;9;30;f;030_o_f_s_a.jpg;sad;incongruent;7;mismatch;;120;160;;3;121;block1_Pilot_2;4;h_s;h_s_strong;;;;;0;0;0;0;0;102;102;102;;;;;;;;;715.7684212999998;None;716.796656;717.0934278999998;717.0934278999998;717.1177364;717.1177364;717.1586982999997;717.1586982999997;None;9;0;0.47852229999989504;717.1586982999997;None;718.6590767999996;None;['7'];[0.2900750999997399];718.6590767999996;None;;;;;;;Emoconpilot046;2022_Jan_07_1217;BackwardMask;2020.2.8;120.1534599994396;
;f;040_y_f_h_a.jpg;happy;9;8;m;008_y_m_h_a.jpg;happy;congruent;9;mismatch;;120;150;;18;211;block1_Pilot_2;40;h_h;h_h_weak;;;;;0;0;0;0;0;103;103;103;;;;;;;;;721.6586672999997;None;723.4252050999999;723.7181762999999;723.7181762999999;723.8679021999997;723.8679021999997;723.9087281999996;723.9087281999996;None;9;1;0.32839359999979933;723.9087281999996;None;725.4090127;None;['7'];[0.26020900000003166];725.4090127;None;;;;;;;Emoconpilot046;2022_Jan_07_1217;BackwardMask;2020.2.8;120.1534599994396;
;f;019_m_f_s_a.jpg;sad;7;16;m;016_y_m_n_a.jpg;neutral;incongruent;8;mismatch;;130;170;;2;198;block1_Pilot_2;19;s_n;s_n_strong;;;;;0;0;0;0;0;104;104;104;;;;;;;;;728.4096294999999;None;730.1077485999999;730.4019206999997;730.4019206999997;730.4180262999998;730.4180262999998;730.4588083999997;730.4588083999997;None;None;0;;730.4588083999997;None;731.9591731999999;None;['9'];[0.33397089999971286];731.9591731999999;None;;;;;;;Emoconpilot046;2022_Jan_07_1217;BackwardMask;2020.2.8;120.1534599994396;
;f;040_y_f_s_a.jpg;sad;7;12;f;012_o_f_s_a.jpg;sad;congruent;7;match;;130;160;;18;240;block1_Pilot_2;40;s_s;s_s_strong;;;;;0;0;0;0;0;105;105;105;;;;;;;;;734.9589111;None;736.9689567;737.2599634999997;737.2599634999997;737.4098531;737.4098531;737.4505543;737.4505543;None;7;1;0.5785509999996066;737.4505543;None;738.950871;None;['7'];[0.21426620000011098];738.950871;None;;;;;;;Emoconpilot046;2022_Jan_07_1217;BackwardMask;2020.2.8;120.1534599994396;
;f;040_y_f_n_a.jpg;neutral;8;33;m;033_o_m_s_a.jpg;sad;incongruent;7;mismatch;;140;160;;3;188;block1_Pilot_2;40;n_s;n_s_weak;;;;;0;0;0;0;0;106;106;106;;;;;;;;;741.9508440999998;None;743.5611654999998;743.8522306;743.8522306;743.8767076999998;743.8767076999998;743.9175617999999;743.9175617999999;None;8;0;0.6635220000002846;743.9175617999999;None;745.4176487999998;None;['8'];[0.2515803000001142];745.4176487999998;None;;;;;;;Emoconpilot046;2022_Jan_07_1217;BackwardMask;2020.2.8;120.1534599994396;
;f;028_y_f_h_a.jpg;happy;9;21;f;021_o_f_s_a.jpg;sad;incongruent;7;match;;120;160;;3;193;block1_Pilot_2;28;h_s;h_s_strong;;;;;0;0;0;0;0;107;107;107;;;;;;;;;748.4182726999998;None;750.0380302999997;750.3267993999998;750.3267993999998;750.3518417999999;750.3518417999999;750.3925783999998;750.3925783999998;None;9;0;0.49259600000004866;750.3925783999998;None;751.8926849;None;['7'];[0.29642619999958697];751.8926849;None;;;;;;;Emoconpilot046;2022_Jan_07_1217;BackwardMask;2020.2.8;120.1534599994396;
;f;040_y_f_s_a.jpg;sad;7;13;m;013_y_m_n_a.jpg;neutral;incongruent;8;mismatch;;130;170;;2;198;block1_Pilot_2;40;s_n;s_n_strong;;;;;0;0;0;0;0;108;108;108;;;;;;;;;754.8936353999998;None;756.5516481;756.8438957999997;756.8438957999997;756.8601755;756.8601755;756.9011950999998;756.9011950999998;None;None;0;;756.9011950999998;None;758.4009296999998;None;['9'];[0.36413579999998547];758.4009296999998;None;;;;;;;Emoconpilot046;2022_Jan_07_1217;BackwardMask;2020.2.8;120.1534599994396;
;f;030_o_f_n_a.jpg;neutral;8;33;m;033_o_m_s_a.jpg;sad;incongruent;7;mismatch;;140;160;;1;238;block1_Pilot_2;30;n_s;n_s_strong;;;;;0;0;0;0;0;109;109;109;;;;;;;;;761.4017523999996;None;763.4486545999998;763.7442606;763.7442606;763.7521359999996;763.7521359999996;763.7928317999999;763.7928317999999;None;None;0;;763.7928317999999;None;765.2932072999997;None;['9'];[0.35187889999997424];765.2932072999997;None;;;;;;;Emoconpilot046;2022_Jan_07_1217;BackwardMask;2020.2.8;120.1534599994396;
;f;021_o_f_h_a.jpg;happy;9;40;f;040_y_f_n_a.jpg;neutral;incongruent;8;match;;120;170;;2;125;block1_Pilot_2;21;h_n;h_n_weak;;;;;0;0;0;0;0;110;110;110;;;;;;;;;768.2938006999998;None;769.3569730999998;769.6526299999996;769.6526299999996;769.6687957999998;769.6687957999998;769.7098575;769.7098575;None;7;0;0.623165699999845;769.7098575;None;771.2096878999996;None;['7'];[0.38747719999992114];771.2096878999996;None;;;;;;;Emoconpilot046;2022_Jan_07_1217;BackwardMask;2020.2.8;120.1534599994396;
;f;021_o_f_h_a.jpg;happy;9;16;m;016_y_m_s_a.jpg;sad;incongruent;7;mismatch;;120;160;;1;238;block1_Pilot_2;21;h_s;h_s_strong;;;;;0;0;0;0;0;111;111;111;;;;;;;;;774.2110464999996;None;776.2130748;776.5028179999999;776.5028179999999;776.5106403999998;776.5106403999998;776.5514248999998;776.5514248999998;None;None;0;;776.5514248999998;None;778.0516294999998;None;['9'];[0.40953269999999975];778.0516294999998;None;;;;;;;Emoconpilot046;2022_Jan_07_1217;BackwardMask;2020.2.8;120.1534599994396;
;f;012_o_f_h_a.jpg;happy;9;8;m;008_y_m_s_a.jpg;sad;incongruent;7;mismatch;;120;160;;1;238;block1_Pilot_2;12;h_s;h_s_weak;;;;;0;0;0;0;0;112;112;112;;;;;;;;;781.0524090999997;None;783.0428537999996;783.3360493;783.3360493;783.3440894999999;783.3440894999999;783.3849898999997;783.3849898999997;None;None;0;;783.3849898999997;None;784.8848189;None;['9'];[0.3362267000002248];784.8848189;None;;;;;;;Emoconpilot046;2022_Jan_07_1217;BackwardMask;2020.2.8;120.1534599994396;
;m;013_y_m_h_a.jpg;happy;9;16;m;016_y_m_s_a.jpg;sad;incongruent;7;match;;120;160;;3;202;block1_Pilot_2;13;h_s;h_s_weak;;;;;0;0;0;0;0;113;113;113;;;;;;;;;787.8850972;None;789.6146534999998;789.9113717;789.9113717;789.9361359;789.9361359;789.9765989999996;789.9765989999996;None;9;0;0.47651589999986754;789.9765989999996;None;791.4768811999998;None;['7'];[0.2802412999999433];791.4768811999998;None;;;;;;;Emoconpilot046;2022_Jan_07_1217;BackwardMask;2020.2.8;120.1534599994396;
;f;019_m_f_s_a.jpg;sad;7;4;m;004_o_m_n_a.jpg;neutral;incongruent;8;mismatch;;130;170;;1;238;block1_Pilot_2;19;s_n;s_n_strong;;;;;0;0;0;0;0;114;114;114;;;;;;;;;794.476815;None;796.4822448999998;796.7783411;796.7783411;796.7860271;796.7860271;796.8268399999997;796.8268399999997;None;None;0;;796.8268399999997;None;798.3268896;None;['9'];[0.35827930000004926];798.3268896;None;;;;;;;Emoconpilot046;2022_Jan_07_1217;BackwardMask;2020.2.8;120.1534599994396;
;f;028_y_f_n_a.jpg;neutral;8;27;m;027_o_m_s_a.jpg;sad;incongruent;7;mismatch;;140;160;;18;238;block1_Pilot_2;28;n_s;n_s_strong;;;;;0;0;0;0;0;115;115;115;;;;;;;;;801.3278210999997;None;803.3318623999999;803.6282882999999;803.6282882999999;803.7775732999999;803.7775732999999;803.8186459999997;803.8186459999997;None;8;0;0.5705247999999301;803.8186459999997;None;805.3186762;None;['7'];[0.3745275999999649];805.3186762;None;;;;;;;Emoconpilot046;2022_Jan_07_1217;BackwardMask;2020.2.8;120.1534599994396;
;m;013_y_m_s_a.jpg;sad;7;12;f;012_o_f_h_a.jpg;happy;incongruent;9;mismatch;;130;150;;1;238;block1_Pilot_2;13;s_h;s_h_strong;;;;;0;0;0;0;0;116;116;116;;;;;;;;;808.3193438999997;None;810.3102074999997;810.6030962;810.6030962;810.6113482999999;810.6113482999999;810.6520664999998;810.6520664999998;None;None;0;;810.6520664999998;None;812.1526384999997;None;['9'];[0.3484995000003437];812.1526384999997;None;;;;;;;Emoconpilot046;2022_Jan_07_1217;BackwardMask;2020.2.8;120.1534599994396;
;m;016_y_m_s_a.jpg;sad;7;19;f;019_m_f_h_a.jpg;happy;incongruent;9;mismatch;;130;150;;1;238;block1_Pilot_2;16;s_h;s_h_strong;;;;;0;0;0;0;0;117;117;117;;;;;;;;;815.1530562999997;None;817.1434259999996;817.4365675999998;817.4365675999998;817.4447805;817.4447805;817.4856374999999;817.4856374999999;None;None;0;;817.4856374999999;None;818.9856290999996;None;['9'];[0.41130089999978736];818.9856290999996;None;;;;;;;Emoconpilot046;2022_Jan_07_1217;BackwardMask;2020.2.8;120.1534599994396;
;m;013_y_m_s_a.jpg;sad;7;21;f;021_o_f_h_a.jpg;happy;incongruent;9;mismatch;;130;150;;18;238;block1_Pilot_2;13;s_h;s_h_strong;;;;;0;0;0;0;0;118;118;118;;;;;;;;;821.9860300999999;None;823.9768998999998;824.2700365999999;824.2700365999999;824.4198073999996;824.4198073999996;824.4606314999996;824.4606314999996;None;7;0;0.8324133999999503;824.4606314999996;None;825.9608286999996;None;['7'];[0.33231930000010834];825.9608286999996;None;;;;;;;Emoconpilot046;2022_Jan_07_1217;BackwardMask;2020.2.8;120.1534599994396;
;f;012_o_f_s_a.jpg;sad;7;13;m;013_y_m_h_a.jpg;happy;incongruent;9;mismatch;;130;150;;3;235;block1_Pilot_2;12;s_h;s_h_weak;;;;;0;0;0;0;0;119;119;119;;;;;;;;;828.9619033999998;None;830.9241058999996;831.2201329999998;831.2201329999998;831.2451625999997;831.2451625999997;831.2859965999996;831.2859965999996;None;None;0;;831.2859965999996;None;832.7860170999998;None;['9'];[0.45909449999999197];832.7860170999998;None;;;;;;;Emoconpilot046;2022_Jan_07_1217;BackwardMask;2020.2.8;120.1534599994396;
;f;019_m_f_s_a.jpg;sad;7;30;f;030_o_f_h_a.jpg;happy;incongruent;9;match;;130;150;;3;235;block2_Pilot_2;19;s_h;s_h_strong;;;;;0;1;1;1;0;0;0;0;;;;;;;;;855.8152739999996;None;857.850293;858.1461494;858.1461494;858.1705959999999;858.1705959999999;858.2114402999996;858.2114402999996;None;7;0;0.8175501999999142;858.2114402999996;None;859.7122164999996;None;['7'];[0.2448420000000624];859.7122164999996;None;;;835.7865830999999;None;;;Emoconpilot046;2022_Jan_07_1217;BackwardMask;2020.2.8;120.1534599994396;
;m;008_y_m_n_a.jpg;neutral;8;40;f;040_y_f_h_a.jpg;happy;incongruent;9;mismatch;;140;150;;2;121;block2_Pilot_2;8;n_h;n_h_strong;;;;;0;1;1;1;0;1;1;1;;;;;;;;;862.7122259999996;None;863.7383196999999;864.0297158999997;864.0297158999997;864.0457160999999;864.0457160999999;864.0865850999999;864.0865850999999;None;8;0;1.0224675999997999;864.0865850999999;None;865.5866348999998;None;['8'];[0.24249269999972967];865.5866348999998;None;;;;;;;Emoconpilot046;2022_Jan_07_1217;BackwardMask;2020.2.8;120.1534599994396;
;f;012_o_f_h_a.jpg;happy;9;27;m;027_o_m_n_a.jpg;neutral;incongruent;8;mismatch;;120;170;;2;240;block2_Pilot_2;12;h_n;h_n_weak;;;;;0;1;1;1;0;2;2;2;;;;;;;;;868.5874568999998;None;870.5945491999996;870.8876563999997;870.8876563999997;870.9041515999998;870.9041515999998;870.9449855999997;870.9449855999997;None;9;0;0.9640475000001061;870.9449855999997;None;872.4448699999998;None;['7'];[0.41615120000005845];872.4448699999998;None;;;;;;;Emoconpilot046;2022_Jan_07_1217;BackwardMask;2020.2.8;120.1534599994396;
;m;008_y_m_h_a.jpg;happy;9;40;f;040_y_f_h_a.jpg;happy;congruent;9;mismatch;;120;150;;18;195;block2_Pilot_2;8;h_h;h_h_strong;;;;;0;1;1;1;0;3;3;3;;;;;;;;;875.4464593999996;None;877.0781674999998;877.3712332999999;877.3712332999999;877.5209686999997;877.5209686999997;877.5619330999998;877.5619330999998;None;9;1;0.5471563999999489;877.5619330999998;None;879.0619592999997;None;['7'];[0.45510020000028817];879.0619592999997;None;;;;;;;Emoconpilot046;2022_Jan_07_1217;BackwardMask;2020.2.8;120.1534599994396;
;m;004_o_m_n_a.jpg;neutral;8;33;m;033_o_m_s_a.jpg;sad;incongruent;7;match;;140;160;;18;126;block2_Pilot_2;4;n_s;n_s_weak;;;;;0;1;1;1;0;4;4;4;;;;;;;;;882.0628322999996;None;883.1516796999999;883.4464991;883.4464991;883.5961748;883.5961748;883.6369855999997;883.6369855999997;None;8;0;0.5360953999997946;883.6369855999997;None;885.1368656999998;None;['7'];[0.5241590000000542];885.1368656999998;None;;;;;;;Emoconpilot046;2022_Jan_07_1217;BackwardMask;2020.2.8;120.1534599994396;
;f;028_y_f_s_a.jpg;sad;7;27;m;027_o_m_n_a.jpg;neutral;incongruent;8;mismatch;;130;170;;18;225;block2_Pilot_2;28;s_n;s_n_strong;;;;;0;1;1;1;0;5;5;5;;;;;;;;;888.1370109;None;890.0235226;890.3130585999997;890.3130585999997;890.4630708;890.4630708;890.5038127999997;890.5038127999997;None;8;1;0.6213001999999506;890.5038127999997;None;892.0036459999997;None;['7'];[0.30537649999996574];892.0036459999997;None;;;;;;;Emoconpilot046;2022_Jan_07_1217;BackwardMask;2020.2.8;120.1534599994396;
;m;027_o_m_s_a.jpg;sad;7;30;f;030_o_f_h_a.jpg;happy;incongruent;9;mismatch;;130;150;;18;238;block2_Pilot_2;27;s_h;s_h_weak;;;;;0;1;1;1;0;6;6;6;;;;;;;;;895.0047648999998;None;896.9955544999998;897.2882437999997;897.2882437999997;897.4378569999999;897.4378569999999;897.478948;897.478948;None;7;0;0.8781272999999601;897.478948;None;898.9790135999997;None;['7'];[0.33797020000019984];898.9790135999997;None;;;;;;;Emoconpilot046;2022_Jan_07_1217;BackwardMask;2020.2.8;120.1534599994396;
;m;033_o_m_h_a.jpg;happy;9;40;f;040_y_f_s_a.jpg;sad;incongruent;7;mismatch;;120;160;;1;238;block2_Pilot_2;33;h_s;h_s_strong;;;;;0;1;1;1;0;7;7;7;;;;;;;;;901.9799294;None;903.9699934999999;904.2633415999999;904.2633415999999;904.271616;904.271616;904.3124250999999;904.3124250999999;None;None;0;;904.3124250999999;None;905.8124499999999;None;['9'];[0.3045036000003165];905.8124499999999;None;;;;;;;Emoconpilot046;2022_Jan_07_1217;BackwardMask;2020.2.8;120.1534599994396;
;f;012_o_f_n_a.jpg;neutral;8;12;f;012_o_f_h_a.jpg;happy;incongruent;9;match;;140;150;;2;200;block2_Pilot_2;12;n_h;n_h_weak;;;;;0;1;1;1;0;8;8;8;;;;;;;;;908.8132293999997;None;910.5308562999999;910.8225553999996;910.8225553999996;910.8383517999996;910.8383517999996;910.8793204999997;910.8793204999997;None;None;0;;910.8793204999997;None;912.3790958;None;['9'];[0.6418889999999919];912.3790958;None;;;;;;;Emoconpilot046;2022_Jan_07_1217;BackwardMask;2020.2.8;120.1534599994396;
;f;030_o_f_n_a.jpg;neutral;8;19;f;019_m_f_n_a.jpg;neutral;congruent;8;match;;140;170;;1;238;block2_Pilot_2;30;n_n;n_n_weak;;;;;0;1;1;1;0;9;9;9;;;;;;;;;915.3793213999998;None;917.3828365999998;917.6724333999996;917.6724333999996;917.6801038999997;917.6801038999997;917.7209306999998;917.7209306999998;None;None;0;;917.7209306999998;None;919.221055;None;['9'];[0.6560699000001478];919.221055;None;;;;;;;Emoconpilot046;2022_Jan_07_1217;BackwardMask;2020.2.8;120.1534599994396;
;m;013_y_m_h_a.jpg;happy;9;8;m;008_y_m_n_a.jpg;neutral;incongruent;8;match;;120;170;;1;238;block2_Pilot_2;13;h_n;h_n_strong;;;;;0;1;1;1;0;10;10;10;;;;;;;;;922.2217287999997;None;924.2229628999999;924.5140240999999;924.5140240999999;924.5219566999999;924.5219566999999;924.5627218;924.5627218;None;None;0;;924.5627218;None;926.0626577999997;None;['9'];[0.3104145000002063];926.0626577999997;None;;;;;;;Emoconpilot046;2022_Jan_07_1217;BackwardMask;2020.2.8;120.1534599994396;
;f;040_y_f_h_a.jpg;happy;9;19;f;019_m_f_s_a.jpg;sad;incongruent;7;match;;120;160;;3;133;block2_Pilot_2;40;h_s;h_s_strong;;;;;0;1;1;1;0;11;11;11;;;;;;;;;929.0630518999997;None;930.1796680999996;930.4720702999998;930.4720702999998;930.4972469999998;930.4972469999998;930.5378774999999;930.5378774999999;None;9;0;0.6831584999999905;930.5378774999999;None;932.0378093999998;None;['7'];[0.3432189999998627];932.0378093999998;None;;;;;;;Emoconpilot046;2022_Jan_07_1217;BackwardMask;2020.2.8;120.1534599994396;
;f;040_y_f_h_a.jpg;happy;9;13;m;013_y_m_s_a.jpg;sad;incongruent;7;mismatch;;120;160;;3;226;block2_Pilot_2;40;h_s;h_s_strong;;;;;0;1;1;1;0;12;12;12;;;;;;;;;935.0379875999997;None;936.9282073999998;937.2223507999997;937.2223507999997;937.2471396999999;937.2471396999999;937.2880491999999;937.2880491999999;None;9;0;0.4448480999999447;937.2880491999999;None;938.7880355999996;None;['7'];[0.257007799999883];938.7880355999996;None;;;;;;;Emoconpilot046;2022_Jan_07_1217;BackwardMask;2020.2.8;120.1534599994396;
;f;030_o_f_s_a.jpg;sad;7;27;m;027_o_m_h_a.jpg;happy;incongruent;9;mismatch;;130;150;;1;238;block2_Pilot_2;30;s_h;s_h_strong;;;;;0;1;1;1;0;13;13;13;;;;;;;;;941.7889197999998;None;943.8062591999997;944.0980160999998;944.0980160999998;944.1055974999999;944.1055974999999;944.1465331999998;944.1465331999998;None;None;0;;944.1465331999998;None;945.6465094;None;['9'];[0.41449569999986124];945.6465094;None;;;;;;;Emoconpilot046;2022_Jan_07_1217;BackwardMask;2020.2.8;120.1534599994396;
;m;033_o_m_h_a.jpg;happy;9;30;f;030_o_f_s_a.jpg;sad;incongruent;7;mismatch;;120;160;;1;238;block2_Pilot_2;33;h_s;h_s_weak;;;;;0;1;1;1;0;14;14;14;;;;;;;;;948.6474469999998;None;950.6377284999999;950.9310281999997;950.9310281999997;950.9391375;950.9391375;950.9799752999998;950.9799752999998;None;None;0;;950.9799752999998;None;952.4798940999999;None;['9'];[0.30113970000002155];952.4798940999999;None;;;;;;;Emoconpilot046;2022_Jan_07_1217;BackwardMask;2020.2.8;120.1534599994396;
;f;030_o_f_s_a.jpg;sad;7;28;f;028_y_f_n_a.jpg;neutral;incongruent;8;match;;130;170;;3;198;block2_Pilot_2;30;s_n;s_n_weak;;;;;0;1;1;1;0;15;15;15;;;;;;;;;955.4808705999999;None;957.1776166;957.4732305999996;957.4732305999996;957.4976585999998;957.4976585999998;957.5385188;957.5385188;None;8;1;0.7623491999997896;957.5385188;None;959.0384514999996;None;['8'];[0.5266591999998127];959.0384514999996;None;;;;;;;Emoconpilot046;2022_Jan_07_1217;BackwardMask;2020.2.8;120.1534599994396;
;f;030_o_f_s_a.jpg;sad;7;33;m;033_o_m_h_a.jpg;happy;incongruent;9;mismatch;;130;150;;3;175;block2_Pilot_2;30;s_h;s_h_weak;;;;;0;1;1;1;0;16;16;16;;;;;;;;;962.0385815999998;None;963.5160025999999;963.8066506999999;963.8066506999999;963.8308867999999;963.8308867999999;963.8719542999997;963.8719542999997;None;8;0;0.4769877999997334;963.8719542999997;None;965.3726411999996;None;['8'];[0.248414899999716];965.3726411999996;None;;;;;;;Emoconpilot046;2022_Jan_07_1217;BackwardMask;2020.2.8;120.1534599994396;
;f;021_o_f_h_a.jpg;happy;9;30;f;030_o_f_h_a.jpg;happy;congruent;9;match;;120;150;;2;194;block2_Pilot_2;21;h_h;h_h_strong;;;;;0;1;1;1;0;17;17;17;;;;;;;;;968.3724146999998;None;970.0081136999997;970.2984625999998;970.2984625999998;970.3144828999998;970.3144828999998;970.3553260999997;970.3553260999997;None;9;1;0.6335535999996864;970.3553260999997;None;971.8555333999998;None;['7'];[0.3415901000003032];971.8555333999998;None;;;;;;;Emoconpilot046;2022_Jan_07_1217;BackwardMask;2020.2.8;120.1534599994396;
;f;019_m_f_n_a.jpg;neutral;8;16;m;016_y_m_s_a.jpg;sad;incongruent;7;mismatch;;140;160;;18;163;block2_Pilot_2;19;n_s;n_s_weak;;;;;0;1;1;1;0;18;18;18;;;;;;;;;974.8556395999999;None;976.2328884999997;976.5234059;976.5234059;976.6728908;976.6728908;976.7137607;976.7137607;None;8;0;0.49125359999970897;976.7137607;None;978.2138878999999;None;['7'];[0.17514989999972386];978.2138878999999;None;;;;;;;Emoconpilot046;2022_Jan_07_1217;BackwardMask;2020.2.8;120.1534599994396;
;m;033_o_m_n_a.jpg;neutral;8;13;m;013_y_m_n_a.jpg;neutral;congruent;8;match;;140;170;;2;217;block2_Pilot_2;33;n_n;n_n_strong;;;;;0;1;1;1;0;19;19;19;;;;;;;;;981.2147050999997;None;983.0436433999998;983.340463;983.340463;983.3565227999998;983.3565227999998;983.3973081999998;983.3973081999998;None;None;0;;983.3973081999998;None;984.8972263999999;None;['9'];[0.4116303999999218];984.8972263999999;None;;;;;;;Emoconpilot046;2022_Jan_07_1217;BackwardMask;2020.2.8;120.1534599994396;
;m;033_o_m_h_a.jpg;happy;9;13;m;013_y_m_n_a.jpg;neutral;incongruent;8;match;;120;170;;2;227;block2_Pilot_2;33;h_n;h_n_weak;;;;;0;1;1;1;0;20;20;20;;;;;;;;;987.8975130999997;None;989.8085125999996;990.0984656999999;990.0984656999999;990.1147375999999;990.1147375999999;990.1558972999997;990.1558972999997;None;9;0;0.5211592000000564;990.1558972999997;None;991.6558596;None;['8'];[0.47721279999996113];991.6558596;None;;;;;;;Emoconpilot046;2022_Jan_07_1217;BackwardMask;2020.2.8;120.1534599994396;
;f;012_o_f_s_a.jpg;sad;7;16;m;016_y_m_n_a.jpg;neutral;incongruent;8;mismatch;;130;170;;1;238;block2_Pilot_2;12;s_n;s_n_weak;;;;;0;1;1;1;0;21;21;21;;;;;;;;;994.6566232999999;None;996.6433276999996;996.9401322999997;996.9401322999997;996.9483746999999;996.9483746999999;996.9892391999997;996.9892391999997;None;None;0;;996.9892391999997;None;998.4892568999999;None;['9'];[0.48357709999982035];998.4892568999999;None;;;;;;;Emoconpilot046;2022_Jan_07_1217;BackwardMask;2020.2.8;120.1534599994396;
;f;028_y_f_n_a.jpg;neutral;8;21;f;021_o_f_h_a.jpg;happy;incongruent;9;match;;140;150;;18;202;block2_Pilot_2;28;n_h;n_h_strong;;;;;0;1;1;1;0;22;22;22;;;;;;;;;1001.4905276;None;1003.2151933999999;1003.5073499;1003.5073499;1003.6568854999996;1003.6568854999996;1003.6978165999999;1003.6978165999999;None;8;0;0.5232248000002073;1003.6978165999999;None;1005.1977909999996;None;['7'];[0.39139810000006037];1005.1977909999996;None;;;;;;;Emoconpilot046;2022_Jan_07_1217;BackwardMask;2020.2.8;120.1534599994396;
;f;028_y_f_s_a.jpg;sad;7;30;f;030_o_f_n_a.jpg;neutral;incongruent;8;match;;130;170;;2;127;block2_Pilot_2;28;s_n;s_n_weak;;;;;0;1;1;1;0;23;23;23;;;;;;;;;1008.1985775999997;None;1009.2678716999999;1009.5572767999997;1009.5572767999997;1009.5735569999997;1009.5735569999997;1009.6144511999996;1009.6144511999996;None;8;1;0.5665800000001582;1009.6144511999996;None;1011.1143447999998;None;['8'];[0.10672410000006494];1011.1143447999998;None;;;;;;;Emoconpilot046;2022_Jan_07_1217;BackwardMask;2020.2.8;120.1534599994396;
;m;004_o_m_n_a.jpg;neutral;8;40;f;040_y_f_n_a.jpg;neutral;congruent;8;mismatch;;140;170;;1;238;block2_Pilot_2;4;n_n;n_n_weak;;;;;0;1;1;1;0;24;24;24;;;;;;;;;1014.1155567999999;None;1016.1328738999996;1016.4243281999998;1016.4243281999998;1016.4320605999997;1016.4320605999997;1016.4730090999997;1016.4730090999997;None;None;0;;1016.4730090999997;None;1017.9736143999999;None;['9'];[0.35135700000000725];1017.9736143999999;None;;;;;;;Emoconpilot046;2022_Jan_07_1217;BackwardMask;2020.2.8;120.1534599994396;
;m;016_y_m_n_a.jpg;neutral;8;16;m;016_y_m_h_a.jpg;happy;incongruent;9;match;;140;150;;18;239;block2_Pilot_2;16;n_h;n_h_weak;;;;;0;1;1;1;0;25;25;25;;;;;;;;;1020.9738358;None;1022.9844205999998;1023.2744251999998;1023.2744251999998;1023.4238166;1023.4238166;1023.4647347999999;1023.4647347999999;None;8;0;0.4523145999996814;1023.4647347999999;None;1024.9650794;None;['7'];[0.3037638999999217];1024.9650794;None;;;;;;;Emoconpilot046;2022_Jan_07_1217;BackwardMask;2020.2.8;120.1534599994396;
;f;012_o_f_n_a.jpg;neutral;8;33;m;033_o_m_n_a.jpg;neutral;congruent;8;mismatch;;140;170;;3;134;block2_Pilot_2;12;n_n;n_n_weak;;;;;0;1;1;1;0;26;26;26;;;;;;;;;1027.9661323999999;None;1029.1019201;1029.3912876999998;1029.3912876999998;1029.4157736999996;1029.4157736999996;1029.4564578;1029.4564578;None;8;1;0.7405782999999246;1029.4564578;None;1030.9565813999998;None;['7'];[0.5763540000002649];1030.9565813999998;None;;;;;;;Emoconpilot046;2022_Jan_07_1217;BackwardMask;2020.2.8;120.1534599994396;
;m;013_y_m_h_a.jpg;happy;9;27;m;027_o_m_s_a.jpg;sad;incongruent;7;match;;120;160;;2;194;block2_Pilot_2;13;h_s;h_s_strong;;;;;0;1;1;1;0;27;27;27;;;;;;;;;1033.9566944999997;None;1035.5922624999998;1035.8828939;1035.8828939;1035.8990132;1035.8990132;1035.9400312999996;1035.9400312999996;None;9;0;0.5449083000003156;1035.9400312999996;None;1037.4409139;None;['7'];[0.26821590000008655];1037.4409139;None;;;;;;;Emoconpilot046;2022_Jan_07_1217;BackwardMask;2020.2.8;120.1534599994396;
;m;013_y_m_n_a.jpg;neutral;8;28;f;028_y_f_n_a.jpg;neutral;congruent;8;mismatch;;140;170;;1;238;block2_Pilot_2;13;n_n;n_n_weak;;;;;0;1;1;1;0;28;28;28;;;;;;;;;1040.4409483;None;1042.4429723999997;1042.7331111999997;1042.7331111999997;1042.7409097999998;1042.7409097999998;1042.7817430999999;1042.7817430999999;None;None;0;;1042.7817430999999;None;1044.2818112999998;None;['9'];[0.6351228999997147];1044.2818112999998;None;;;;;;;Emoconpilot046;2022_Jan_07_1217;BackwardMask;2020.2.8;120.1534599994396;
;f;030_o_f_s_a.jpg;sad;7;33;m;033_o_m_h_a.jpg;happy;incongruent;9;mismatch;;130;150;;3;168;block2_Pilot_2;30;s_h;s_h_weak;;;;;0;1;1;1;0;29;29;29;;;;;;;;;1047.2826504999998;None;1048.7013143999998;1048.9917874999996;1048.9917874999996;1049.0161402999997;1049.0161402999997;1049.0568807;1049.0568807;None;7;0;0.708171300000231;1049.0568807;None;1050.5570592;None;['8'];[0.6319048000000294];1050.5570592;None;;;;;;;Emoconpilot046;2022_Jan_07_1217;BackwardMask;2020.2.8;120.1534599994396;
;m;008_y_m_n_a.jpg;neutral;8;12;f;012_o_f_n_a.jpg;neutral;congruent;8;mismatch;;140;170;;18;208;block2_Pilot_2;8;n_n;n_n_weak;;;;;0;1;1;1;0;30;30;30;;;;;;;;;1053.5571093999997;None;1055.3095565999997;1055.6001173;1055.6001173;1055.7495746;1055.7495746;1055.7904300999999;1055.7904300999999;None;8;1;0.5426622999998472;1055.7904300999999;None;1057.2913016999996;None;['7'];[0.3296527000002243];1057.2913016999996;None;;;;;;;Emoconpilot046;2022_Jan_07_1217;BackwardMask;2020.2.8;120.1534599994396;
;m;008_y_m_s_a.jpg;sad;7;4;m;004_o_m_n_a.jpg;neutral;incongruent;8;match;;130;170;;2;231;block2_Pilot_2;8;s_n;s_n_weak;;;;;0;1;1;1;0;31;31;31;;;;;;;;;1060.2906933999998;None;1062.2340476;1062.5252302;1062.5252302;1062.5412305999998;1062.5412305999998;1062.5823080999999;1062.5823080999999;None;7;0;0.6465235000000575;1062.5823080999999;None;1064.0823348;None;['8'];[0.3067113000001882];1064.0823348;None;;;;;;;Emoconpilot046;2022_Jan_07_1217;BackwardMask;2020.2.8;120.1534599994396;
;m;016_y_m_n_a.jpg;neutral;8;28;f;028_y_f_n_a.jpg;neutral;congruent;8;mismatch;;140;170;;2;218;block2_Pilot_2;16;n_n;n_n_weak;;;;;0;1;1;1;0;32;32;32;;;;;;;;;1067.0830477999998;None;1068.9181274999996;1069.2086495999997;1069.2086495999997;1069.2248566999997;1069.2248566999997;1069.2656448999996;1069.2656448999996;None;8;1;1.011170299999776;1069.2656448999996;None;1070.7657204999996;None;['8'];[0.28727260000005117];1070.7657204999996;None;;;;;;;Emoconpilot046;2022_Jan_07_1217;BackwardMask;2020.2.8;120.1534599994396;
;m;033_o_m_n_a.jpg;neutral;8;33;m;033_o_m_s_a.jpg;sad;incongruent;7;match;;140;160;;3;141;block2_Pilot_2;33;n_s;n_s_weak;;;;;0;1;1;1;0;33;33;33;;;;;;;;;1073.7665705;None;1074.9601082999998;1075.2505632999996;1075.2505632999996;1075.274888;1075.274888;1075.3157933999996;1075.3157933999996;None;8;0;0.6092942000000221;1075.3157933999996;None;1076.8157757;None;['7'];[0.42133190000004106];1076.8157757;None;;;;;;;Emoconpilot046;2022_Jan_07_1217;BackwardMask;2020.2.8;120.1534599994396;
;m;016_y_m_n_a.jpg;neutral;8;13;m;013_y_m_s_a.jpg;sad;incongruent;7;match;;140;160;;1;238;block2_Pilot_2;16;n_s;n_s_weak;;;;;0;1;1;1;0;34;34;34;;;;;;;;;1079.8165611999998;None;1081.8183371999999;1082.1088286;1082.1088286;1082.1166958;1082.1166958;1082.1575623999997;1082.1575623999997;None;None;0;;1082.1575623999997;None;1083.65764;None;['9'];[0.5073790999999801];1083.65764;None;;;;;;;Emoconpilot046;2022_Jan_07_1217;BackwardMask;2020.2.8;120.1534599994396;
;f;030_o_f_h_a.jpg;happy;9;12;f;012_o_f_n_a.jpg;neutral;incongruent;8;match;;120;170;;3;190;block2_Pilot_2;30;h_n;h_n_weak;;;;;0;1;1;1;0;35;35;35;;;;;;;;;1086.6585649999997;None;1088.2606287999997;1088.5507582;1088.5507582;1088.5753090999997;1088.5753090999997;1088.6159410999999;1088.6159410999999;None;9;0;0.4850031000000854;1088.6159410999999;None;1090.1159958999997;None;['7'];[0.34506680000004053];1090.1159958999997;None;;;;;;;Emoconpilot046;2022_Jan_07_1217;BackwardMask;2020.2.8;120.1534599994396;
;f;030_o_f_s_a.jpg;sad;7;12;f;012_o_f_n_a.jpg;neutral;incongruent;8;match;;130;170;;3;197;block2_Pilot_2;30;s_n;s_n_strong;;;;;0;1;1;1;0;36;36;36;;;;;;;;;1093.1165707999999;None;1094.7772723999997;1095.0677234;1095.0677234;1095.0921522999997;1095.0921522999997;1095.1328784999996;1095.1328784999996;None;7;0;0.8401023999999779;1095.1328784999996;None;1096.6331175;None;['7'];[0.26771199999984674];1096.6331175;None;;;;;;;Emoconpilot046;2022_Jan_07_1217;BackwardMask;2020.2.8;120.1534599994396;
;m;004_o_m_s_a.jpg;sad;7;8;m;008_y_m_h_a.jpg;happy;incongruent;9;match;;130;150;;3;201;block2_Pilot_2;4;s_h;s_h_strong;;;;;0;1;1;1;0;37;37;37;;;;;;;;;1099.6337289999997;None;1101.3164990999999;1101.6091182999999;1101.6091182999999;1101.6337599999997;1101.6337599999997;1101.6746632999998;1101.6746632999998;None;None;0;;1101.6746632999998;None;1103.1745690999996;None;['9'];[0.36641039999994973];1103.1745690999996;None;;;;;;;Emoconpilot046;2022_Jan_07_1217;BackwardMask;2020.2.8;120.1534599994396;
;f;040_y_f_n_a.jpg;neutral;8;16;m;016_y_m_n_a.jpg;neutral;congruent;8;mismatch;;140;170;;3;198;block2_Pilot_2;40;n_n;n_n_strong;;;;;0;1;1;1;0;38;38;38;;;;;;;;;1106.1747821;None;1107.8469476999999;1108.1428142999998;1108.1428142999998;1108.1674596999997;1108.1674596999997;1108.2082062999998;1108.2082062999998;None;9;0;0.5487977999996474;1108.2082062999998;None;1109.7083404;None;['8'];[0.2885667000000467];1109.7083404;None;;;;;;;Emoconpilot046;2022_Jan_07_1217;BackwardMask;2020.2.8;120.1534599994396;
;m;027_o_m_n_a.jpg;neutral;8;16;m;016_y_m_s_a.jpg;sad;incongruent;7;match;;140;160;;1;238;block2_Pilot_2;27;n_s;n_s_strong;;;;;0;1;1;1;0;39;39;39;;;;;;;;;1112.7094392;None;1114.7104181999998;1115.0014284;1115.0014284;1115.0091829999997;1115.0091829999997;1115.0499344;1115.0499344;None;None;0;;1115.0499344;None;1116.5501480999997;None;['9'];[0.4389025999998921];1116.5501480999997;None;;;;;;;Emoconpilot046;2022_Jan_07_1217;BackwardMask;2020.2.8;120.1534599994396;
;m;033_o_m_n_a.jpg;neutral;8;40;f;040_y_f_h_a.jpg;happy;incongruent;9;mismatch;;140;150;;2;137;block2_Pilot_2;33;n_h;n_h_strong;;;;;0;1;1;1;0;40;40;40;;;;;;;;;1119.5500522999996;None;1120.7112803999999;1121.0015924999998;1121.0015924999998;1121.0173870999997;1121.0173870999997;1121.0583183999997;1121.0583183999997;None;None;0;;1121.0583183999997;None;1122.5591062999997;None;['9'];[0.325716199999988];1122.5591062999997;None;;;;;;;Emoconpilot046;2022_Jan_07_1217;BackwardMask;2020.2.8;120.1534599994396;
;m;004_o_m_s_a.jpg;sad;7;8;m;008_y_m_h_a.jpg;happy;incongruent;9;match;;130;150;;18;193;block2_Pilot_2;4;s_h;s_h_strong;;;;;0;1;1;1;0;41;41;41;;;;;;;;;1125.5591947999997;None;1127.1752162999996;1127.4681392999996;1127.4681392999996;1127.6176639999999;1127.6176639999999;1127.6585505999997;1127.6585505999997;None;7;0;0.7384199000002809;1127.6585505999997;None;1129.1583038999997;None;['7'];[0.2625702000000274];1129.1583038999997;None;;;;;;;Emoconpilot046;2022_Jan_07_1217;BackwardMask;2020.2.8;120.1534599994396;
;f;012_o_f_h_a.jpg;happy;9;4;m;004_o_m_s_a.jpg;sad;incongruent;7;mismatch;;120;160;;3;198;block2_Pilot_2;12;h_s;h_s_weak;;;;;0;1;1;1;0;42;42;42;;;;;;;;;1132.1586384999996;None;1133.8168263999996;1134.1097050999997;1134.1097050999997;1134.1343305;1134.1343305;1134.1753015999998;1134.1753015999998;None;9;0;0.46149900000000343;1134.1753015999998;None;1135.6754910999998;None;['7'];[0.2734730999995918];1135.6754910999998;None;;;;;;;Emoconpilot046;2022_Jan_07_1217;BackwardMask;2020.2.8;120.1534599994396;
;f;012_o_f_n_a.jpg;neutral;8;8;m;008_y_m_s_a.jpg;sad;incongruent;7;mismatch;;140;160;;1;238;block2_Pilot_2;12;n_s;n_s_strong;;;;;0;1;1;1;0;43;43;43;;;;;;;;;1138.6764762999996;None;1140.6859511999996;1140.9767736;1140.9767736;1140.9844719999996;1140.9844719999996;1141.0255859;1141.0255859;None;None;0;;1141.0255859;None;1142.5256292;None;['9'];[0.3833399999998619];1142.5256292;None;;;;;;;Emoconpilot046;2022_Jan_07_1217;BackwardMask;2020.2.8;120.1534599994396;
;f;040_y_f_n_a.jpg;neutral;8;8;m;008_y_m_n_a.jpg;neutral;congruent;8;mismatch;;140;170;;3;165;block2_Pilot_2;40;n_n;n_n_weak;;;;;0;1;1;1;0;44;44;44;;;;;;;;;1145.5263404999996;None;1146.9199196999998;1147.2102614;1147.2102614;1147.2347557999997;1147.2347557999997;1147.2756373999996;1147.2756373999996;None;8;1;0.7853049000000283;1147.2756373999996;None;1148.7755235999998;None;['7'];[0.46146550000003117];1148.7755235999998;None;;;;;;;Emoconpilot046;2022_Jan_07_1217;BackwardMask;2020.2.8;120.1534599994396;
;f;028_y_f_h_a.jpg;happy;9;33;m;033_o_m_n_a.jpg;neutral;incongruent;8;mismatch;;120;170;;1;238;block2_Pilot_2;28;h_n;h_n_strong;;;;;0;1;1;1;0;45;45;45;;;;;;;;;1151.7757376999998;None;1153.7699929;1154.0601681999997;1154.0601681999997;1154.0683105999997;1154.0683105999997;1154.1089677;1154.1089677;None;None;0;;1154.1089677;None;1155.6090777999998;None;['9'];[0.3638670000000275];1155.6090777999998;None;;;;;;;Emoconpilot046;2022_Jan_07_1217;BackwardMask;2020.2.8;120.1534599994396;
;m;027_o_m_s_a.jpg;sad;7;19;f;019_m_f_n_a.jpg;neutral;incongruent;8;mismatch;;130;170;;2;236;block2_Pilot_2;27;s_n;s_n_weak;;;;;0;1;1;1;0;46;46;46;;;;;;;;;1158.6100201999998;None;1160.5834532;1160.8769605999996;1160.8769605999996;1160.8933635999997;1160.8933635999997;1160.9343288;1160.9343288;None;None;0;;1160.9343288;None;1162.4343990999996;None;['9'];[0.35441709999986415];1162.4343990999996;None;;;;;;;Emoconpilot046;2022_Jan_07_1217;BackwardMask;2020.2.8;120.1534599994396;
;m;027_o_m_h_a.jpg;happy;9;19;f;019_m_f_s_a.jpg;sad;incongruent;7;mismatch;;120;160;;1;238;block2_Pilot_2;27;h_s;h_s_strong;;;;;0;1;1;1;0;47;47;47;;;;;;;;;1165.4342523;None;1167.4684444;1167.7607258999997;1167.7607258999997;1167.7684196;1167.7684196;1167.8093617999998;1167.8093617999998;None;None;0;;1167.8093617999998;None;1169.3102614;None;['9'];[0.35069890000022497];1169.3102614;None;;;;;;;Emoconpilot046;2022_Jan_07_1217;BackwardMask;2020.2.8;120.1534599994396;
;m;016_y_m_h_a.jpg;happy;9;4;m;004_o_m_s_a.jpg;sad;incongruent;7;match;;120;160;;3;227;block2_Pilot_2;16;h_s;h_s_strong;;;;;0;1;1;1;0;48;48;48;;;;;;;;;1172.3104134999999;None;1174.2092069;1174.5022586999999;1174.5022586999999;1174.5269288;1174.5269288;1174.5678767999998;1174.5678767999998;None;9;0;0.5010607999997774;1174.5678767999998;None;1176.0677618;None;['7'];[0.23321789999999964];1176.0677618;None;;;;;;;Emoconpilot046;2022_Jan_07_1217;BackwardMask;2020.2.8;120.1534599994396;
;f;040_y_f_h_a.jpg;happy;9;13;m;013_y_m_h_a.jpg;happy;congruent;9;mismatch;;120;150;;3;165;block2_Pilot_2;40;h_h;h_h_strong;;;;;0;1;1;1;0;49;49;49;;;;;;;;;1179.0691318;None;1180.4506342999998;1180.7440180999997;1180.7440180999997;1180.7686964999998;1180.7686964999998;1180.8096699999996;1180.8096699999996;None;9;1;0.47507150000001275;1180.8096699999996;None;1182.3097040999996;None;['7'];[0.2552968999998484];1182.3097040999996;None;;;;;;;Emoconpilot046;2022_Jan_07_1217;BackwardMask;2020.2.8;120.1534599994396;
;m;033_o_m_s_a.jpg;sad;7;28;f;028_y_f_n_a.jpg;neutral;incongruent;8;mismatch;;130;170;;2;227;block2_Pilot_2;33;s_n;s_n_weak;;;;;0;1;1;1;0;50;50;50;;;;;;;;;1185.3110874999998;None;1187.2097116999998;1187.5024922999996;1187.5024922999996;1187.5189137999996;1187.5189137999996;1187.5597770999998;1187.5597770999998;None;None;0;;1187.5597770999998;None;1189.0596117999999;None;['9'];[0.4013340999999855];1189.0596117999999;None;;;;;;;Emoconpilot046;2022_Jan_07_1217;BackwardMask;2020.2.8;120.1534599994396;
;f;019_m_f_s_a.jpg;sad;7;27;m;027_o_m_h_a.jpg;happy;incongruent;9;mismatch;;130;150;;1;238;block2_Pilot_2;19;s_h;s_h_weak;;;;;0;1;1;1;0;51;51;51;;;;;;;;;1192.0606573999999;None;1194.0652615999998;1194.3612868;1194.3612868;1194.3690118;1194.3690118;1194.4098589999999;1194.4098589999999;None;None;0;;1194.4098589999999;None;1195.9103556999999;None;['9'];[0.3025673000001916];1195.9103556999999;None;;;;;;;Emoconpilot046;2022_Jan_07_1217;BackwardMask;2020.2.8;120.1534599994396;
;m;016_y_m_h_a.jpg;happy;9;19;f;019_m_f_n_a.jpg;neutral;incongruent;8;mismatch;;120;170;;18;238;block2_Pilot_2;16;h_n;h_n_strong;;;;;0;1;1;1;0;52;52;52;;;;;;;;;1198.9109334;None;1200.9014657999996;1201.1943597999998;1201.1943597999998;1201.3440078999997;1201.3440078999997;1201.3849796;1201.3849796;None;9;0;0.36407740000004196;1201.3849796;None;1202.8850663999997;None;['7'];[0.32787150000012844];1202.8850663999997;None;;;;;;;Emoconpilot046;2022_Jan_07_1217;BackwardMask;2020.2.8;120.1534599994396;
;f;021_o_f_s_a.jpg;sad;7;8;m;008_y_m_n_a.jpg;neutral;incongruent;8;mismatch;;130;170;;1;238;block2_Pilot_2;21;s_n;s_n_strong;;;;;0;1;1;1;0;53;53;53;;;;;;;;;1205.8851703;None;1207.8745928999997;1208.1693986;1208.1693986;1208.1775893;1208.1775893;1208.2185132999998;1208.2185132999998;None;None;0;;1208.2185132999998;None;1209.7186198999998;None;['9'];[0.28640279999990526];1209.7186198999998;None;;;;;;;Emoconpilot046;2022_Jan_07_1217;BackwardMask;2020.2.8;120.1534599994396;
;f;012_o_f_s_a.jpg;sad;7;33;m;033_o_m_s_a.jpg;sad;congruent;7;mismatch;;130;160;;2;148;block2_Pilot_2;12;s_s;s_s_weak;;;;;0;1;1;1;0;54;54;54;;;;;;;;;1212.7187678;None;1213.9558407;1214.2528307999996;1214.2528307999996;1214.2694957999997;1214.2694957999997;1214.3104240999996;1214.3104240999996;None;None;0;;1214.3104240999996;None;1215.8102127999996;None;['9'];[0.29078219999973953];1215.8102127999996;None;;;;;;;Emoconpilot046;2022_Jan_07_1217;BackwardMask;2020.2.8;120.1534599994396;
;f;030_o_f_s_a.jpg;sad;7;40;f;040_y_f_s_a.jpg;sad;congruent;7;match;;130;160;;3;136;block2_Pilot_2;30;s_s;s_s_strong;;;;;0;1;1;1;0;55;55;55;;;;;;;;;1218.8114228999998;None;1219.9650637;1220.2617661999998;1220.2617661999998;1220.2862002999996;1220.2862002999996;1220.3271541999998;1220.3271541999998;None;7;1;0.6697441999995135;1220.3271541999998;None;1221.8269563;None;['7'];[0.2339534000002459];1221.8269563;None;;;;;;;Emoconpilot046;2022_Jan_07_1217;BackwardMask;2020.2.8;120.1534599994396;
;m;027_o_m_s_a.jpg;sad;7;28;f;028_y_f_h_a.jpg;happy;incongruent;9;mismatch;;130;150;;1;238;block2_Pilot_2;27;s_h;s_h_weak;;;;;0;1;1;1;0;56;56;56;;;;;;;;;1224.8277451999998;None;1226.8185909;1227.1116446;1227.1116446;1227.1197241999994;1227.1197241999994;1227.1605254;1227.1605254;None;None;0;;1227.1605254;None;1228.6606551;None;['9'];[0.33633589999953983];1228.6606551;None;;;;;;;Emoconpilot046;2022_Jan_07_1217;BackwardMask;2020.2.8;120.1534599994396;
;m;004_o_m_n_a.jpg;neutral;8;8;m;008_y_m_s_a.jpg;sad;incongruent;7;match;;140;160;;3;225;block2_Pilot_2;4;n_s;n_s_strong;;;;;0;1;1;1;0;57;57;57;;;;;;;;;1231.6607103000001;None;1233.5567189999997;1233.8454159999997;1233.8454159999997;1233.8697576999998;1233.8697576999998;1233.9105257999995;1233.9105257999995;None;8;0;0.6144053999996686;1233.9105257999995;None;1235.4107275000001;None;['7'];[0.8741274000003614];1235.4107275000001;None;;;;;;;Emoconpilot046;2022_Jan_07_1217;BackwardMask;2020.2.8;120.1534599994396;
;f;012_o_f_s_a.jpg;sad;7;40;f;040_y_f_s_a.jpg;sad;congruent;7;match;;130;160;;1;238;block2_Pilot_2;12;s_s;s_s_strong;;;;;0;1;1;1;0;58;58;58;;;;;;;;;1238.4124161999994;None;1240.3982357999998;1240.6950080000001;1240.6950080000001;1240.7033356999996;1240.7033356999996;1240.7440831999997;1240.7440831999997;None;None;0;;1240.7440831999997;None;1242.2450506;None;['9'];[0.32773939999970025];1242.2450506;None;;;;;;;Emoconpilot046;2022_Jan_07_1217;BackwardMask;2020.2.8;120.1534599994396;
;f;021_o_f_h_a.jpg;happy;9;4;m;004_o_m_n_a.jpg;neutral;incongruent;8;mismatch;;120;170;;1;238;block2_Pilot_2;21;h_n;h_n_weak;;;;;0;1;1;1;0;59;59;59;;;;;;;;;1245.2441794000001;None;1247.2479286000003;1247.5373353;1247.5373353;1247.5450115999997;1247.5450115999997;1247.5858945999994;1247.5858945999994;None;None;0;;1247.5858945999994;None;1249.0859899000002;None;['9'];[0.35080889999971987];1249.0859899000002;None;;;;;;;Emoconpilot046;2022_Jan_07_1217;BackwardMask;2020.2.8;120.1534599994396;
;f;040_y_f_h_a.jpg;happy;9;16;m;016_y_m_n_a.jpg;neutral;incongruent;8;mismatch;;120;170;;2;154;block2_Pilot_2;40;h_n;h_n_weak;;;;;0;1;1;1;0;60;60;60;;;;;;;;;1252.0862149999998;None;1253.3784715999996;1253.6703554;1253.6703554;1253.6868648999994;1253.6868648999994;1253.7277043999998;1253.7277043999998;None;9;0;0.5412790000000314;1253.7277043999998;None;1255.2279557999996;None;['7'];[0.20894570000018575];1255.2279557999996;None;;;;;;;Emoconpilot046;2022_Jan_07_1217;BackwardMask;2020.2.8;120.1534599994396;
;m;008_y_m_n_a.jpg;neutral;8;4;m;004_o_m_s_a.jpg;sad;incongruent;7;match;;140;160;;18;145;block2_Pilot_2;8;n_s;n_s_strong;;;;;0;1;1;1;0;61;61;61;;;;;;;;;1258.2285607999997;None;1259.4639414999997;1259.7541694999995;1259.7541694999995;1259.9036930999996;1259.9036930999996;1259.9444448;1259.9444448;None;8;0;0.404294499999196;1259.9444448;None;1261.4445540000002;None;['7'];[0.2881501000001663];1261.4445540000002;None;;;;;;;Emoconpilot046;2022_Jan_07_1217;BackwardMask;2020.2.8;120.1534599994396;
;f;021_o_f_s_a.jpg;sad;7;33;m;033_o_m_h_a.jpg;happy;incongruent;9;mismatch;;130;150;;1;238;block2_Pilot_2;21;s_h;s_h_strong;;;;;0;1;1;1;0;62;62;62;;;;;;;;;1264.4453643000002;None;1266.4341119999995;1266.7289049999995;1266.7289049999995;1266.7371810999998;1266.7371810999998;1266.7779673999999;1266.7779673999999;None;None;0;;1266.7779673999999;None;1268.2780513000002;None;['9'];[0.3428673999997045];1268.2780513000002;None;;;;;;;Emoconpilot046;2022_Jan_07_1217;BackwardMask;2020.2.8;120.1534599994396;
;m;033_o_m_n_a.jpg;neutral;8;30;f;030_o_f_h_a.jpg;happy;incongruent;9;mismatch;;140;150;;18;171;block2_Pilot_2;33;n_h;n_h_weak;;;;;0;1;1;1;0;63;63;63;;;;;;;;;1271.2783333000002;None;1272.7239536000002;1273.0129809999994;1273.0129809999994;1273.1624148999995;1273.1624148999995;1273.2031741999995;1273.2031741999995;None;8;0;0.4817968999996083;1273.2031741999995;None;1274.7031439999996;None;['7'];[0.4138094000009005];1274.7031439999996;None;;;;;;;Emoconpilot046;2022_Jan_07_1217;BackwardMask;2020.2.8;120.1534599994396;
;m;027_o_m_n_a.jpg;neutral;8;27;m;027_o_m_h_a.jpg;happy;incongruent;9;match;;140;150;;2;164;block2_Pilot_2;27;n_h;n_h_weak;;;;;0;1;1;1;0;64;64;64;;;;;;;;;1277.7040706000003;None;1279.0903051999999;1279.3796874999994;1279.3796874999994;1279.3957746;1279.3957746;1279.4365812;1279.4365812;None;None;0;;1279.4365812;None;1280.937375;None;['9'];[0.3635776999999507];1280.937375;None;;;;;;;Emoconpilot046;2022_Jan_07_1217;BackwardMask;2020.2.8;120.1534599994396;
;m;008_y_m_n_a.jpg;neutral;8;40;f;040_y_f_n_a.jpg;neutral;congruent;8;mismatch;;140;170;;1;238;block2_Pilot_2;8;n_n;n_n_strong;;;;;0;1;1;1;0;65;65;65;;;;;;;;;1283.9370007000002;None;1285.9395180999995;1286.229645;1286.229645;1286.2374998;1286.2374998;1286.2784759;1286.2784759;None;None;0;;1286.2784759;None;1287.7784784;None;['9'];[0.3463685999995505];1287.7784784;None;;;;;;;Emoconpilot046;2022_Jan_07_1217;BackwardMask;2020.2.8;120.1534599994396;
;f;040_y_f_h_a.jpg;happy;9;21;f;021_o_f_n_a.jpg;neutral;incongruent;8;match;;120;170;;18;239;block2_Pilot_2;40;h_n;h_n_strong;;;;;0;1;1;1;0;66;66;66;;;;;;;;;1290.7785184999998;None;1292.7788082000002;1293.0713366999994;1293.0713366999994;1293.2210008999996;1293.2210008999996;1293.2619611999994;1293.2619611999994;None;9;0;0.43092450000040117;1293.2619611999994;None;1294.7619023000002;None;['7'];[0.35477369999989605];1294.7619023000002;None;;;;;;;Emoconpilot046;2022_Jan_07_1217;BackwardMask;2020.2.8;120.1534599994396;
;f;021_o_f_s_a.jpg;sad;7;28;f;028_y_f_h_a.jpg;happy;incongruent;9;match;;130;150;;1;238;block2_Pilot_2;21;s_h;s_h_weak;;;;;0;1;1;1;0;67;67;67;;;;;;;;;1297.7627416;None;1299.7511941999996;1300.0463383000001;1300.0463383000001;1300.0544669999995;1300.0544669999995;1300.0954471999999;1300.0954471999999;None;None;0;;1300.0954471999999;None;1301.595949;None;['9'];[0.36077730000033625];1301.595949;None;;;;;;;Emoconpilot046;2022_Jan_07_1217;BackwardMask;2020.2.8;120.1534599994396;
;f;021_o_f_n_a.jpg;neutral;8;30;f;030_o_f_n_a.jpg;neutral;congruent;8;match;;140;170;;2;209;block2_Pilot_2;21;n_n;n_n_strong;;;;;0;1;1;1;0;68;68;68;;;;;;;;;1304.5963227999996;None;1306.3781316;1306.6719155999995;1306.6719155999995;1306.6879365;1306.6879365;1306.7286693;1306.7286693;None;None;0;;1306.7286693;None;1308.2289254000002;None;['9'];[0.33601030000045284];1308.2289254000002;None;;;;;;;Emoconpilot046;2022_Jan_07_1217;BackwardMask;2020.2.8;120.1534599994396;
;f;040_y_f_s_a.jpg;sad;7;13;m;013_y_m_s_a.jpg;sad;congruent;7;mismatch;;130;160;;3;147;block2_Pilot_2;40;s_s;s_s_strong;;;;;0;1;1;1;0;69;69;69;;;;;;;;;1311.2296691999995;None;1312.4623307999996;1312.7548906999996;1312.7548906999996;1312.7796506;1312.7796506;1312.8205950999995;1312.8205950999995;None;7;1;0.8962805999999546;1312.8205950999995;None;1314.3204532999994;None;['8'];[0.4202746000000843];1314.3204532999994;None;;;;;;;Emoconpilot046;2022_Jan_07_1217;BackwardMask;2020.2.8;120.1534599994396;
;f;040_y_f_s_a.jpg;sad;7;21;f;021_o_f_h_a.jpg;happy;incongruent;9;match;;130;150;;3;172;block2_Pilot_2;40;s_h;s_h_strong;;;;;0;1;1;1;0;70;70;70;;;;;;;;;1317.3209995000002;None;1318.7622987;1319.0549723999998;1319.0549723999998;1319.0800032000002;1319.0800032000002;1319.1207686000002;1319.1207686000002;None;8;0;0.6842348999998649;1319.1207686000002;None;1320.6209587999997;None;['8'];[0.29575739999927464];1320.6209587999997;None;;;;;;;Emoconpilot046;2022_Jan_07_1217;BackwardMask;2020.2.8;120.1534599994396;
;m;013_y_m_s_a.jpg;sad;7;16;m;016_y_m_n_a.jpg;neutral;incongruent;8;match;;130;170;;1;238;block2_Pilot_2;13;s_n;s_n_strong;;;;;0;1;1;1;0;71;71;71;;;;;;;;;1323.6215268;None;1325.6120307999995;1325.9051606999997;1325.9051606999997;1325.9134026999996;1325.9134026999996;1325.9540561999997;1325.9540561999997;None;None;0;;1325.9540561999997;None;1327.4541783;None;['9'];[0.4227159000001848];1327.4541783;None;;;;;;;Emoconpilot046;2022_Jan_07_1217;BackwardMask;2020.2.8;120.1534599994396;
;m;008_y_m_s_a.jpg;sad;7;12;f;012_o_f_h_a.jpg;happy;incongruent;9;mismatch;;130;150;;18;238;block2_Pilot_2;8;s_h;s_h_weak;;;;;0;1;1;1;0;72;72;72;;;;;;;;;1330.4543806999995;None;1332.4597070999994;1332.7556523999997;1332.7556523999997;1332.9052557999998;1332.9052557999998;1332.9461329;1332.9461329;None;7;0;0.42676769999980024;1332.9461329;None;1334.4463183000003;None;['7'];[0.2625744000006307];1334.4463183000003;None;;;;;;;Emoconpilot046;2022_Jan_07_1217;BackwardMask;2020.2.8;120.1534599994396;
;m;013_y_m_s_a.jpg;sad;7;21;f;021_o_f_n_a.jpg;neutral;incongruent;8;mismatch;;130;170;;1;238;block2_Pilot_2;13;s_n;s_n_weak;;;;;0;1;1;1;0;73;73;73;;;;;;;;;1337.4468485000002;None;1339.4374248999998;1339.7307190999995;1339.7307190999995;1339.7385597999996;1339.7385597999996;1339.7794638;1339.7794638;None;None;0;;1339.7794638;None;1341.2794048;None;['9'];[0.38150599999971746];1341.2794048;None;;;;;;;Emoconpilot046;2022_Jan_07_1217;BackwardMask;2020.2.8;120.1534599994396;
;f;019_m_f_s_a.jpg;sad;7;12;f;012_o_f_n_a.jpg;neutral;incongruent;8;match;;130;170;;2;208;block2_Pilot_2;19;s_n;s_n_weak;;;;;0;1;1;1;0;74;74;74;;;;;;;;;1344.2808143999996;None;1346.0332054999994;1346.3224526;1346.3224526;1346.3388959999997;1346.3388959999997;1346.3796744999995;1346.3796744999995;None;None;0;;1346.3796744999995;None;1347.8795889999997;None;['9'];[0.5171744999997827];1347.8795889999997;None;;;;;;;Emoconpilot046;2022_Jan_07_1217;BackwardMask;2020.2.8;120.1534599994396;
;m;016_y_m_s_a.jpg;sad;7;19;f;019_m_f_n_a.jpg;neutral;incongruent;8;mismatch;;130;170;;18;238;block2_Pilot_2;16;s_n;s_n_strong;;;;;0;1;1;1;0;75;75;75;;;;;;;;;1350.8804126;None;1352.8707570000001;1353.1640250999994;1353.1640250999994;1353.3140252999997;1353.3140252999997;1353.3547384999997;1353.3547384999997;None;7;0;0.45022530000005645;1353.3547384999997;None;1354.8551408999997;None;['7'];[0.34978420000061305];1354.8551408999997;None;;;;;;;Emoconpilot046;2022_Jan_07_1217;BackwardMask;2020.2.8;120.1534599994396;
;f;040_y_f_n_a.jpg;neutral;8;27;m;027_o_m_s_a.jpg;sad;incongruent;7;mismatch;;140;160;;1;238;block2_Pilot_2;40;n_s;n_s_weak;;;;;0;1;1;1;0;76;76;76;;;;;;;;;1357.8559308999997;None;1359.8583695000002;1360.1479757000002;1360.1479757000002;1360.1557348000001;1360.1557348000001;1360.1966103;1360.1966103;None;None;0;;1360.1966103;None;1361.6967377999995;None;['9'];[0.3241430999996737];1361.6967377999995;None;;;;;;;Emoconpilot046;2022_Jan_07_1217;BackwardMask;2020.2.8;120.1534599994396;
