Person;primeGender;prime;primeEmotion;corrAnsPrime;targetPerson;targetGender;target;targetEmotion;Cond;corrAnsTar;gender;condition;ID_primer;ID_target;PrimerTime;PrimerTime120;JitterTime;conditionsFile;primePerson;emotion_condition;Condition;example.thisRepN;example.thisTrialN;example.thisN;example.thisIndex;readinBlocks.thisRepN;readinBlocks.thisTrialN;readinBlocks.thisN;readinBlocks.thisIndex;trials.thisRepN;trials.thisTrialN;trials.thisN;trials.thisIndex;text_intro.started;text_intro.stopped;text_probe.started;text_probe.stopped;key_resp_2.keys;key_resp_2.rt;key_resp_2.started;key_resp_2.stopped;polygon_ISI.started;polygon_ISI.stopped;polygon.started;polygon.stopped;primerImage.started;primerImage.stopped;maskImage.started;maskImage.stopped;response.started;response.stopped;key_resp.keys;key_resp.corr;key_resp.started;key_resp.stopped;text.started;text.stopped;key_resp_Rating.keys;key_resp_Rating.rt;key_resp_Rating.started;key_resp_Rating.stopped;key_resp.rt;text_start.started;text_start.stopped;text_pause.started;text_pause.stopped;text_ende.started;text_ende.stopped;participant;date;expName;psychopyVersion;frameRate;
;;;;;;;;;;;;;;;;;;;;;;;;;;;;;;;;;;15.937741400000021;20.89927780000002;20.89927780000002;None;7;14.277627100000018;15.937741400000021;None;;;;;;;;;;;;;;;;;;;;;;;;;;;;Emoconpilot045;2022_Jan_07_1134;BackwardMask;2020.2.8;120.01315344162764;
2;f;1113_y_f_s_a.jpg;sad;7;1;m;1111_m_m_h_a.jpg;happy;incongruent;9;mix;s+h;130;150;1;2;148;;;;;0;0;0;0;;;;;;;;;;;;;;;;;30.302875900000032;None;31.55224180000002;31.864270100000027;31.864270100000027;31.881295499999993;31.881295499999993;31.91494910000003;31.91494910000003;None;None;0;31.91494910000003;None;33.415516999999994;None;['9'];[0.83178079999999];33.415516999999994;None;;;;;;;;Emoconpilot045;2022_Jan_07_1134;BackwardMask;2020.2.8;120.01315344162764;
2;f;1111_m_m_h_a.jpg;happy;9;3;f;1113_y_f_s_a.jpg;sad;incongruent;7;mix;h+s;120;160;9;18;195;;;;;0;1;1;1;;;;;;;;;;;;;;;;;36.41577049999998;None;38.06890439999998;38.358389800000026;38.358389800000026;38.5075487;38.5075487;38.5484094;38.5484094;None;9;0;38.5484094;None;40.04860019999998;None;['7'];[0.5587957000000188];40.04860019999998;None;0.6508967000000325;;;;;;;Emoconpilot045;2022_Jan_07_1134;BackwardMask;2020.2.8;120.01315344162764;
2;f;1112_m_f_n_a.jpg;neutral;8;2;f;1112_m_f_n_a.jpg;neutral;congruent;8;match;n+n;140;170;9;18;134;;;;;0;2;2;2;;;;;;;;;;;;;;;;;43.04882360000002;None;44.1945479;44.48345650000002;44.48345650000002;44.6326976;44.6326976;44.67356570000001;44.67356570000001;None;8;1;44.67356570000001;None;46.17382010000003;None;['7'];[0.9135237000000416];46.17382010000003;None;0.7096970000000056;;;;;;;Emoconpilot045;2022_Jan_07_1134;BackwardMask;2020.2.8;120.01315344162764;
;m;033_o_m_h_a.jpg;happy;9;30;f;030_o_f_n_a.jpg;neutral;incongruent;8;mismatch;;120;170;;18;238;block1_Pilot_2;33;h_n;h_n_strong;;;;;0;0;0;0;0;0;0;0;;;;;;;;;50.22246329999999;None;52.22274059999998;52.51646230000003;52.51646230000003;52.66644270000003;52.66644270000003;52.7070904;52.7070904;None;9;0;52.7070904;None;54.207429700000006;None;['7'];[0.5040070000000014];54.207429700000006;None;0.5402655999999979;49.173789400000004;None;None;None;;;Emoconpilot045;2022_Jan_07_1134;BackwardMask;2020.2.8;120.01315344162764;
;m;004_o_m_h_a.jpg;happy;9;12;f;012_o_f_h_a.jpg;happy;congruent;9;mismatch;;120;150;;2;218;block1_Pilot_2;4;h_h;h_h_weak;;;;;0;0;0;0;0;1;1;1;;;;;;;;;57.208659400000016;None;59.070587200000006;59.36747920000002;59.36747920000002;59.3834952;59.3834952;59.42422250000001;59.42422250000001;None;9;1;59.42422250000001;None;60.92410190000001;None;['8'];[0.5793058999999516];60.92410190000001;None;0.7750813000000107;;;;;;;Emoconpilot045;2022_Jan_07_1134;BackwardMask;2020.2.8;120.01315344162764;
;f;012_o_f_h_a.jpg;happy;9;33;m;033_o_m_h_a.jpg;happy;congruent;9;mismatch;;120;150;;2;140;block1_Pilot_2;12;h_h;h_h_weak;;;;;0;0;0;0;0;2;2;2;;;;;;;;;63.924496300000015;None;65.10938619999999;65.40018240000003;65.40018240000003;65.4168994;65.4168994;65.45784840000002;65.45784840000002;None;9;1;65.45784840000002;None;66.95756420000001;None;['8'];[0.553704200000027];66.95756420000001;None;0.6693831000000046;;;;;;;Emoconpilot045;2022_Jan_07_1134;BackwardMask;2020.2.8;120.01315344162764;
;f;040_y_f_n_a.jpg;neutral;8;40;f;040_y_f_h_a.jpg;happy;incongruent;9;match;;140;150;;2;192;block1_Pilot_2;40;n_h;n_h_weak;;;;;0;0;0;0;0;3;3;3;;;;;;;;;69.95917510000001;None;71.59289370000002;71.88421869999999;71.88421869999999;71.90041370000003;71.90041370000003;71.94115610000003;71.94115610000003;None;8;0;71.94115610000003;None;73.44147940000002;None;['8'];[0.373882100000003];73.44147940000002;None;0.64205800000002;;;;;;;Emoconpilot045;2022_Jan_07_1134;BackwardMask;2020.2.8;120.01315344162764;
;m;013_y_m_s_a.jpg;sad;7;16;m;016_y_m_n_a.jpg;neutral;incongruent;8;match;;130;170;;3;155;block1_Pilot_2;13;s_n;s_n_weak;;;;;0;0;0;0;0;4;4;4;;;;;;;;;76.44193650000003;None;77.7472347;78.0422642;78.0422642;78.067196;78.067196;78.1080628;78.1080628;None;7;0;78.1080628;None;79.608511;None;['8'];[0.5186862000000474];79.608511;None;0.8993867000000364;;;;;;;Emoconpilot045;2022_Jan_07_1134;BackwardMask;2020.2.8;120.01315344162764;
;f;012_o_f_h_a.jpg;happy;9;21;f;021_o_f_h_a.jpg;happy;congruent;9;match;;120;150;;2;216;block1_Pilot_2;12;h_h;h_h_strong;;;;;0;0;0;0;0;5;5;5;;;;;;;;;82.60869199999999;None;84.41560540000003;84.70909229999998;84.70909229999998;84.72564170000001;84.72564170000001;84.76657860000003;84.76657860000003;None;9;1;84.76657860000003;None;86.26632429999998;None;['8'];[0.5489685000000009];86.26632429999998;None;0.6967274999999518;;;;;;;Emoconpilot045;2022_Jan_07_1134;BackwardMask;2020.2.8;120.01315344162764;
;f;040_y_f_s_a.jpg;sad;7;40;f;040_y_f_h_a.jpg;happy;incongruent;9;match;;130;150;;1;238;block1_Pilot_2;40;s_h;s_h_weak;;;;;0;0;0;0;0;6;6;6;;;;;;;;;89.26635869999998;None;91.26374030000002;91.55881439999999;91.55881439999999;91.5671609;91.5671609;91.60783619999998;91.60783619999998;None;None;0;91.60783619999998;None;93.10793980000003;None;['9'];[0.6592535000000339];93.10793980000003;None;;;;;;;;Emoconpilot045;2022_Jan_07_1134;BackwardMask;2020.2.8;120.01315344162764;
;m;033_o_m_n_a.jpg;neutral;8;27;m;027_o_m_n_a.jpg;neutral;congruent;8;match;;140;170;;18;238;block1_Pilot_2;33;n_n;n_n_weak;;;;;0;0;0;0;0;7;7;7;;;;;;;;;96.1080944;None;98.11780260000003;98.40966649999999;98.40966649999999;98.5589932;98.5589932;98.59965200000002;98.59965200000002;None;8;1;98.59965200000002;None;100.099773;None;['7'];[0.5396134000000075];100.099773;None;0.6236040000000003;;;;;;;Emoconpilot045;2022_Jan_07_1134;BackwardMask;2020.2.8;120.01315344162764;
;f;040_y_f_h_a.jpg;happy;9;19;f;019_m_f_n_a.jpg;neutral;incongruent;8;match;;120;170;;1;238;block1_Pilot_2;40;h_n;h_n_strong;;;;;0;0;0;0;0;8;8;8;;;;;;;;;103.09991349999999;None;105.09638129999999;105.3842612;105.3842612;105.39243869999999;105.39243869999999;105.43316109999998;105.43316109999998;None;None;0;105.43316109999998;None;106.93317019999998;None;['9'];[0.5381202000000371];106.93317019999998;None;;;;;;;;Emoconpilot045;2022_Jan_07_1134;BackwardMask;2020.2.8;120.01315344162764;
;m;013_y_m_h_a.jpg;happy;9;12;f;012_o_f_s_a.jpg;sad;incongruent;7;mismatch;;120;160;;3;198;block1_Pilot_2;13;h_s;h_s_weak;;;;;0;0;0;0;0;9;9;9;;;;;;;;;109.93332360000002;None;111.6113435;111.9011482;111.9011482;111.92572440000001;111.92572440000001;111.96657810000002;111.96657810000002;None;9;0;111.96657810000002;None;113.46675400000001;None;['7'];[0.5645531000000119];113.46675400000001;None;0.7046032000000082;;;;;;;Emoconpilot045;2022_Jan_07_1134;BackwardMask;2020.2.8;120.01315344162764;
;m;008_y_m_h_a.jpg;happy;9;4;m;004_o_m_n_a.jpg;neutral;incongruent;8;match;;120;170;;18;150;block1_Pilot_2;8;h_n;h_n_strong;;;;;0;0;0;0;0;10;10;10;;;;;;;;;116.46686280000003;None;117.73273070000002;118.02626910000001;118.02626910000001;118.17601060000001;118.17601060000001;118.21670359999999;118.21670359999999;None;9;0;118.21670359999999;None;119.71681120000002;None;['7'];[0.5064855999999622];119.71681120000002;None;0.5425222000000076;;;;;;;Emoconpilot045;2022_Jan_07_1134;BackwardMask;2020.2.8;120.01315344162764;
;f;019_m_f_h_a.jpg;happy;9;27;m;027_o_m_s_a.jpg;sad;incongruent;7;mismatch;;120;160;;1;238;block1_Pilot_2;19;h_s;h_s_weak;;;;;0;0;0;0;0;11;11;11;;;;;;;;;122.7169749;None;124.91390099999998;125.20949770000001;125.20949770000001;125.21771759999999;125.21771759999999;125.2585718;125.2585718;None;None;0;125.2585718;None;126.7586666;None;['9'];[0.46463990000000877];126.7586666;None;;;;;;;;Emoconpilot045;2022_Jan_07_1134;BackwardMask;2020.2.8;120.01315344162764;
;m;016_y_m_s_a.jpg;sad;7;4;m;004_o_m_s_a.jpg;sad;congruent;7;match;;130;160;;18;142;block1_Pilot_2;16;s_s;s_s_strong;;;;;0;0;0;0;0;12;12;12;;;;;;;;;129.75879519999998;None;130.95641229999998;131.25175980000003;131.25175980000003;131.4016194;131.4016194;131.4420732;131.4420732;None;7;1;131.4420732;None;132.942175;None;['7'];[0.7852961000000391];132.942175;None;0.7253036999999836;;;;;;;Emoconpilot045;2022_Jan_07_1134;BackwardMask;2020.2.8;120.01315344162764;
;f;021_o_f_n_a.jpg;neutral;8;21;f;021_o_f_h_a.jpg;happy;incongruent;9;match;;140;150;;3;171;block1_Pilot_2;21;n_h;n_h_weak;;;;;0;0;0;0;0;13;13;13;;;;;;;;;135.9435501;None;137.4414171;137.7355246;137.7355246;137.7600611;137.7600611;137.80060849999998;137.80060849999998;None;8;0;137.80060849999998;None;139.30107010000003;None;['8'];[0.35400079999999434];139.30107010000003;None;0.8147142999999915;;;;;;;Emoconpilot045;2022_Jan_07_1134;BackwardMask;2020.2.8;120.01315344162764;
;f;012_o_f_h_a.jpg;happy;9;13;m;013_y_m_h_a.jpg;happy;congruent;9;mismatch;;120;150;;3;213;block1_Pilot_2;12;h_h;h_h_weak;;;;;0;0;0;0;0;14;14;14;;;;;;;;;142.3007064;None;144.0832654;144.3768262;144.3768262;144.40174930000003;144.40174930000003;144.4422724;144.4422724;None;9;1;144.4422724;None;145.9424845;None;['7'];[0.4327468999999837];145.9424845;None;0.5968176000000085;;;;;;;Emoconpilot045;2022_Jan_07_1134;BackwardMask;2020.2.8;120.01315344162764;
;f;021_o_f_s_a.jpg;sad;7;27;m;027_o_m_n_a.jpg;neutral;incongruent;8;mismatch;;130;170;;3;174;block1_Pilot_2;21;s_n;s_n_weak;;;;;0;0;0;0;0;15;15;15;;;;;;;;;148.9427686;None;150.4225582;150.7186207;150.7186207;150.74390150000002;150.74390150000002;150.78489829999998;150.78489829999998;None;8;1;150.78489829999998;None;152.28459590000003;None;['8'];[0.3785605999999575];152.28459590000003;None;1.0462036000000126;;;;;;;Emoconpilot045;2022_Jan_07_1134;BackwardMask;2020.2.8;120.01315344162764;
;f;019_m_f_n_a.jpg;neutral;8;19;f;019_m_f_h_a.jpg;happy;incongruent;9;match;;140;150;;3;238;block1_Pilot_2;19;n_h;n_h_weak;;;;;0;0;0;0;0;16;16;16;;;;;;;;;155.28482119999998;None;157.3573936;157.6539668;157.6539668;157.6772536;157.6772536;157.71743590000003;157.71743590000003;None;8;0;157.71743590000003;None;159.2179975;None;['7'];[0.3573104000000171];159.2179975;None;0.5857929000000013;;;;;;;Emoconpilot045;2022_Jan_07_1134;BackwardMask;2020.2.8;120.01315344162764;
;f;028_y_f_n_a.jpg;neutral;8;30;f;030_o_f_s_a.jpg;sad;incongruent;7;match;;140;160;;18;219;block1_Pilot_2;28;n_s;n_s_weak;;;;;0;0;0;0;0;17;17;17;;;;;;;;;162.2189362;None;164.07496319999998;164.36933330000002;164.36933330000002;164.5188782;164.5188782;164.5595752;164.5595752;None;8;0;164.5595752;None;166.05939120000002;None;['7'];[0.31575120000002244];166.05939120000002;None;0.5196152999999981;;;;;;;Emoconpilot045;2022_Jan_07_1134;BackwardMask;2020.2.8;120.01315344162764;
;m;008_y_m_h_a.jpg;happy;9;8;m;008_y_m_s_a.jpg;sad;incongruent;7;match;;120;160;;3;176;block1_Pilot_2;8;h_s;h_s_weak;;;;;0;0;0;0;0;18;18;18;;;;;;;;;169.0599819;None;170.5378769;170.8271743;170.8271743;170.852002;170.852002;170.89280770000002;170.89280770000002;None;9;0;170.89280770000002;None;172.3928566;None;['7'];[0.30235370000002604];172.3928566;None;0.6023905000000127;;;;;;;Emoconpilot045;2022_Jan_07_1134;BackwardMask;2020.2.8;120.01315344162764;
;f;019_m_f_h_a.jpg;happy;9;33;m;033_o_m_n_a.jpg;neutral;incongruent;8;mismatch;;120;170;;18;136;block1_Pilot_2;19;h_n;h_n_weak;;;;;0;0;0;0;0;19;19;19;;;;;;;;;175.3932207;None;176.53533380000002;176.8274656;176.8274656;176.9772149;176.9772149;177.01800319999998;177.01800319999998;None;9;0;177.01800319999998;None;178.51825390000002;None;['7'];[0.38487649999996165];178.51825390000002;None;0.4612005000000181;;;;;;;Emoconpilot045;2022_Jan_07_1134;BackwardMask;2020.2.8;120.01315344162764;
;m;013_y_m_n_a.jpg;neutral;8;12;f;012_o_f_s_a.jpg;sad;incongruent;7;mismatch;;140;160;;2;132;block1_Pilot_2;13;n_s;n_s_strong;;;;;0;0;0;0;0;20;20;20;;;;;;;;;181.51840610000002;None;182.72473750000003;183.01984690000003;183.01984690000003;183.0359367;183.0359367;183.07630650000002;183.07630650000002;None;8;0;183.07630650000002;None;184.5763603;None;['8'];[0.31877959999997074];184.5763603;None;0.7069616999999653;;;;;;;Emoconpilot045;2022_Jan_07_1134;BackwardMask;2020.2.8;120.01315344162764;
;f;040_y_f_s_a.jpg;sad;7;8;m;008_y_m_h_a.jpg;happy;incongruent;9;mismatch;;130;150;;2;175;block1_Pilot_2;40;s_h;s_h_weak;;;;;0;0;0;0;0;21;21;21;;;;;;;;;187.5766118;None;189.0452205;189.33601330000002;189.33601330000002;189.35245949999998;189.35245949999998;189.39316220000003;189.39316220000003;None;8;0;189.39316220000003;None;190.8932427;None;['8'];[0.32202089999998407];190.8932427;None;0.766124399999967;;;;;;;Emoconpilot045;2022_Jan_07_1134;BackwardMask;2020.2.8;120.01315344162764;
;m;004_o_m_h_a.jpg;happy;9;40;f;040_y_f_s_a.jpg;sad;incongruent;7;mismatch;;120;160;;2;193;block1_Pilot_2;4;h_s;h_s_weak;;;;;0;0;0;0;0;22;22;22;;;;;;;;;193.8934161;None;195.53620229999999;195.82820239999998;195.82820239999998;195.8444274;195.8444274;195.88500480000002;195.88500480000002;None;9;0;195.88500480000002;None;197.3850611;None;['7'];[0.3502176000000077];197.3850611;None;0.7701334999999858;;;;;;;Emoconpilot045;2022_Jan_07_1134;BackwardMask;2020.2.8;120.01315344162764;
;f;028_y_f_s_a.jpg;sad;7;13;m;013_y_m_n_a.jpg;neutral;incongruent;8;mismatch;;130;170;;2;126;block1_Pilot_2;28;s_n;s_n_weak;;;;;0;0;0;0;0;23;23;23;;;;;;;;;200.3851615;None;201.452894;201.74506190000002;201.74506190000002;201.7611828;201.7611828;201.8017743;201.8017743;None;7;0;201.8017743;None;203.3019613;None;['8'];[0.35323809999999867];203.3019613;None;0.8374448000000143;;;;;;;Emoconpilot045;2022_Jan_07_1134;BackwardMask;2020.2.8;120.01315344162764;
;m;004_o_m_h_a.jpg;happy;9;40;f;040_y_f_n_a.jpg;neutral;incongruent;8;mismatch;;120;170;;3;146;block1_Pilot_2;4;h_n;h_n_strong;;;;;0;0;0;0;0;24;24;24;;;;;;;;;206.30223959999998;None;207.55056399999998;207.8452569;207.8452569;207.86976260000003;207.86976260000003;207.91038410000002;207.91038410000002;None;9;0;207.91038410000002;None;209.41028730000002;None;['8'];[0.492913700000031];209.41028730000002;None;0.6888139999999794;;;;;;;Emoconpilot045;2022_Jan_07_1134;BackwardMask;2020.2.8;120.01315344162764;
;m;008_y_m_s_a.jpg;sad;7;30;f;030_o_f_n_a.jpg;neutral;incongruent;8;mismatch;;130;170;;3;132;block1_Pilot_2;8;s_n;s_n_strong;;;;;0;0;0;0;0;25;25;25;;;;;;;;;212.41063970000002;None;213.53529260000002;213.8282798;213.8282798;213.85279119999998;213.85279119999998;213.8936065;213.8936065;None;7;0;213.8936065;None;215.3942428;None;['7'];[0.32490450000000237];215.3942428;None;0.6095257999999717;;;;;;;Emoconpilot045;2022_Jan_07_1134;BackwardMask;2020.2.8;120.01315344162764;
;f;040_y_f_n_a.jpg;neutral;8;40;f;040_y_f_s_a.jpg;sad;incongruent;7;match;;140;160;;2;123;block1_Pilot_2;40;n_s;n_s_weak;;;;;0;0;0;0;0;26;26;26;;;;;;;;;218.3938922;None;219.43881410000003;219.7287095;219.7287095;219.7450292;219.7450292;219.7854538;219.7854538;None;8;0;219.7854538;None;221.2859604;None;['8'];[0.29743489999998474];221.2859604;None;0.6618153999999663;;;;;;;Emoconpilot045;2022_Jan_07_1134;BackwardMask;2020.2.8;120.01315344162764;
;f;028_y_f_s_a.jpg;sad;7;27;m;027_o_m_s_a.jpg;sad;congruent;7;mismatch;;130;160;;3;159;block1_Pilot_2;28;s_s;s_s_weak;;;;;0;0;0;0;0;27;27;27;;;;;;;;;224.2861387;None;225.62341920000003;225.9121863;225.9121863;225.93678309999999;225.93678309999999;225.9776578;225.9776578;None;None;0;225.9776578;None;227.4775033;None;['9'];[0.8819442999999865];227.4775033;None;;;;;;;;Emoconpilot045;2022_Jan_07_1134;BackwardMask;2020.2.8;120.01315344162764;
;f;012_o_f_s_a.jpg;sad;7;27;m;027_o_m_s_a.jpg;sad;congruent;7;mismatch;;130;160;;18;166;block1_Pilot_2;12;s_s;s_s_weak;;;;;0;0;0;0;0;28;28;28;;;;;;;;;230.4778942;None;231.873165;232.16195209999998;232.16195209999998;232.31193190000002;232.31193190000002;232.3528201;232.3528201;None;7;1;232.3528201;None;233.8535654;None;['7'];[0.289569599999993];233.8535654;None;0.5744657999999845;;;;;;;Emoconpilot045;2022_Jan_07_1134;BackwardMask;2020.2.8;120.01315344162764;
;f;028_y_f_n_a.jpg;neutral;8;28;f;028_y_f_h_a.jpg;happy;incongruent;9;match;;140;150;;2;186;block1_Pilot_2;28;n_h;n_h_weak;;;;;0;0;0;0;0;29;29;29;;;;;;;;;236.8526045;None;238.46137410000003;238.75403409999998;238.75403409999998;238.77044580000003;238.77044580000003;238.81089520000003;238.81089520000003;None;8;0;238.81089520000003;None;240.3108849;None;['8'];[0.776333999999963];240.3108849;None;0.6922478999999839;;;;;;;Emoconpilot045;2022_Jan_07_1134;BackwardMask;2020.2.8;120.01315344162764;
;m;027_o_m_n_a.jpg;neutral;8;16;m;016_y_m_n_a.jpg;neutral;congruent;8;match;;140;170;;2;188;block1_Pilot_2;27;n_n;n_n_weak;;;;;0;0;0;0;0;30;30;30;;;;;;;;;243.3110814;None;244.90159459999998;245.1956746;245.1956746;245.2117266;245.2117266;245.25254350000003;245.25254350000003;None;8;1;245.25254350000003;None;246.7527193;None;['8'];[0.2784439000000134];246.7527193;None;0.6827210999999807;;;;;;;Emoconpilot045;2022_Jan_07_1134;BackwardMask;2020.2.8;120.01315344162764;
;f;012_o_f_s_a.jpg;sad;7;13;m;013_y_m_n_a.jpg;neutral;incongruent;8;mismatch;;130;170;;3;162;block1_Pilot_2;12;s_n;s_n_strong;;;;;0;0;0;0;0;31;31;31;;;;;;;;;249.75358359999998;None;251.10554140000002;251.4036733;251.4036733;251.4287396;251.4287396;251.4694082;251.4694082;None;None;0;251.4694082;None;252.96962399999998;None;['9'];[0.7014381000000185];252.96962399999998;None;;;;;;;;Emoconpilot045;2022_Jan_07_1134;BackwardMask;2020.2.8;120.01315344162764;
;f;012_o_f_s_a.jpg;sad;7;16;m;016_y_m_h_a.jpg;happy;incongruent;9;mismatch;;130;150;;1;238;block1_Pilot_2;12;s_h;s_h_strong;;;;;0;0;0;0;0;32;32;32;;;;;;;;;255.97002080000001;None;257.95640650000007;258.2541807;258.2541807;258.26217600000007;258.26217600000007;258.303137;258.303137;None;None;0;258.303137;None;259.8029243000001;None;['9'];[0.47618290000002617];259.8029243000001;None;;;;;;;;Emoconpilot045;2022_Jan_07_1134;BackwardMask;2020.2.8;120.01315344162764;
;f;028_y_f_n_a.jpg;neutral;8;21;f;021_o_f_n_a.jpg;neutral;congruent;8;match;;140;170;;3;220;block1_Pilot_2;28;n_n;n_n_weak;;;;;0;0;0;0;0;33;33;33;;;;;;;;;262.80309120000004;None;264.65905710000004;264.9543070000001;264.9543070000001;264.9787742000001;264.9787742000001;265.0196578;265.0196578;None;8;1;265.0196578;None;266.51990880000005;None;['7'];[0.3031877999999324];266.51990880000005;None;0.7155388999999559;;;;;;;Emoconpilot045;2022_Jan_07_1134;BackwardMask;2020.2.8;120.01315344162764;
;f;040_y_f_h_a.jpg;happy;9;33;m;033_o_m_s_a.jpg;sad;incongruent;7;mismatch;;120;160;;2;194;block1_Pilot_2;40;h_s;h_s_weak;;;;;0;0;0;0;0;34;34;34;;;;;;;;;269.51990090000004;None;271.14458890000003;271.43788730000006;271.43788730000006;271.4542781;271.4542781;271.4948178000001;271.4948178000001;None;9;0;271.4948178000001;None;272.9948687;None;['7'];[0.26822340000001077];272.9948687;None;0.6483636000000388;;;;;;;Emoconpilot045;2022_Jan_07_1134;BackwardMask;2020.2.8;120.01315344162764;
;f;028_y_f_h_a.jpg;happy;9;8;m;008_y_m_n_a.jpg;neutral;incongruent;8;mismatch;;120;170;;3;162;block1_Pilot_2;28;h_n;h_n_weak;;;;;0;0;0;0;0;35;35;35;;;;;;;;;275.99520640000003;None;277.36513220000006;277.6548487;277.6548487;277.67957980000006;277.67957980000006;277.7202839;277.7202839;None;9;0;277.7202839;None;279.2205329000001;None;['7'];[0.338777299999947];279.2205329000001;None;0.5910241000000269;;;;;;;Emoconpilot045;2022_Jan_07_1134;BackwardMask;2020.2.8;120.01315344162764;
;m;013_y_m_n_a.jpg;neutral;8;27;m;027_o_m_n_a.jpg;neutral;congruent;8;match;;140;170;;2;126;block1_Pilot_2;13;n_n;n_n_strong;;;;;0;0;0;0;0;36;36;36;;;;;;;;;282.22134860000006;None;283.3231251000001;283.6136167000001;283.6136167000001;283.6296050000001;283.6296050000001;283.6704829;283.6704829;None;8;1;283.6704829;None;285.1706836000001;None;['8'];[1.3325865000000476];285.1706836000001;None;0.7769440000000714;;;;;;;Emoconpilot045;2022_Jan_07_1134;BackwardMask;2020.2.8;120.01315344162764;
;f;028_y_f_s_a.jpg;sad;7;19;f;019_m_f_n_a.jpg;neutral;incongruent;8;match;;130;170;;2;156;block1_Pilot_2;28;s_n;s_n_strong;;;;;0;0;0;0;0;37;37;37;;;;;;;;;288.1706865;None;289.4813305;289.7714452;289.7714452;289.7879527;289.7879527;289.82892060000006;289.82892060000006;None;7;0;289.82892060000006;None;291.3288069;None;['8'];[0.31844599999999446];291.3288069;None;1.0904061999999612;;;;;;;Emoconpilot045;2022_Jan_07_1134;BackwardMask;2020.2.8;120.01315344162764;
;m;016_y_m_s_a.jpg;sad;7;19;f;019_m_f_n_a.jpg;neutral;incongruent;8;mismatch;;130;170;;3;138;block1_Pilot_2;16;s_n;s_n_weak;;;;;0;0;0;0;0;38;38;38;;;;;;;;;294.32986330000006;None;295.48698220000006;295.7797313;295.7797313;295.8046054;295.8046054;295.8456188;295.8456188;None;7;0;295.8456188;None;297.34606500000007;None;['8'];[0.3013601000000108];297.34606500000007;None;0.7855809999999792;;;;;;;Emoconpilot045;2022_Jan_07_1134;BackwardMask;2020.2.8;120.01315344162764;
;m;033_o_m_s_a.jpg;sad;7;27;m;027_o_m_n_a.jpg;neutral;incongruent;8;match;;130;170;;3;120;block1_Pilot_2;33;s_n;s_n_strong;;;;;0;0;0;0;0;39;39;39;;;;;;;;;300.3463948;None;301.35813440000004;301.64689280000005;301.64689280000005;301.67150860000004;301.67150860000004;301.7124752000001;301.7124752000001;None;None;0;301.7124752000001;None;303.2126334000001;None;['9'];[0.5786157999999659];303.2126334000001;None;;;;;;;;Emoconpilot045;2022_Jan_07_1134;BackwardMask;2020.2.8;120.01315344162764;
;f;040_y_f_s_a.jpg;sad;7;33;m;033_o_m_n_a.jpg;neutral;incongruent;8;mismatch;;130;170;;1;238;block1_Pilot_2;40;s_n;s_n_weak;;;;;0;0;0;0;0;40;40;40;;;;;;;;;306.21305300000006;None;308.2048477000001;308.4970033000001;308.4970033000001;308.5050037000001;308.5050037000001;308.5460312;308.5460312;None;None;0;308.5460312;None;310.0459999000001;None;['9'];[0.441428999999971];310.0459999000001;None;;;;;;;;Emoconpilot045;2022_Jan_07_1134;BackwardMask;2020.2.8;120.01315344162764;
;f;021_o_f_n_a.jpg;neutral;8;19;f;019_m_f_s_a.jpg;sad;incongruent;7;match;;140;160;;1;238;block1_Pilot_2;21;n_s;n_s_strong;;;;;0;0;0;0;0;41;41;41;;;;;;;;;313.04713030000005;None;315.0553271;315.34753480000006;315.34753480000006;315.3551016;315.3551016;315.39609300000006;315.39609300000006;None;None;0;315.39609300000006;None;316.8970643;None;['9'];[0.43026180000003933];316.8970643;None;;;;;;;;Emoconpilot045;2022_Jan_07_1134;BackwardMask;2020.2.8;120.01315344162764;
;m;033_o_m_h_a.jpg;happy;9;27;m;027_o_m_h_a.jpg;happy;congruent;9;match;;120;150;;3;134;block1_Pilot_2;33;h_h;h_h_weak;;;;;0;0;0;0;0;42;42;42;;;;;;;;;319.8968374;None;321.02116090000004;321.3139308;321.3139308;321.3386373000001;321.3386373000001;321.3795162;321.3795162;None;9;1;321.3795162;None;322.87985320000007;None;['7'];[0.4073918000000276];322.87985320000007;None;0.45986440000001494;;;;;;;Emoconpilot045;2022_Jan_07_1134;BackwardMask;2020.2.8;120.01315344162764;
;f;040_y_f_s_a.jpg;sad;7;4;m;004_o_m_h_a.jpg;happy;incongruent;9;mismatch;;130;150;;2;225;block1_Pilot_2;40;s_h;s_h_strong;;;;;0;0;0;0;0;43;43;43;;;;;;;;;325.88041110000006;None;327.76286790000006;328.0556481;328.0556481;328.07200550000005;328.07200550000005;328.11301190000006;328.11301190000006;None;None;0;328.11301190000006;None;329.6133396;None;['9'];[0.4180021999999326];329.6133396;None;;;;;;;;Emoconpilot045;2022_Jan_07_1134;BackwardMask;2020.2.8;120.01315344162764;
;m;027_o_m_s_a.jpg;sad;7;21;f;021_o_f_n_a.jpg;neutral;incongruent;8;mismatch;;130;170;;18;238;block1_Pilot_2;27;s_n;s_n_weak;;;;;0;0;0;0;0;44;44;44;;;;;;;;;332.61391920000005;None;334.6121643;334.9057996;334.9057996;335.0554278000001;335.0554278000001;335.09661040000003;335.09661040000003;None;7;0;335.09661040000003;None;336.5967198000001;None;['7'];[0.3065719999999601];336.5967198000001;None;1.0705236000000014;;;;;;;Emoconpilot045;2022_Jan_07_1134;BackwardMask;2020.2.8;120.01315344162764;
;m;016_y_m_h_a.jpg;happy;9;16;m;016_y_m_n_a.jpg;neutral;incongruent;8;match;;120;170;;3;202;block1_Pilot_2;16;h_n;h_n_weak;;;;;0;0;0;0;0;45;45;45;;;;;;;;;339.5973086;None;341.2934167000001;341.5895164;341.5895164;341.6141176;341.6141176;341.6550105;341.6550105;None;9;0;341.6550105;None;343.15498320000006;None;['7'];[0.2523262000000841];343.15498320000006;None;0.5042885999999953;;;;;;;Emoconpilot045;2022_Jan_07_1134;BackwardMask;2020.2.8;120.01315344162764;
;m;033_o_m_h_a.jpg;happy;9;13;m;013_y_m_n_a.jpg;neutral;incongruent;8;match;;120;170;;2;150;block1_Pilot_2;33;h_n;h_n_weak;;;;;0;0;0;0;0;46;46;46;;;;;;;;;346.1550862;None;347.41313260000004;347.7060616;347.7060616;347.7226025;347.7226025;347.7635392000001;347.7635392000001;None;9;0;347.7635392000001;None;349.26315250000005;None;['7'];[0.8961553999999978];349.26315250000005;None;0.6836365999999998;;;;;;;Emoconpilot045;2022_Jan_07_1134;BackwardMask;2020.2.8;120.01315344162764;
;f;012_o_f_n_a.jpg;neutral;8;16;m;016_y_m_n_a.jpg;neutral;congruent;8;mismatch;;140;170;;1;238;block1_Pilot_2;12;n_n;n_n_strong;;;;;0;0;0;0;0;47;47;47;;;;;;;;;352.26328250000006;None;354.2732872;354.56496790000006;354.56496790000006;354.57258590000004;354.57258590000004;354.6136557;354.6136557;None;None;0;354.6136557;None;356.1135683;None;['9'];[0.381747799999971];356.1135683;None;;;;;;;;Emoconpilot045;2022_Jan_07_1134;BackwardMask;2020.2.8;120.01315344162764;
;f;040_y_f_n_a.jpg;neutral;8;30;f;030_o_f_h_a.jpg;happy;incongruent;9;match;;140;150;;2;194;block1_Pilot_2;40;n_h;n_h_strong;;;;;0;0;0;0;0;48;48;48;;;;;;;;;359.1150086;None;360.7492326;361.0402113;361.0402113;361.0560674000001;361.0560674000001;361.0969745;361.0969745;None;8;0;361.0969745;None;362.59674270000005;None;['8'];[0.8585649999999987];362.59674270000005;None;0.7263980999999831;;;;;;;Emoconpilot045;2022_Jan_07_1134;BackwardMask;2020.2.8;120.01315344162764;
;m;013_y_m_n_a.jpg;neutral;8;12;f;012_o_f_s_a.jpg;sad;incongruent;7;mismatch;;140;160;;18;238;block1_Pilot_2;13;n_s;n_s_weak;;;;;0;0;0;0;0;49;49;49;;;;;;;;;365.5981435;None;367.5993744;367.89023380000003;367.89023380000003;368.0396171;368.0396171;368.08033780000005;368.08033780000005;None;8;0;368.08033780000005;None;369.58060580000006;None;['7'];[0.37074169999993956];369.58060580000006;None;0.4551196999999547;;;;;;;Emoconpilot045;2022_Jan_07_1134;BackwardMask;2020.2.8;120.01315344162764;
;f;012_o_f_h_a.jpg;happy;9;12;f;012_o_f_n_a.jpg;neutral;incongruent;8;match;;120;170;;2;125;block1_Pilot_2;12;h_n;h_n_strong;;;;;0;0;0;0;0;50;50;50;;;;;;;;;372.5811957000001;None;373.6304147000001;373.92328770000006;373.92328770000006;373.93968270000005;373.93968270000005;373.98058330000003;373.98058330000003;None;9;0;373.98058330000003;None;375.4803783;None;['7'];[0.5669257000000698];375.4803783;None;0.7545824999999695;;;;;;;Emoconpilot045;2022_Jan_07_1134;BackwardMask;2020.2.8;120.01315344162764;
;m;008_y_m_s_a.jpg;sad;7;19;f;019_m_f_s_a.jpg;sad;congruent;7;mismatch;;130;160;;2;202;block1_Pilot_2;8;s_s;s_s_strong;;;;;0;0;0;0;0;51;51;51;;;;;;;;;378.48128940000004;None;380.1962126000001;380.490399;380.490399;380.50662410000007;380.50662410000007;380.5474884;380.5474884;None;7;1;380.5474884;None;382.04732550000006;None;['7'];[0.25601879999999255];382.04732550000006;None;0.6677027000000635;;;;;;;Emoconpilot045;2022_Jan_07_1134;BackwardMask;2020.2.8;120.01315344162764;
;f;028_y_f_n_a.jpg;neutral;8;12;f;012_o_f_n_a.jpg;neutral;congruent;8;match;;140;170;;2;214;block1_Pilot_2;28;n_n;n_n_strong;;;;;0;0;0;0;0;52;52;52;;;;;;;;;385.0483855;None;386.85020170000007;387.1405727;387.1405727;387.1567479;387.1567479;387.1975095;387.1975095;None;8;1;387.1975095;None;388.69747530000006;None;['8'];[0.2937928000000056];388.69747530000006;None;0.6416500000000269;;;;;;;Emoconpilot045;2022_Jan_07_1134;BackwardMask;2020.2.8;120.01315344162764;
;m;027_o_m_h_a.jpg;happy;9;19;f;019_m_f_h_a.jpg;happy;congruent;9;mismatch;;120;150;;3;165;block1_Pilot_2;27;h_h;h_h_strong;;;;;0;0;0;0;0;53;53;53;;;;;;;;;391.69802990000005;None;393.0974598;393.3906872;393.3906872;393.4151770000001;393.4151770000001;393.45605080000007;393.45605080000007;None;9;1;393.45605080000007;None;394.95619480000005;None;['7'];[0.3549801000000343];394.95619480000005;None;0.5511895999999297;;;;;;;Emoconpilot045;2022_Jan_07_1134;BackwardMask;2020.2.8;120.01315344162764;
;m;008_y_m_s_a.jpg;sad;7;13;m;013_y_m_h_a.jpg;happy;incongruent;9;match;;130;150;;18;200;block1_Pilot_2;8;s_h;s_h_strong;;;;;0;0;0;0;0;54;54;54;;;;;;;;;397.95618920000004;None;399.64198480000005;399.93244070000003;399.93244070000003;400.0819557;400.0819557;400.1228993000001;400.1228993000001;None;7;0;400.1228993000001;None;401.62290870000004;None;['7'];[0.3363405000000057];401.62290870000004;None;0.4922821999999769;;;;;;;Emoconpilot045;2022_Jan_07_1134;BackwardMask;2020.2.8;120.01315344162764;
;f;030_o_f_n_a.jpg;neutral;8;28;f;028_y_f_s_a.jpg;sad;incongruent;7;match;;140;160;;18;238;block1_Pilot_2;30;n_s;n_s_weak;;;;;0;0;0;0;0;55;55;55;;;;;;;;;404.6237939;None;406.6302597;406.9245264;406.9245264;407.07374030000005;407.07374030000005;407.11457630000007;407.11457630000007;None;8;0;407.11457630000007;None;408.6143208000001;None;['7'];[0.320736800000077];408.6143208000001;None;0.5085992000000488;;;;;;;Emoconpilot045;2022_Jan_07_1134;BackwardMask;2020.2.8;120.01315344162764;
;f;019_m_f_h_a.jpg;happy;9;27;m;027_o_m_h_a.jpg;happy;congruent;9;mismatch;;120;150;;1;238;block1_Pilot_2;19;h_h;h_h_strong;;;;;0;0;0;0;0;56;56;56;;;;;;;;;411.6144429000001;None;413.60540790000005;413.89866700000005;413.89866700000005;413.90692450000006;413.90692450000006;413.94762130000004;413.94762130000004;None;None;0;413.94762130000004;None;415.44776490000004;None;['9'];[0.4713044999999738];415.44776490000004;None;;;;;;;;Emoconpilot045;2022_Jan_07_1134;BackwardMask;2020.2.8;120.01315344162764;
;m;004_o_m_s_a.jpg;sad;7;4;m;004_o_m_h_a.jpg;happy;incongruent;9;match;;130;150;;18;155;block1_Pilot_2;4;s_h;s_h_weak;;;;;0;0;0;0;0;57;57;57;;;;;;;;;418.4479327;None;419.7522021000001;420.0406396000001;420.0406396000001;420.19028620000006;420.19028620000006;420.23109050000005;420.23109050000005;None;7;0;420.23109050000005;None;421.73123810000004;None;['7'];[0.2998663000000761];421.73123810000004;None;0.5199678000000176;;;;;;;Emoconpilot045;2022_Jan_07_1134;BackwardMask;2020.2.8;120.01315344162764;
;f;021_o_f_s_a.jpg;sad;7;27;m;027_o_m_n_a.jpg;neutral;incongruent;8;mismatch;;130;170;;3;224;block1_Pilot_2;21;s_n;s_n_weak;;;;;0;0;0;0;0;58;58;58;;;;;;;;;424.7313649;None;426.60481860000004;426.89919940000004;426.89919940000004;426.9239787;426.9239787;426.9649883000001;426.9649883000001;None;None;0;426.9649883000001;None;428.4651391;None;['9'];[0.8541899000000512];428.4651391;None;;;;;;;;Emoconpilot045;2022_Jan_07_1134;BackwardMask;2020.2.8;120.01315344162764;
;f;021_o_f_h_a.jpg;happy;9;27;m;027_o_m_n_a.jpg;neutral;incongruent;8;mismatch;;120;170;;2;147;block1_Pilot_2;21;h_n;h_n_strong;;;;;0;0;0;0;0;59;59;59;;;;;;;;;431.4650826000001;None;432.7250854;433.01653710000005;433.01653710000005;433.0325454;433.0325454;433.0736098;433.0736098;None;9;0;433.0736098;None;434.5736273;None;['7'];[0.24959709999995994];434.5736273;None;0.6135763999999426;;;;;;;Emoconpilot045;2022_Jan_07_1134;BackwardMask;2020.2.8;120.01315344162764;
;f;040_y_f_n_a.jpg;neutral;8;13;m;013_y_m_h_a.jpg;happy;incongruent;9;mismatch;;140;150;;3;237;block1_Pilot_2;40;n_h;n_h_strong;;;;;0;0;0;0;0;60;60;60;;;;;;;;;437.57359070000007;None;439.5681291000001;439.85830080000005;439.85830080000005;439.882738;439.882738;439.92360080000003;439.92360080000003;None;8;0;439.92360080000003;None;441.4237412;None;['7'];[0.7034055000000308];441.4237412;None;0.8356410999999753;;;;;;;Emoconpilot045;2022_Jan_07_1134;BackwardMask;2020.2.8;120.01315344162764;
;m;027_o_m_n_a.jpg;neutral;8;19;f;019_m_f_h_a.jpg;happy;incongruent;9;mismatch;;140;150;;3;199;block1_Pilot_2;27;n_h;n_h_strong;;;;;0;0;0;0;0;61;61;61;;;;;;;;;444.4236092;None;446.1010265;446.3919278000001;446.3919278000001;446.41623300000003;446.41623300000003;446.4571482;446.4571482;None;8;0;446.4571482;None;447.9570947000001;None;['7'];[0.2741859000000204];447.9570947000001;None;0.49409639999998944;;;;;;;Emoconpilot045;2022_Jan_07_1134;BackwardMask;2020.2.8;120.01315344162764;
;m;027_o_m_h_a.jpg;happy;9;21;f;021_o_f_s_a.jpg;sad;incongruent;7;mismatch;;120;160;;2;169;block1_Pilot_2;27;h_s;h_s_strong;;;;;0;0;0;0;0;62;62;62;;;;;;;;;450.95822440000006;None;452.38508320000005;452.67537930000003;452.67537930000003;452.6912442;452.6912442;452.73219570000003;452.73219570000003;None;9;0;452.73219570000003;None;454.2323170000001;None;['8'];[0.2629918000000089];454.2323170000001;None;0.7148971999999958;;;;;;;Emoconpilot045;2022_Jan_07_1134;BackwardMask;2020.2.8;120.01315344162764;
;m;013_y_m_n_a.jpg;neutral;8;33;m;033_o_m_h_a.jpg;happy;incongruent;9;match;;140;150;;18;238;block1_Pilot_2;13;n_h;n_h_strong;;;;;0;0;0;0;0;63;63;63;;;;;;;;;457.2329298000001;None;459.2350301;459.52526910000006;459.52526910000006;459.6749724;459.6749724;459.7157724;459.7157724;None;8;0;459.7157724;None;461.215725;None;['7'];[0.2875463000000309];461.215725;None;0.3872941999999284;;;;;;;Emoconpilot045;2022_Jan_07_1134;BackwardMask;2020.2.8;120.01315344162764;
;m;033_o_m_n_a.jpg;neutral;8;30;f;030_o_f_s_a.jpg;sad;incongruent;7;mismatch;;140;160;;1;238;block1_Pilot_2;33;n_s;n_s_weak;;;;;0;0;0;0;0;64;64;64;;;;;;;;;464.215964;None;466.21818730000007;466.5089219;466.5089219;466.51659700000005;466.51659700000005;466.5576601;466.5576601;None;None;0;466.5576601;None;468.0575206000001;None;['9'];[0.5014208000000053];468.0575206000001;None;;;;;;;;Emoconpilot045;2022_Jan_07_1134;BackwardMask;2020.2.8;120.01315344162764;
;m;033_o_m_s_a.jpg;sad;7;4;m;004_o_m_s_a.jpg;sad;congruent;7;match;;130;160;;18;146;block1_Pilot_2;33;s_s;s_s_weak;;;;;0;0;0;0;0;65;65;65;;;;;;;;;471.0584734;None;472.28161680000005;472.57512410000004;472.57512410000004;472.7251129;472.7251129;472.7660382;472.7660382;None;8;0;472.7660382;None;474.2660723;None;['7'];[0.2930449000000408];474.2660723;None;0.8331609000000526;;;;;;;Emoconpilot045;2022_Jan_07_1134;BackwardMask;2020.2.8;120.01315344162764;
;m;016_y_m_s_a.jpg;sad;7;28;f;028_y_f_h_a.jpg;happy;incongruent;9;mismatch;;130;150;;18;238;block1_Pilot_2;16;s_h;s_h_strong;;;;;0;0;0;0;0;66;66;66;;;;;;;;;477.2669353;None;479.2574578;479.5503909;479.5503909;479.7002483;479.7002483;479.7412293;479.7412293;None;7;0;479.7412293;None;481.2415152;None;['7'];[0.2698272000000088];481.2415152;None;0.6019185999999763;;;;;;;Emoconpilot045;2022_Jan_07_1134;BackwardMask;2020.2.8;120.01315344162764;
;f;030_o_f_h_a.jpg;happy;9;28;f;028_y_f_h_a.jpg;happy;congruent;9;match;;120;150;;3;234;block1_Pilot_2;30;h_h;h_h_weak;;;;;0;0;0;0;0;67;67;67;;;;;;;;;484.24155210000004;None;486.223107;486.51784;486.51784;486.5421577000001;486.5421577000001;486.58288200000004;486.58288200000004;None;9;1;486.58288200000004;None;488.08326580000005;None;['7'];[0.25996569999995245];488.08326580000005;None;0.48813189999998485;;;;;;;Emoconpilot045;2022_Jan_07_1134;BackwardMask;2020.2.8;120.01315344162764;
;m;013_y_m_h_a.jpg;happy;9;4;m;004_o_m_h_a.jpg;happy;congruent;9;match;;120;150;;2;141;block1_Pilot_2;13;h_h;h_h_strong;;;;;0;0;0;0;0;68;68;68;;;;;;;;;491.082985;None;492.27732190000006;492.5676336;492.5676336;492.5837723000001;492.5837723000001;492.62473520000003;492.62473520000003;None;9;1;492.62473520000003;None;494.1251606000001;None;['7'];[0.4021832999999333];494.1251606000001;None;0.6383277999999564;;;;;;;Emoconpilot045;2022_Jan_07_1134;BackwardMask;2020.2.8;120.01315344162764;
;f;028_y_f_s_a.jpg;sad;7;8;m;008_y_m_s_a.jpg;sad;congruent;7;mismatch;;130;160;;1;238;block1_Pilot_2;28;s_s;s_s_strong;;;;;0;0;0;0;0;69;69;69;;;;;;;;;497.1257299;None;499.1198419;499.4094149;499.4094149;499.4173023000001;499.4173023000001;499.4582968000001;499.4582968000001;None;None;0;499.4582968000001;None;500.95814930000006;None;['9'];[0.28909220000002733];500.95814930000006;None;;;;;;;;Emoconpilot045;2022_Jan_07_1134;BackwardMask;2020.2.8;120.01315344162764;
;f;028_y_f_s_a.jpg;sad;7;30;f;030_o_f_h_a.jpg;happy;incongruent;9;match;;130;150;;2;199;block1_Pilot_2;28;s_h;s_h_weak;;;;;0;0;0;0;0;70;70;70;;;;;;;;;503.9588715;None;505.62704800000006;505.9178501;505.9178501;505.9339398000001;505.9339398000001;505.9749259;505.9749259;None;8;0;505.9749259;None;507.47496580000006;None;['8'];[0.8842095999999628];507.47496580000006;None;0.7442733999999973;;;;;;;Emoconpilot045;2022_Jan_07_1134;BackwardMask;2020.2.8;120.01315344162764;
;m;008_y_m_h_a.jpg;happy;9;21;f;021_o_f_n_a.jpg;neutral;incongruent;8;mismatch;;120;170;;2;137;block1_Pilot_2;8;h_n;h_n_weak;;;;;0;0;0;0;0;71;71;71;;;;;;;;;510.4752324;None;511.6256488;511.9176618;511.9176618;511.934249;511.934249;511.97521760000006;511.97521760000006;None;9;0;511.97521760000006;None;513.4750266;None;['7'];[0.7963012000000163];513.4750266;None;0.7759598000000096;;;;;;;Emoconpilot045;2022_Jan_07_1134;BackwardMask;2020.2.8;120.01315344162764;
;f;012_o_f_n_a.jpg;neutral;8;8;m;008_y_m_s_a.jpg;sad;incongruent;7;mismatch;;140;160;;2;208;block1_Pilot_2;12;n_s;n_s_weak;;;;;0;0;0;0;0;72;72;72;;;;;;;;;516.4754118000001;None;518.2714878;518.5683621000001;518.5683621000001;518.5844319;518.5844319;518.6252229;518.6252229;None;8;0;518.6252229;None;520.1254364;None;['8'];[0.24974910000003092];520.1254364;None;0.6860463000000436;;;;;;;Emoconpilot045;2022_Jan_07_1134;BackwardMask;2020.2.8;120.01315344162764;
;m;016_y_m_n_a.jpg;neutral;8;8;m;008_y_m_n_a.jpg;neutral;congruent;8;match;;140;170;;3;211;block1_Pilot_2;16;n_n;n_n_strong;;;;;0;0;0;0;0;73;73;73;;;;;;;;;523.1252596;None;524.9097274000001;525.2017526000001;525.2017526000001;525.2261015;525.2261015;525.2669976000001;525.2669976000001;None;8;1;525.2669976000001;None;526.7675691000001;None;['7'];[1.0155692999999246];526.7675691000001;None;0.5481734999999617;;;;;;;Emoconpilot045;2022_Jan_07_1134;BackwardMask;2020.2.8;120.01315344162764;
;m;016_y_m_h_a.jpg;happy;9;13;m;013_y_m_s_a.jpg;sad;incongruent;7;match;;120;160;;3;138;block1_Pilot_2;16;h_s;h_s_weak;;;;;0;0;0;0;0;74;74;74;;;;;;;;;529.7677694;None;530.9254215000001;531.2181103;531.2181103;531.2430821;531.2430821;531.2836409;531.2836409;None;9;0;531.2836409;None;532.7838343000001;None;['7'];[0.32756590000008146];532.7838343000001;None;0.5716688999999633;;;;;;;Emoconpilot045;2022_Jan_07_1134;BackwardMask;2020.2.8;120.01315344162764;
;m;016_y_m_n_a.jpg;neutral;8;19;f;019_m_f_s_a.jpg;sad;incongruent;7;mismatch;;140;160;;2;185;block1_Pilot_2;16;n_s;n_s_strong;;;;;0;0;0;0;0;75;75;75;;;;;;;;;535.7850117;None;537.3464517;537.6351824000001;537.6351824000001;537.651386;537.651386;537.6923195;537.6923195;None;8;0;537.6923195;None;539.1923596;None;['7'];[1.030778199999986];539.1923596;None;0.7389464999999973;;;;;;;Emoconpilot045;2022_Jan_07_1134;BackwardMask;2020.2.8;120.01315344162764;
;m;027_o_m_s_a.jpg;sad;7;8;m;008_y_m_s_a.jpg;sad;congruent;7;match;;130;160;;1;238;block1_Pilot_2;27;s_s;s_s_strong;;;;;0;0;0;0;0;76;76;76;;;;;;;;;542.1920959;None;544.1842357;544.4763794;544.4763794;544.4847018;544.4847018;544.5253581000001;544.5253581000001;None;None;0;544.5253581000001;None;546.0257318;None;['9'];[0.3493577000000414];546.0257318;None;;;;;;;;Emoconpilot045;2022_Jan_07_1134;BackwardMask;2020.2.8;120.01315344162764;
;f;019_m_f_n_a.jpg;neutral;8;27;m;027_o_m_n_a.jpg;neutral;congruent;8;mismatch;;140;170;;3;186;block1_Pilot_2;19;n_n;n_n_strong;;;;;0;0;0;0;0;77;77;77;;;;;;;;;549.0264509;None;550.5965485;550.8852777000001;550.8852777000001;550.9096313;550.9096313;550.9505408;550.9505408;None;8;1;550.9505408;None;552.4504636;None;['7'];[0.28445270000008804];552.4504636;None;0.6885829999999942;;;;;;;Emoconpilot045;2022_Jan_07_1134;BackwardMask;2020.2.8;120.01315344162764;
;m;004_o_m_s_a.jpg;sad;7;12;f;012_o_f_s_a.jpg;sad;congruent;7;mismatch;;130;160;;1;238;block1_Pilot_2;4;s_s;s_s_strong;;;;;0;0;0;0;0;78;78;78;;;;;;;;;555.4525111;None;557.4426002;557.735533;557.735533;557.7436865000001;557.7436865000001;557.7844113;557.7844113;None;None;0;557.7844113;None;559.2843683;None;['9'];[0.4265902999999298];559.2843683;None;;;;;;;;Emoconpilot045;2022_Jan_07_1134;BackwardMask;2020.2.8;120.01315344162764;
;f;019_m_f_n_a.jpg;neutral;8;13;m;013_y_m_s_a.jpg;sad;incongruent;7;mismatch;;140;160;;3;207;block1_Pilot_2;19;n_s;n_s_strong;;;;;0;0;0;0;0;79;79;79;;;;;;;;;562.2840519;None;564.0512697;564.3442658;564.3442658;564.3683516;564.3683516;564.4090455;564.4090455;None;8;0;564.4090455;None;565.9105044;None;['7'];[0.3284423999999717];565.9105044;None;0.5739025999999967;;;;;;;Emoconpilot045;2022_Jan_07_1134;BackwardMask;2020.2.8;120.01315344162764;
;m;027_o_m_h_a.jpg;happy;9;33;m;033_o_m_h_a.jpg;happy;congruent;9;match;;120;150;;1;238;block1_Pilot_2;27;h_h;h_h_strong;;;;;0;0;0;0;0;80;80;80;;;;;;;;;568.9092551;None;570.9171017;571.2112028;571.2112028;571.2187786000001;571.2187786000001;571.2592974;571.2592974;None;None;0;571.2592974;None;572.7597366;None;['9'];[0.3595028000000866];572.7597366;None;;;;;;;;Emoconpilot045;2022_Jan_07_1134;BackwardMask;2020.2.8;120.01315344162764;
;m;027_o_m_h_a.jpg;happy;9;21;f;021_o_f_s_a.jpg;sad;incongruent;7;mismatch;;120;160;;1;238;block1_Pilot_2;27;h_s;h_s_weak;;;;;0;0;0;0;0;81;81;81;;;;;;;;;575.7603906;None;577.7618972;578.0529774;578.0529774;578.0604625000001;578.0604625000001;578.1014335;578.1014335;None;None;0;578.1014335;None;579.6014265;None;['9'];[0.4935351999999966];579.6014265;None;;;;;;;;Emoconpilot045;2022_Jan_07_1134;BackwardMask;2020.2.8;120.01315344162764;
;m;033_o_m_s_a.jpg;sad;7;40;f;040_y_f_n_a.jpg;neutral;incongruent;8;mismatch;;130;170;;3;146;block1_Pilot_2;33;s_n;s_n_weak;;;;;0;0;0;0;0;82;82;82;;;;;;;;;582.6015682000001;None;583.8266149;584.1191139;584.1191139;584.1441155;584.1441155;584.1849739;584.1849739;None;8;1;584.1849739;None;585.6849341000001;None;['7'];[0.6900717999999415];585.6849341000001;None;0.6142332000000579;;;;;;;Emoconpilot045;2022_Jan_07_1134;BackwardMask;2020.2.8;120.01315344162764;
;m;008_y_m_h_a.jpg;happy;9;4;m;004_o_m_s_a.jpg;sad;incongruent;7;match;;120;160;;2;225;block1_Pilot_2;8;h_s;h_s_weak;;;;;0;0;0;0;0;83;83;83;;;;;;;;;588.6847455000001;None;590.5673834;590.8605735;590.8605735;590.8770028;590.8770028;590.9179387;590.9179387;None;9;0;590.9179387;None;592.4179508000001;None;['7'];[0.38906039999994846];592.4179508000001;None;0.6170266000000311;;;;;;;Emoconpilot045;2022_Jan_07_1134;BackwardMask;2020.2.8;120.01315344162764;
;f;012_o_f_n_a.jpg;neutral;8;4;m;004_o_m_s_a.jpg;sad;incongruent;7;mismatch;;140;160;;3;150;block1_Pilot_2;12;n_s;n_s_strong;;;;;0;0;0;0;0;84;84;84;;;;;;;;;595.4181030000001;None;596.6881731000001;596.9778550000001;596.9778550000001;597.0024579000001;597.0024579000001;597.0430809000001;597.0430809000001;None;8;0;597.0430809000001;None;598.5431403;None;['7'];[0.3038671000000477];598.5431403;None;0.7240287999999282;;;;;;;Emoconpilot045;2022_Jan_07_1134;BackwardMask;2020.2.8;120.01315344162764;
;f;021_o_f_s_a.jpg;sad;7;40;f;040_y_f_n_a.jpg;neutral;incongruent;8;match;;130;170;;2;156;block1_Pilot_2;21;s_n;s_n_strong;;;;;0;0;0;0;0;85;85;85;;;;;;;;;601.5432933000001;None;602.8493493000001;603.1444829000001;603.1444829000001;603.1609584;603.1609584;603.201573;603.201573;None;9;0;603.201573;None;604.701623;None;['8'];[0.5054572000000235];604.701623;None;0.9494745000000648;;;;;;;Emoconpilot045;2022_Jan_07_1134;BackwardMask;2020.2.8;120.01315344162764;
;m;004_o_m_n_a.jpg;neutral;8;13;m;013_y_m_n_a.jpg;neutral;congruent;8;match;;140;170;;2;225;block1_Pilot_2;4;n_n;n_n_strong;;;;;0;0;0;0;0;86;86;86;;;;;;;;;607.7018340000001;None;609.6027709;609.8946987;609.8946987;609.910969;609.910969;609.9516703;609.9516703;None;8;1;609.9516703;None;611.4517113;None;['8'];[0.771369400000026];611.4517113;None;0.6073838999999452;;;;;;;Emoconpilot045;2022_Jan_07_1134;BackwardMask;2020.2.8;120.01315344162764;
;m;016_y_m_n_a.jpg;neutral;8;16;m;016_y_m_h_a.jpg;happy;incongruent;9;match;;140;150;;18;193;block1_Pilot_2;16;n_h;n_h_strong;;;;;0;0;0;0;0;87;87;87;;;;;;;;;614.4504503;None;616.0765324;616.3684788;616.3684788;616.5179673;616.5179673;616.5589726000001;616.5589726000001;None;8;0;616.5589726000001;None;618.0594014000001;None;['7'];[0.3240793999999596];618.0594014000001;None;0.48805210000000443;;;;;;;Emoconpilot045;2022_Jan_07_1134;BackwardMask;2020.2.8;120.01315344162764;
;m;033_o_m_h_a.jpg;happy;9;4;m;004_o_m_h_a.jpg;happy;congruent;9;match;;120;150;;2;195;block1_Pilot_2;33;h_h;h_h_strong;;;;;0;0;0;0;0;88;88;88;;;;;;;;;621.0607463;None;622.6940421;622.9869838000001;622.9869838000001;623.0028226000001;623.0028226000001;623.0440666000001;623.0440666000001;None;9;1;623.0440666000001;None;624.5436930000001;None;['7'];[0.5592983999999888];624.5436930000001;None;0.5869086000000152;;;;;;;Emoconpilot045;2022_Jan_07_1134;BackwardMask;2020.2.8;120.01315344162764;
;m;027_o_m_h_a.jpg;happy;9;16;m;016_y_m_h_a.jpg;happy;congruent;9;match;;120;150;;3;209;block1_Pilot_2;27;h_h;h_h_weak;;;;;0;0;0;0;0;89;89;89;;;;;;;;;627.5438091000001;None;629.3117781000001;629.6035856000001;629.6035856000001;629.6285171000001;629.6285171000001;629.6687584;629.6687584;None;9;1;629.6687584;None;631.1687919000001;None;['7'];[0.3582330000000411];631.1687919000001;None;0.586213100000009;;;;;;;Emoconpilot045;2022_Jan_07_1134;BackwardMask;2020.2.8;120.01315344162764;
;m;033_o_m_s_a.jpg;sad;7;16;m;016_y_m_s_a.jpg;sad;congruent;7;match;;130;160;;3;128;block1_Pilot_2;33;s_s;s_s_strong;;;;;0;0;0;0;0;90;90;90;;;;;;;;;634.168971;None;635.2489279;635.5450845;635.5450845;635.5700211000001;635.5700211000001;635.610486;635.610486;None;8;0;635.610486;None;637.1111572;None;['7'];[0.9998055999999451];637.1111572;None;0.6684781000000157;;;;;;;Emoconpilot045;2022_Jan_07_1134;BackwardMask;2020.2.8;120.01315344162764;
;f;021_o_f_s_a.jpg;sad;7;30;f;030_o_f_s_a.jpg;sad;congruent;7;match;;130;160;;1;238;block1_Pilot_2;21;s_s;s_s_strong;;;;;0;0;0;0;0;91;91;91;;;;;;;;;640.1116887000001;None;642.1041212;642.3954827;642.3954827;642.4034708;642.4034708;642.4444862;642.4444862;None;None;0;642.4444862;None;643.9444091;None;['9'];[0.4948404000000437];643.9444091;None;;;;;;;;Emoconpilot045;2022_Jan_07_1134;BackwardMask;2020.2.8;120.01315344162764;
;m;033_o_m_n_a.jpg;neutral;8;28;f;028_y_f_s_a.jpg;sad;incongruent;7;mismatch;;140;160;;18;166;block1_Pilot_2;33;n_s;n_s_strong;;;;;0;0;0;0;0;92;92;92;;;;;;;;;646.9445088;None;648.3514897;648.6459301;648.6459301;648.7952605;648.7952605;648.8360619;648.8360619;None;8;0;648.8360619;None;650.3362233;None;['7'];[0.2946776999999656];650.3362233;None;0.4589595999999574;;;;;;;Emoconpilot045;2022_Jan_07_1134;BackwardMask;2020.2.8;120.01315344162764;
;f;019_m_f_n_a.jpg;neutral;8;30;f;030_o_f_n_a.jpg;neutral;congruent;8;match;;140;170;;18;228;block1_Pilot_2;19;n_n;n_n_weak;;;;;0;0;0;0;0;93;93;93;;;;;;;;;653.3375493;None;655.2584565000001;655.5543652;655.5543652;655.7038527000001;655.7038527000001;655.7447091;655.7447091;None;8;1;655.7447091;None;657.2456498;None;['7'];[0.28962699999999586];657.2456498;None;0.510428999999931;;;;;;;Emoconpilot045;2022_Jan_07_1134;BackwardMask;2020.2.8;120.01315344162764;
;m;008_y_m_s_a.jpg;sad;7;12;f;012_o_f_h_a.jpg;happy;incongruent;9;mismatch;;130;150;;3;130;block1_Pilot_2;8;s_h;s_h_weak;;;;;0;0;0;0;0;94;94;94;;;;;;;;;660.2457871;None;661.3505004;661.6459586000001;661.6459586000001;661.6706157;661.6706157;661.7114848;661.7114848;None;7;0;661.7114848;None;663.2115640000001;None;['7'];[0.32361600000001545];663.2115640000001;None;0.8076852000000372;;;;;;;Emoconpilot045;2022_Jan_07_1134;BackwardMask;2020.2.8;120.01315344162764;
;m;016_y_m_n_a.jpg;neutral;8;28;f;028_y_f_n_a.jpg;neutral;congruent;8;mismatch;;140;170;;18;189;block1_Pilot_2;16;n_n;n_n_strong;;;;;0;0;0;0;0;95;95;95;;;;;;;;;666.2123519;None;667.8088713000001;668.1045699;668.1045699;668.2540494;668.2540494;668.2948888000001;668.2948888000001;None;8;1;668.2948888000001;None;669.7945895;None;['7'];[0.2522892999999158];669.7945895;None;0.6242225999999391;;;;;;;Emoconpilot045;2022_Jan_07_1134;BackwardMask;2020.2.8;120.01315344162764;
;f;012_o_f_s_a.jpg;sad;7;16;m;016_y_m_h_a.jpg;happy;incongruent;9;mismatch;;130;150;;3;238;block1_Pilot_2;12;s_h;s_h_strong;;;;;0;0;0;0;0;96;96;96;;;;;;;;;672.7947399000001;None;674.7857115;675.0789931;675.0789931;675.1038663;675.1038663;675.1446151;675.1446151;None;7;0;675.1446151;None;676.6446788000001;None;['7'];[0.23420579999992697];676.6446788000001;None;0.7262977000000319;;;;;;;Emoconpilot045;2022_Jan_07_1134;BackwardMask;2020.2.8;120.01315344162764;
;m;013_y_m_h_a.jpg;happy;9;27;m;027_o_m_h_a.jpg;happy;congruent;9;match;;120;150;;18;238;block1_Pilot_2;13;h_h;h_h_strong;;;;;0;0;0;0;0;97;97;97;;;;;;;;;679.6448429000001;None;681.6513560000001;681.9461496;681.9461496;682.0956454000001;682.0956454000001;682.1363751;682.1363751;None;9;1;682.1363751;None;683.6364899;None;['7'];[0.33844809999993686];683.6364899;None;0.5906393999999864;;;;;;;Emoconpilot045;2022_Jan_07_1134;BackwardMask;2020.2.8;120.01315344162764;
;m;016_y_m_s_a.jpg;sad;7;33;m;033_o_m_n_a.jpg;neutral;incongruent;8;match;;130;170;;1;238;block1_Pilot_2;16;s_n;s_n_weak;;;;;0;0;0;0;0;98;98;98;;;;;;;;;686.6348761;None;688.6338791000001;688.9280705;688.9280705;688.9358674;688.9358674;688.9766447000001;688.9766447000001;None;None;0;688.9766447000001;None;690.4765050000001;None;['9'];[0.48322380000001885];690.4765050000001;None;;;;;;;;Emoconpilot045;2022_Jan_07_1134;BackwardMask;2020.2.8;120.01315344162764;
;m;008_y_m_n_a.jpg;neutral;8;30;f;030_o_f_n_a.jpg;neutral;congruent;8;mismatch;;140;170;;1;238;block1_Pilot_2;8;n_n;n_n_weak;;;;;0;0;0;0;0;99;99;99;;;;;;;;;693.4773004;None;695.4838452;695.7791886;695.7791886;695.7869852;695.7869852;695.8278399000001;695.8278399000001;None;None;0;695.8278399000001;None;697.3285234;None;['9'];[0.2064739999999574];697.3285234;None;;;;;;;;Emoconpilot045;2022_Jan_07_1134;BackwardMask;2020.2.8;120.01315344162764;
;m;008_y_m_s_a.jpg;sad;7;30;f;030_o_f_s_a.jpg;sad;congruent;7;mismatch;;130;160;;2;133;block1_Pilot_2;8;s_s;s_s_weak;;;;;0;0;0;0;0;100;100;100;;;;;;;;;700.3285879;None;701.45659;701.7466783;701.7466783;701.7627077000001;701.7627077000001;701.80358;701.80358;None;7;1;701.80358;None;703.3037222;None;['8'];[0.6792259999999715];703.3037222;None;0.675399099999936;;;;;;;Emoconpilot045;2022_Jan_07_1134;BackwardMask;2020.2.8;120.01315344162764;
;f;040_y_f_n_a.jpg;neutral;8;30;f;030_o_f_s_a.jpg;sad;incongruent;7;match;;140;160;;3;197;block1_Pilot_2;40;n_s;n_s_strong;;;;;0;0;0;0;0;101;101;101;;;;;;;;;706.3037684000001;None;707.9694626;708.2633527;708.2633527;708.2880675;708.2880675;708.3286208000001;708.3286208000001;None;8;0;708.3286208000001;None;709.8287411;None;['7'];[0.2902096000000256];709.8287411;None;0.7343090999999049;;;;;;;Emoconpilot045;2022_Jan_07_1134;BackwardMask;2020.2.8;120.01315344162764;
;m;004_o_m_h_a.jpg;happy;9;30;f;030_o_f_s_a.jpg;sad;incongruent;7;mismatch;;120;160;;3;121;block1_Pilot_2;4;h_s;h_s_strong;;;;;0;0;0;0;0;102;102;102;;;;;;;;;712.8288254;None;713.8598216;714.155124;714.155124;714.1795397000001;714.1795397000001;714.2204334;714.2204334;None;9;0;714.2204334;None;715.7205113;None;['7'];[0.254557200000022];715.7205113;None;0.546616399999948;;;;;;;Emoconpilot045;2022_Jan_07_1134;BackwardMask;2020.2.8;120.01315344162764;
;f;040_y_f_h_a.jpg;happy;9;8;m;008_y_m_h_a.jpg;happy;congruent;9;mismatch;;120;150;;18;211;block1_Pilot_2;40;h_h;h_h_weak;;;;;0;0;0;0;0;103;103;103;;;;;;;;;718.7207641;None;720.4897475;720.7801112000001;720.7801112000001;720.9297195;720.9297195;720.9705558;720.9705558;None;9;1;720.9705558;None;722.4709623;None;['7'];[0.30416619999994055];722.4709623;None;0.38042410000002747;;;;;;;Emoconpilot045;2022_Jan_07_1134;BackwardMask;2020.2.8;120.01315344162764;
;f;019_m_f_s_a.jpg;sad;7;16;m;016_y_m_n_a.jpg;neutral;incongruent;8;mismatch;;130;170;;2;198;block1_Pilot_2;19;s_n;s_n_strong;;;;;0;0;0;0;0;104;104;104;;;;;;;;;725.4710845000001;None;727.1476057;727.439076;727.439076;727.455184;727.455184;727.4962125000001;727.4962125000001;None;None;0;727.4962125000001;None;728.9962574;None;['9'];[0.33065190000002076];728.9962574;None;;;;;;;;Emoconpilot045;2022_Jan_07_1134;BackwardMask;2020.2.8;120.01315344162764;
;f;040_y_f_s_a.jpg;sad;7;12;f;012_o_f_s_a.jpg;sad;congruent;7;match;;130;160;;18;240;block1_Pilot_2;40;s_s;s_s_strong;;;;;0;0;0;0;0;105;105;105;;;;;;;;;731.9972671;None;734.0131169;734.3054968;734.3054968;734.4553335;734.4553335;734.4962698;734.4962698;None;7;1;734.4962698;None;735.9963163;None;['7'];[0.2667127999999366];735.9963163;None;0.6946666999999707;;;;;;;Emoconpilot045;2022_Jan_07_1134;BackwardMask;2020.2.8;120.01315344162764;
;f;040_y_f_n_a.jpg;neutral;8;33;m;033_o_m_s_a.jpg;sad;incongruent;7;mismatch;;140;160;;3;188;block1_Pilot_2;40;n_s;n_s_weak;;;;;0;0;0;0;0;106;106;106;;;;;;;;;738.9971264000001;None;740.5840228000001;740.8726355;740.8726355;740.8970504;740.8970504;740.9380268;740.9380268;None;8;0;740.9380268;None;742.4379921000001;None;['7'];[0.2811467999999877];742.4379921000001;None;0.7891276999999945;;;;;;;Emoconpilot045;2022_Jan_07_1134;BackwardMask;2020.2.8;120.01315344162764;
;f;028_y_f_h_a.jpg;happy;9;21;f;021_o_f_s_a.jpg;sad;incongruent;7;match;;120;160;;3;193;block1_Pilot_2;28;h_s;h_s_strong;;;;;0;0;0;0;0;107;107;107;;;;;;;;;745.4389273;None;747.0606535000001;747.3559759000001;747.3559759000001;747.3806026000001;747.3806026000001;747.4213536000001;747.4213536000001;None;9;0;747.4213536000001;None;748.9223918;None;['7'];[0.3008296000000428];748.9223918;None;0.5215774999999212;;;;;;;Emoconpilot045;2022_Jan_07_1134;BackwardMask;2020.2.8;120.01315344162764;
;f;040_y_f_s_a.jpg;sad;7;13;m;013_y_m_n_a.jpg;neutral;incongruent;8;mismatch;;130;170;;2;198;block1_Pilot_2;40;s_n;s_n_strong;;;;;0;0;0;0;0;108;108;108;;;;;;;;;751.9215987;None;753.5796746000001;753.8725618000001;753.8725618000001;753.8890783;753.8890783;753.9299688;753.9299688;None;None;0;753.9299688;None;755.430115;None;['8'];[0.2569282000000612];755.430115;None;;;;;;;;Emoconpilot045;2022_Jan_07_1134;BackwardMask;2020.2.8;120.01315344162764;
;f;030_o_f_n_a.jpg;neutral;8;33;m;033_o_m_s_a.jpg;sad;incongruent;7;mismatch;;140;160;;1;238;block1_Pilot_2;30;n_s;n_s_strong;;;;;0;0;0;0;0;109;109;109;;;;;;;;;758.4301075000001;None;760.4393807;760.7315070000001;760.7315070000001;760.7390731;760.7390731;760.7801484;760.7801484;None;None;0;760.7801484;None;762.2801473000001;None;['9'];[0.33491509999998925];762.2801473000001;None;;;;;;;;Emoconpilot045;2022_Jan_07_1134;BackwardMask;2020.2.8;120.01315344162764;
;f;021_o_f_h_a.jpg;happy;9;40;f;040_y_f_n_a.jpg;neutral;incongruent;8;match;;120;170;;2;125;block1_Pilot_2;21;h_n;h_n_weak;;;;;0;0;0;0;0;110;110;110;;;;;;;;;765.2812405000001;None;766.3436114;766.6399219;766.6399219;766.6560063000001;766.6560063000001;766.6968205000001;766.6968205000001;None;9;0;766.6968205000001;None;768.1969494;None;['8'];[0.3222246000001405];768.1969494;None;0.7742858999999953;;;;;;;Emoconpilot045;2022_Jan_07_1134;BackwardMask;2020.2.8;120.01315344162764;
;f;021_o_f_h_a.jpg;happy;9;16;m;016_y_m_s_a.jpg;sad;incongruent;7;mismatch;;120;160;;1;238;block1_Pilot_2;21;h_s;h_s_strong;;;;;0;0;0;0;0;111;111;111;;;;;;;;;771.1969928;None;773.2062251000001;773.4982773;773.4982773;773.5061206000001;773.5061206000001;773.5470510000001;773.5470510000001;None;None;0;773.5470510000001;None;775.0472434;None;['9'];[0.5518827999999303];775.0472434;None;;;;;;;;Emoconpilot045;2022_Jan_07_1134;BackwardMask;2020.2.8;120.01315344162764;
;f;012_o_f_h_a.jpg;happy;9;8;m;008_y_m_s_a.jpg;sad;incongruent;7;mismatch;;120;160;;1;238;block1_Pilot_2;12;h_s;h_s_weak;;;;;0;0;0;0;0;112;112;112;;;;;;;;;778.0473885;None;780.0432237000001;780.3314429000001;780.3314429000001;780.3395512999999;780.3395512999999;780.3803730999999;780.3803730999999;None;None;0;780.3803730999999;None;781.8804997000001;None;['9'];[0.5827107999998589];781.8804997000001;None;;;;;;;;Emoconpilot045;2022_Jan_07_1134;BackwardMask;2020.2.8;120.01315344162764;
;m;013_y_m_h_a.jpg;happy;9;16;m;016_y_m_s_a.jpg;sad;incongruent;7;match;;120;160;;3;202;block1_Pilot_2;13;h_s;h_s_weak;;;;;0;0;0;0;0;113;113;113;;;;;;;;;784.881385;None;786.5851126000001;786.8734516000001;786.8734516000001;786.8980700000001;786.8980700000001;786.9389513;786.9389513;None;9;0;786.9389513;None;788.4392153;None;['7'];[0.24794100000008257];788.4392153;None;0.5401699999999892;;;;;;;Emoconpilot045;2022_Jan_07_1134;BackwardMask;2020.2.8;120.01315344162764;
;f;019_m_f_s_a.jpg;sad;7;4;m;004_o_m_n_a.jpg;neutral;incongruent;8;mismatch;;130;170;;1;238;block1_Pilot_2;19;s_n;s_n_strong;;;;;0;0;0;0;0;114;114;114;;;;;;;;;791.4391443000001;None;793.4414806000001;793.7321774000001;793.7321774000001;793.7400840000001;793.7400840000001;793.7807770000001;793.7807770000001;None;None;0;793.7807770000001;None;795.2809482000001;None;['9'];[0.5022321000001284];795.2809482000001;None;;;;;;;;Emoconpilot045;2022_Jan_07_1134;BackwardMask;2020.2.8;120.01315344162764;
;f;028_y_f_n_a.jpg;neutral;8;27;m;027_o_m_s_a.jpg;sad;incongruent;7;mismatch;;140;160;;18;238;block1_Pilot_2;28;n_s;n_s_strong;;;;;0;0;0;0;0;115;115;115;;;;;;;;;798.2810144000001;None;800.2859368000001;800.5822764000001;800.5822764000001;800.7316076999999;800.7316076999999;800.7726229000001;800.7726229000001;None;8;0;800.7726229000001;None;802.2727374;None;['7'];[0.30230260000007547];802.2727374;None;0.4663995999999315;;;;;;;Emoconpilot045;2022_Jan_07_1134;BackwardMask;2020.2.8;120.01315344162764;
;m;013_y_m_s_a.jpg;sad;7;12;f;012_o_f_h_a.jpg;happy;incongruent;9;mismatch;;130;150;;1;238;block1_Pilot_2;13;s_h;s_h_strong;;;;;0;0;0;0;0;116;116;116;;;;;;;;;805.2727995000001;None;807.2679213;807.5569363999999;807.5569363999999;807.5650458000001;807.5650458000001;807.6059903000001;807.6059903000001;None;None;0;807.6059903000001;None;809.1060784;None;['9'];[0.3168799999998555];809.1060784;None;;;;;;;;Emoconpilot045;2022_Jan_07_1134;BackwardMask;2020.2.8;120.01315344162764;
;m;016_y_m_s_a.jpg;sad;7;19;f;019_m_f_h_a.jpg;happy;incongruent;9;mismatch;;130;150;;1;238;block1_Pilot_2;16;s_h;s_h_strong;;;;;0;0;0;0;0;117;117;117;;;;;;;;;812.1069487999999;None;814.0975326000001;814.390421;814.390421;814.3986788999999;814.3986788999999;814.4396074;814.4396074;None;None;0;814.4396074;None;815.9397722;None;['9'];[0.33123410000007425];815.9397722;None;;;;;;;;Emoconpilot045;2022_Jan_07_1134;BackwardMask;2020.2.8;120.01315344162764;
;m;013_y_m_s_a.jpg;sad;7;21;f;021_o_f_h_a.jpg;happy;incongruent;9;mismatch;;130;150;;18;238;block1_Pilot_2;13;s_h;s_h_strong;;;;;0;0;0;0;0;118;118;118;;;;;;;;;818.9402043000001;None;820.9297416;821.2238661;821.2238661;821.3738612999999;821.3738612999999;821.4147831000001;821.4147831000001;None;7;0;821.4147831000001;None;822.9155857;None;['7'];[0.7715763999999581];822.9155857;None;1.1843678999998701;;;;;;;Emoconpilot045;2022_Jan_07_1134;BackwardMask;2020.2.8;120.01315344162764;
;f;012_o_f_s_a.jpg;sad;7;13;m;013_y_m_h_a.jpg;happy;incongruent;9;mismatch;;130;150;;3;235;block1_Pilot_2;12;s_h;s_h_weak;;;;;0;0;0;0;0;119;119;119;;;;;;;;;825.9156088000001;None;827.8765959000001;828.1740272000001;828.1740272000001;828.1989406000001;828.1989406000001;828.2399214000001;828.2399214000001;None;7;0;828.2399214000001;None;829.7396981;None;['8'];[0.30722979999995914];829.7396981;None;0.7592388999999002;;;;;;;Emoconpilot045;2022_Jan_07_1134;BackwardMask;2020.2.8;120.01315344162764;
;f;019_m_f_s_a.jpg;sad;7;30;f;030_o_f_h_a.jpg;happy;incongruent;9;match;;130;150;;3;235;block2_Pilot_2;19;s_h;s_h_strong;;;;;0;1;1;1;0;0;0;0;;;;;;;;;852.7769707000001;None;854.7445014000001;855.0334586;855.0334586;855.0576546000001;855.0576546000001;855.0986685000001;855.0986685000001;None;None;0;855.0986685000001;None;856.5995240999999;None;['9'];[0.7835752999999386];856.5995240999999;None;;;;832.7405603999999;None;;;Emoconpilot045;2022_Jan_07_1134;BackwardMask;2020.2.8;120.01315344162764;
;m;008_y_m_n_a.jpg;neutral;8;40;f;040_y_f_h_a.jpg;happy;incongruent;9;mismatch;;140;150;;2;121;block2_Pilot_2;8;n_h;n_h_strong;;;;;0;1;1;1;0;1;1;1;;;;;;;;;859.5996891000001;None;860.6264529000001;860.9169729000001;860.9169729000001;860.9328773999999;860.9328773999999;860.9738454;860.9738454;None;8;0;860.9738454;None;862.4739966000001;None;['8'];[0.36506660000009106];862.4739966000001;None;0.6411516999999094;;;;;;;Emoconpilot045;2022_Jan_07_1134;BackwardMask;2020.2.8;120.01315344162764;
;f;012_o_f_h_a.jpg;happy;9;27;m;027_o_m_n_a.jpg;neutral;incongruent;8;mismatch;;120;170;;2;240;block2_Pilot_2;12;h_n;h_n_weak;;;;;0;1;1;1;0;2;2;2;;;;;;;;;865.4740726000001;None;867.4824128000001;867.7750181;867.7750181;867.7913927999999;867.7913927999999;867.8322456;867.8322456;None;9;0;867.8322456;None;869.3329626000001;None;['7'];[0.3381029000001945];869.3329626000001;None;0.5108797000000322;;;;;;;Emoconpilot045;2022_Jan_07_1134;BackwardMask;2020.2.8;120.01315344162764;
;m;008_y_m_h_a.jpg;happy;9;40;f;040_y_f_h_a.jpg;happy;congruent;9;mismatch;;120;150;;18;195;block2_Pilot_2;8;h_h;h_h_strong;;;;;0;1;1;1;0;3;3;3;;;;;;;;;872.3333961;None;873.9684834000001;874.2584391000001;874.2584391000001;874.4079431000001;874.4079431000001;874.4490023;874.4490023;None;9;1;874.4490023;None;875.9491547000001;None;['7'];[0.4659441000001152];875.9491547000001;None;0.45387559999994664;;;;;;;Emoconpilot045;2022_Jan_07_1134;BackwardMask;2020.2.8;120.01315344162764;
;m;004_o_m_n_a.jpg;neutral;8;33;m;033_o_m_s_a.jpg;sad;incongruent;7;match;;140;160;;18;126;block2_Pilot_2;4;n_s;n_s_weak;;;;;0;1;1;1;0;4;4;4;;;;;;;;;878.9499632999999;None;880.0224436;880.3170925000001;880.3170925000001;880.4665256;880.4665256;880.5075728;880.5075728;None;8;0;880.5075728;None;882.0075825;None;['7'];[0.2955236000000241];882.0075825;None;0.5795690999998442;;;;;;;Emoconpilot045;2022_Jan_07_1134;BackwardMask;2020.2.8;120.01315344162764;
;f;028_y_f_s_a.jpg;sad;7;27;m;027_o_m_n_a.jpg;neutral;incongruent;8;mismatch;;130;170;;18;225;block2_Pilot_2;28;s_n;s_n_strong;;;;;0;1;1;1;0;5;5;5;;;;;;;;;885.0086998;None;886.8964881;887.191952;887.191952;887.3415129000001;887.3415129000001;887.3827179000001;887.3827179000001;None;7;0;887.3827179000001;None;888.8825015000001;None;['7'];[0.2526663999999528];888.8825015000001;None;0.9282812000001286;;;;;;;Emoconpilot045;2022_Jan_07_1134;BackwardMask;2020.2.8;120.01315344162764;
;m;027_o_m_s_a.jpg;sad;7;30;f;030_o_f_h_a.jpg;happy;incongruent;9;mismatch;;130;150;;18;238;block2_Pilot_2;27;s_h;s_h_weak;;;;;0;1;1;1;0;6;6;6;;;;;;;;;891.8827686999999;None;893.8782398;894.1671543000001;894.1671543000001;894.3170999;894.3170999;894.357832;894.357832;None;7;0;894.357832;None;895.8578726;None;['7'];[0.26928459999999177];895.8578726;None;0.609273900000062;;;;;;;Emoconpilot045;2022_Jan_07_1134;BackwardMask;2020.2.8;120.01315344162764;
;m;033_o_m_h_a.jpg;happy;9;40;f;040_y_f_s_a.jpg;sad;incongruent;7;mismatch;;120;160;;1;238;block2_Pilot_2;33;h_s;h_s_strong;;;;;0;1;1;1;0;7;7;7;;;;;;;;;898.8581331000001;None;900.8510638000001;901.1421773000001;901.1421773000001;901.1505402000001;901.1505402000001;901.1913131;901.1913131;None;None;0;901.1913131;None;902.6914165;None;['9'];[0.34760449999998855];902.6914165;None;;;;;;;;Emoconpilot045;2022_Jan_07_1134;BackwardMask;2020.2.8;120.01315344162764;
;f;012_o_f_n_a.jpg;neutral;8;12;f;012_o_f_h_a.jpg;happy;incongruent;9;match;;140;150;;2;200;block2_Pilot_2;12;n_h;n_h_weak;;;;;0;1;1;1;0;8;8;8;;;;;;;;;905.6917715999999;None;907.3821283000001;907.6762497000001;907.6762497000001;907.6922616;907.6922616;907.7330833;907.7330833;None;None;0;907.7330833;None;909.2330158999999;None;['9'];[0.33393690000002607];909.2330158999999;None;;;;;;;;Emoconpilot045;2022_Jan_07_1134;BackwardMask;2020.2.8;120.01315344162764;
;f;030_o_f_n_a.jpg;neutral;8;19;f;019_m_f_n_a.jpg;neutral;congruent;8;match;;140;170;;1;238;block2_Pilot_2;30;n_n;n_n_weak;;;;;0;1;1;1;0;9;9;9;;;;;;;;;912.2331078999999;None;914.2356232999999;914.5264012000001;914.5264012000001;914.5340362000001;914.5340362000001;914.5749262;914.5749262;None;None;0;914.5749262;None;916.0748745;None;['9'];[0.5800243000001046];916.0748745;None;;;;;;;;Emoconpilot045;2022_Jan_07_1134;BackwardMask;2020.2.8;120.01315344162764;
;m;013_y_m_h_a.jpg;happy;9;8;m;008_y_m_n_a.jpg;neutral;incongruent;8;match;;120;170;;1;238;block2_Pilot_2;13;h_n;h_n_strong;;;;;0;1;1;1;0;10;10;10;;;;;;;;;919.0754249;None;921.0773641;921.3680307000001;921.3680307000001;921.3758160000001;921.3758160000001;921.4165418000001;921.4165418000001;None;None;0;921.4165418000001;None;922.9167567000001;None;['9'];[0.48236679999990884];922.9167567000001;None;;;;;;;;Emoconpilot045;2022_Jan_07_1134;BackwardMask;2020.2.8;120.01315344162764;
;f;040_y_f_h_a.jpg;happy;9;19;f;019_m_f_s_a.jpg;sad;incongruent;7;match;;120;160;;3;133;block2_Pilot_2;40;h_s;h_s_strong;;;;;0;1;1;1;0;11;11;11;;;;;;;;;925.9174956;None;927.0328399000001;927.32605;927.32605;927.3510815999999;927.3510815999999;927.3917830000001;927.3917830000001;None;9;0;927.3917830000001;None;928.8918692999999;None;['7'];[0.33919749999995474];928.8918692999999;None;0.5112726000002112;;;;;;;Emoconpilot045;2022_Jan_07_1134;BackwardMask;2020.2.8;120.01315344162764;
;f;040_y_f_h_a.jpg;happy;9;13;m;013_y_m_s_a.jpg;sad;incongruent;7;mismatch;;120;160;;3;226;block2_Pilot_2;40;h_s;h_s_strong;;;;;0;1;1;1;0;12;12;12;;;;;;;;;931.8925973000001;None;933.7819571000001;934.0760915;934.0760915;934.1010371000001;934.1010371000001;934.1419413;934.1419413;None;9;0;934.1419413;None;935.6420253;None;['7'];[0.3250424000000294];935.6420253;None;0.5289804000001368;;;;;;;Emoconpilot045;2022_Jan_07_1134;BackwardMask;2020.2.8;120.01315344162764;
;f;030_o_f_s_a.jpg;sad;7;27;m;027_o_m_h_a.jpg;happy;incongruent;9;mismatch;;130;150;;1;238;block2_Pilot_2;30;s_h;s_h_strong;;;;;0;1;1;1;0;13;13;13;;;;;;;;;938.6427266;None;940.6548867;940.9435991000001;940.9435991000001;940.9510817000001;940.9510817000001;940.9921564;940.9921564;None;None;0;940.9921564;None;942.4920632;None;['9'];[0.36301640000010593];942.4920632;None;;;;;;;;Emoconpilot045;2022_Jan_07_1134;BackwardMask;2020.2.8;120.01315344162764;
;m;033_o_m_h_a.jpg;happy;9;30;f;030_o_f_s_a.jpg;sad;incongruent;7;mismatch;;120;160;;1;238;block2_Pilot_2;33;h_s;h_s_weak;;;;;0;1;1;1;0;14;14;14;;;;;;;;;945.4936715;None;947.4835723;947.776391;947.776391;947.7846553;947.7846553;947.8255816;947.8255816;None;None;0;947.8255816;None;949.3256491000001;None;['9'];[0.40140389999987747];949.3256491000001;None;;;;;;;;Emoconpilot045;2022_Jan_07_1134;BackwardMask;2020.2.8;120.01315344162764;
;f;030_o_f_s_a.jpg;sad;7;28;f;028_y_f_n_a.jpg;neutral;incongruent;8;match;;130;170;;3;198;block2_Pilot_2;30;s_n;s_n_weak;;;;;0;1;1;1;0;15;15;15;;;;;;;;;952.3270335000001;None;953.9970320000001;954.2938926;954.2938926;954.3184207;954.3184207;954.3590375;954.3590375;None;7;0;954.3590375;None;955.8590276000001;None;['7'];[1.0839289999998982];955.8590276000001;None;0.7759643000001688;;;;;;;Emoconpilot045;2022_Jan_07_1134;BackwardMask;2020.2.8;120.01315344162764;
;f;030_o_f_s_a.jpg;sad;7;33;m;033_o_m_h_a.jpg;happy;incongruent;9;mismatch;;130;150;;3;175;block2_Pilot_2;30;s_h;s_h_weak;;;;;0;1;1;1;0;16;16;16;;;;;;;;;958.8598533;None;960.3368135;960.6271768;960.6271768;960.6515531000001;960.6515531000001;960.6925381;960.6925381;None;7;0;960.6925381;None;962.1926090000001;None;['7'];[0.24651939999989736];962.1926090000001;None;0.6504477000000861;;;;;;;Emoconpilot045;2022_Jan_07_1134;BackwardMask;2020.2.8;120.01315344162764;
;f;021_o_f_h_a.jpg;happy;9;30;f;030_o_f_h_a.jpg;happy;congruent;9;match;;120;150;;2;194;block2_Pilot_2;21;h_h;h_h_strong;;;;;0;1;1;1;0;17;17;17;;;;;;;;;965.1926162000001;None;966.8287955;967.1189582000001;967.1189582000001;967.1349718;967.1349718;967.1760301;967.1760301;None;9;1;967.1760301;None;968.6758631000001;None;['7'];[0.27508530000000064];968.6758631000001;None;0.6308378999999604;;;;;;;Emoconpilot045;2022_Jan_07_1134;BackwardMask;2020.2.8;120.01315344162764;
;f;019_m_f_n_a.jpg;neutral;8;16;m;016_y_m_s_a.jpg;sad;incongruent;7;mismatch;;140;160;;18;163;block2_Pilot_2;19;n_s;n_s_weak;;;;;0;1;1;1;0;18;18;18;;;;;;;;;971.6769816;None;973.05338;973.344174;973.344174;973.4935035;973.4935035;973.5343729;973.5343729;None;8;0;973.5343729;None;975.034606;None;['7'];[0.30025579999983165];975.034606;None;0.4964764000001196;;;;;;;Emoconpilot045;2022_Jan_07_1134;BackwardMask;2020.2.8;120.01315344162764;
;m;033_o_m_n_a.jpg;neutral;8;13;m;013_y_m_n_a.jpg;neutral;congruent;8;match;;140;170;;2;217;block2_Pilot_2;33;n_n;n_n_strong;;;;;0;1;1;1;0;19;19;19;;;;;;;;;978.0351801;None;979.8620839000001;980.1527522;980.1527522;980.1685821;980.1685821;980.2094386;980.2094386;None;8;1;980.2094386;None;981.7094800000001;None;['8'];[0.24157420000005914];981.7094800000001;None;0.6134650000001329;;;;;;;Emoconpilot045;2022_Jan_07_1134;BackwardMask;2020.2.8;120.01315344162764;
;m;033_o_m_h_a.jpg;happy;9;13;m;013_y_m_n_a.jpg;neutral;incongruent;8;match;;120;170;;2;227;block2_Pilot_2;33;h_n;h_n_weak;;;;;0;1;1;1;0;20;20;20;;;;;;;;;984.7114637999999;None;986.6094121;986.902148;986.902148;986.9187474000001;986.9187474000001;986.9598032;986.9598032;None;None;0;986.9598032;None;988.4595551000001;None;['9'];[0.29153599999995095];988.4595551000001;None;;;;;;;;Emoconpilot045;2022_Jan_07_1134;BackwardMask;2020.2.8;120.01315344162764;
;f;012_o_f_s_a.jpg;sad;7;16;m;016_y_m_n_a.jpg;neutral;incongruent;8;mismatch;;130;170;;1;238;block2_Pilot_2;12;s_n;s_n_weak;;;;;0;1;1;1;0;21;21;21;;;;;;;;;991.4596855000001;None;993.4473033;993.7439141000001;993.7439141000001;993.7523271000001;993.7523271000001;993.7928921000001;993.7928921000001;None;None;0;993.7928921000001;None;995.2930709999999;None;['9'];[0.40993550000007417];995.2930709999999;None;;;;;;;;Emoconpilot045;2022_Jan_07_1134;BackwardMask;2020.2.8;120.01315344162764;
;f;028_y_f_n_a.jpg;neutral;8;21;f;021_o_f_h_a.jpg;happy;incongruent;9;match;;140;150;;18;202;block2_Pilot_2;28;n_h;n_h_strong;;;;;0;1;1;1;0;22;22;22;;;;;;;;;998.2940434000001;None;999.9978957;1000.2947032000001;1000.2947032000001;1000.4437404000001;1000.4437404000001;1000.484988;1000.484988;None;8;0;1000.484988;None;1001.9854925999999;None;['7'];[0.2934767000001557];1001.9854925999999;None;0.48994199999992816;;;;;;;Emoconpilot045;2022_Jan_07_1134;BackwardMask;2020.2.8;120.01315344162764;
;f;028_y_f_s_a.jpg;sad;7;30;f;030_o_f_n_a.jpg;neutral;incongruent;8;match;;130;170;;2;127;block2_Pilot_2;28;s_n;s_n_weak;;;;;0;1;1;1;0;23;23;23;;;;;;;;;1004.9854766;None;1006.055103;1006.3444432;1006.3444432;1006.3608681;1006.3608681;1006.4017627;1006.4017627;None;None;0;1006.4017627;None;1007.9016644;None;['9'];[0.37746850000007726];1007.9016644;None;;;;;;;;Emoconpilot045;2022_Jan_07_1134;BackwardMask;2020.2.8;120.01315344162764;
;m;004_o_m_n_a.jpg;neutral;8;40;f;040_y_f_n_a.jpg;neutral;congruent;8;mismatch;;140;170;;1;238;block2_Pilot_2;4;n_n;n_n_weak;;;;;0;1;1;1;0;24;24;24;;;;;;;;;1010.9028453;None;1012.9063520999999;1013.1949907;1013.1949907;1013.2026351000001;1013.2026351000001;1013.2434882000001;1013.2434882000001;None;None;0;1013.2434882000001;None;1014.7436719000001;None;['9'];[0.3353161];1014.7436719000001;None;;;;;;;;Emoconpilot045;2022_Jan_07_1134;BackwardMask;2020.2.8;120.01315344162764;
;m;016_y_m_n_a.jpg;neutral;8;16;m;016_y_m_h_a.jpg;happy;incongruent;9;match;;140;150;;18;239;block2_Pilot_2;16;n_h;n_h_weak;;;;;0;1;1;1;0;25;25;25;;;;;;;;;1017.7449434000001;None;1019.7542662;1020.0448792999999;1020.0448792999999;1020.1944558000001;1020.1944558000001;1020.235321;1020.235321;None;8;0;1020.235321;None;1021.7354037000001;None;['7'];[0.2713608000001386];1021.7354037000001;None;0.47563510000009046;;;;;;;Emoconpilot045;2022_Jan_07_1134;BackwardMask;2020.2.8;120.01315344162764;
;f;012_o_f_n_a.jpg;neutral;8;33;m;033_o_m_n_a.jpg;neutral;congruent;8;mismatch;;140;170;;3;134;block2_Pilot_2;12;n_n;n_n_weak;;;;;0;1;1;1;0;26;26;26;;;;;;;;;1024.7354034;None;1025.8713541999998;1026.1618263999999;1026.1618263999999;1026.186239;1026.186239;1026.2271818;1026.2271818;None;8;1;1026.2271818;None;1027.7271962;None;['7'];[0.2797339999999622];1027.7271962;None;0.6038260000000264;;;;;;;Emoconpilot045;2022_Jan_07_1134;BackwardMask;2020.2.8;120.01315344162764;
;m;013_y_m_h_a.jpg;happy;9;27;m;027_o_m_s_a.jpg;sad;incongruent;7;match;;120;160;;2;194;block2_Pilot_2;13;h_s;h_s_strong;;;;;0;1;1;1;0;27;27;27;;;;;;;;;1030.7273189;None;1032.3630856999998;1032.6534824999999;1032.6534824999999;1032.6696597999999;1032.6696597999999;1032.7105414999999;1032.7105414999999;None;9;0;1032.7105414999999;None;1034.2106649;None;['7'];[0.30834009999989576];1034.2106649;None;0.592360299999882;;;;;;;Emoconpilot045;2022_Jan_07_1134;BackwardMask;2020.2.8;120.01315344162764;
;m;013_y_m_n_a.jpg;neutral;8;28;f;028_y_f_n_a.jpg;neutral;congruent;8;mismatch;;140;170;;1;238;block2_Pilot_2;13;n_n;n_n_weak;;;;;0;1;1;1;0;28;28;28;;;;;;;;;1037.2110501;None;1039.2163097;1039.511968;1039.511968;1039.5197982;1039.5197982;1039.5606705;1039.5606705;None;None;0;1039.5606705;None;1041.0605299;None;['9'];[0.458532200000036];1041.0605299;None;;;;;;;;Emoconpilot045;2022_Jan_07_1134;BackwardMask;2020.2.8;120.01315344162764;
;f;030_o_f_s_a.jpg;sad;7;33;m;033_o_m_h_a.jpg;happy;incongruent;9;mismatch;;130;150;;3;168;block2_Pilot_2;30;s_h;s_h_weak;;;;;0;1;1;1;0;29;29;29;;;;;;;;;1044.0618141999998;None;1045.479958;1045.7704383999999;1045.7704383999999;1045.7949675999998;1045.7949675999998;1045.8358839999999;1045.8358839999999;None;7;0;1045.8358839999999;None;1047.3357965;None;['7'];[0.23154939999994895];1047.3357965;None;0.7631505000001653;;;;;;;Emoconpilot045;2022_Jan_07_1134;BackwardMask;2020.2.8;120.01315344162764;
;m;008_y_m_n_a.jpg;neutral;8;12;f;012_o_f_n_a.jpg;neutral;congruent;8;mismatch;;140;170;;18;208;block2_Pilot_2;8;n_n;n_n_weak;;;;;0;1;1;1;0;30;30;30;;;;;;;;;1050.3359065999998;None;1052.0888068;1052.3789743;1052.3789743;1052.5285889;1052.5285889;1052.5692391;1052.5692391;None;8;1;1052.5692391;None;1054.0692563999999;None;['7'];[0.26569599999993443];1054.0692563999999;None;0.4776174999999512;;;;;;;Emoconpilot045;2022_Jan_07_1134;BackwardMask;2020.2.8;120.01315344162764;
;m;008_y_m_s_a.jpg;sad;7;4;m;004_o_m_n_a.jpg;neutral;incongruent;8;match;;130;170;;2;231;block2_Pilot_2;8;s_n;s_n_weak;;;;;0;1;1;1;0;31;31;31;;;;;;;;;1057.0701557;None;1059.0137404999998;1059.3040337;1059.3040337;1059.320215;1059.320215;1059.3611893999998;1059.3611893999998;None;7;0;1059.3611893999998;None;1060.8611987;None;['8'];[0.265621499999952];1060.8611987;None;0.7898631999998997;;;;;;;Emoconpilot045;2022_Jan_07_1134;BackwardMask;2020.2.8;120.01315344162764;
;m;016_y_m_n_a.jpg;neutral;8;28;f;028_y_f_n_a.jpg;neutral;congruent;8;mismatch;;140;170;;2;218;block2_Pilot_2;16;n_n;n_n_weak;;;;;0;1;1;1;0;32;32;32;;;;;;;;;1063.8614840999999;None;1065.6970858999998;1065.9874969999998;1065.9874969999998;1066.003573;1066.003573;1066.0446046;1066.0446046;None;8;1;1066.0446046;None;1067.544876;None;['7'];[0.6779319999998279];1067.544876;None;0.8504451999999674;;;;;;;Emoconpilot045;2022_Jan_07_1134;BackwardMask;2020.2.8;120.01315344162764;
;m;033_o_m_n_a.jpg;neutral;8;33;m;033_o_m_s_a.jpg;sad;incongruent;7;match;;140;160;;3;141;block2_Pilot_2;33;n_s;n_s_weak;;;;;0;1;1;1;0;33;33;33;;;;;;;;;1070.5447086;None;1071.7387843;1072.0295085;1072.0295085;1072.0537653;1072.0537653;1072.0947096;1072.0947096;None;8;0;1072.0947096;None;1073.5951455;None;['7'];[1.0358875000001717];1073.5951455;None;0.6963327999999365;;;;;;;Emoconpilot045;2022_Jan_07_1134;BackwardMask;2020.2.8;120.01315344162764;
;m;016_y_m_n_a.jpg;neutral;8;13;m;013_y_m_s_a.jpg;sad;incongruent;7;match;;140;160;;1;238;block2_Pilot_2;16;n_s;n_s_weak;;;;;0;1;1;1;0;34;34;34;;;;;;;;;1076.5947439;None;1078.597331;1078.8879141999998;1078.8879141999998;1078.8955772;1078.8955772;1078.9364679999999;1078.9364679999999;None;None;0;1078.9364679999999;None;1080.4365498;None;['9'];[0.5063656999998329];1080.4365498;None;;;;;;;;Emoconpilot045;2022_Jan_07_1134;BackwardMask;2020.2.8;120.01315344162764;
;f;030_o_f_h_a.jpg;happy;9;12;f;012_o_f_n_a.jpg;neutral;incongruent;8;match;;120;170;;3;190;block2_Pilot_2;30;h_n;h_n_weak;;;;;0;1;1;1;0;35;35;35;;;;;;;;;1083.4377046999998;None;1085.0424091999998;1085.3379957;1085.3379957;1085.3624633;1085.3624633;1085.4034319999998;1085.4034319999998;None;9;0;1085.4034319999998;None;1086.9031992999999;None;['7'];[0.27161980000005315];1086.9031992999999;None;0.5555438000001232;;;;;;;Emoconpilot045;2022_Jan_07_1134;BackwardMask;2020.2.8;120.01315344162764;
;f;030_o_f_s_a.jpg;sad;7;12;f;012_o_f_n_a.jpg;neutral;incongruent;8;match;;130;170;;3;197;block2_Pilot_2;30;s_n;s_n_strong;;;;;0;1;1;1;0;36;36;36;;;;;;;;;1089.9047767;None;1091.5644493;1091.8550374;1091.8550374;1091.8790486;1091.8790486;1091.9199598;1091.9199598;None;8;1;1091.9199598;None;1093.4201643;None;['8'];[0.49078659999986485];1093.4201643;None;1.4309932999999546;;;;;;;Emoconpilot045;2022_Jan_07_1134;BackwardMask;2020.2.8;120.01315344162764;
;m;004_o_m_s_a.jpg;sad;7;8;m;008_y_m_h_a.jpg;happy;incongruent;9;match;;130;150;;3;201;block2_Pilot_2;4;s_h;s_h_strong;;;;;0;1;1;1;0;37;37;37;;;;;;;;;1096.4201979;None;1098.1069782;1098.3962463;1098.3962463;1098.4210137;1098.4210137;1098.4617329999999;1098.4617329999999;None;7;0;1098.4617329999999;None;1099.9621358;None;['8'];[0.8126843000000008];1099.9621358;None;1.3052187000000686;;;;;;;Emoconpilot045;2022_Jan_07_1134;BackwardMask;2020.2.8;120.01315344162764;
;f;040_y_f_n_a.jpg;neutral;8;16;m;016_y_m_n_a.jpg;neutral;congruent;8;mismatch;;140;170;;3;198;block2_Pilot_2;40;n_n;n_n_strong;;;;;0;1;1;1;0;38;38;38;;;;;;;;;1102.9620439999999;None;1104.632897;1104.9216689;1104.9216689;1104.9461735999998;1104.9461735999998;1104.9870403;1104.9870403;None;8;1;1104.9870403;None;1106.4873507999998;None;['7'];[0.6316084999998566];1106.4873507999998;None;0.6838063000000147;;;;;;;Emoconpilot045;2022_Jan_07_1134;BackwardMask;2020.2.8;120.01315344162764;
;m;027_o_m_n_a.jpg;neutral;8;16;m;016_y_m_s_a.jpg;sad;incongruent;7;match;;140;160;;1;238;block2_Pilot_2;27;n_s;n_s_strong;;;;;0;1;1;1;0;39;39;39;;;;;;;;;1109.4880922;None;1111.4928906;1111.7886922999999;1111.7886922999999;1111.7962346;1111.7962346;1111.8371376999999;1111.8371376999999;None;None;0;1111.8371376999999;None;1113.337086;None;['9'];[0.38989459999993414];1113.337086;None;;;;;;;;Emoconpilot045;2022_Jan_07_1134;BackwardMask;2020.2.8;120.01315344162764;
;m;033_o_m_n_a.jpg;neutral;8;40;f;040_y_f_h_a.jpg;happy;incongruent;9;mismatch;;140;150;;2;137;block2_Pilot_2;33;n_h;n_h_strong;;;;;0;1;1;1;0;40;40;40;;;;;;;;;1116.3374766;None;1117.4982039;1117.7888045;1117.7888045;1117.8047007;1117.8047007;1117.8456244;1117.8456244;None;None;0;1117.8456244;None;1119.3457397;None;['9'];[0.37315429999989647];1119.3457397;None;;;;;;;;Emoconpilot045;2022_Jan_07_1134;BackwardMask;2020.2.8;120.01315344162764;
;m;004_o_m_s_a.jpg;sad;7;8;m;008_y_m_h_a.jpg;happy;incongruent;9;match;;130;150;;18;193;block2_Pilot_2;4;s_h;s_h_strong;;;;;0;1;1;1;0;41;41;41;;;;;;;;;1122.3465041;None;1123.9614256;1124.255032;1124.255032;1124.4049052;1124.4049052;1124.4457376;1124.4457376;None;7;0;1124.4457376;None;1125.9459127;None;['7'];[0.301114600000119];1125.9459127;None;0.5210255999998026;;;;;;;Emoconpilot045;2022_Jan_07_1134;BackwardMask;2020.2.8;120.01315344162764;
;f;012_o_f_h_a.jpg;happy;9;4;m;004_o_m_s_a.jpg;sad;incongruent;7;mismatch;;120;160;;3;198;block2_Pilot_2;12;h_s;h_s_weak;;;;;0;1;1;1;0;42;42;42;;;;;;;;;1128.9466545999999;None;1130.6039744999998;1130.8973884;1130.8973884;1130.9217990999998;1130.9217990999998;1130.9625184;1130.9625184;None;9;0;1130.9625184;None;1132.4625671;None;['7'];[0.30438630000003286];1132.4625671;None;0.47667139999998653;;;;;;;Emoconpilot045;2022_Jan_07_1134;BackwardMask;2020.2.8;120.01315344162764;
;f;012_o_f_n_a.jpg;neutral;8;8;m;008_y_m_s_a.jpg;sad;incongruent;7;mismatch;;140;160;;1;238;block2_Pilot_2;12;n_s;n_s_strong;;;;;0;1;1;1;0;43;43;43;;;;;;;;;1135.463464;None;1137.4683372;1137.7641707999999;1137.7641707999999;1137.7717507;1137.7717507;1137.8127255;1137.8127255;None;None;0;1137.8127255;None;1139.3128586;None;['9'];[0.36606480000000374];1139.3128586;None;;;;;;;;Emoconpilot045;2022_Jan_07_1134;BackwardMask;2020.2.8;120.01315344162764;
;f;040_y_f_n_a.jpg;neutral;8;8;m;008_y_m_n_a.jpg;neutral;congruent;8;mismatch;;140;170;;3;165;block2_Pilot_2;40;n_n;n_n_weak;;;;;0;1;1;1;0;44;44;44;;;;;;;;;1142.3145106;None;1143.70707;1143.9974513999998;1143.9974513999998;1144.0219075999998;1144.0219075999998;1144.0628336;1144.0628336;None;8;1;1144.0628336;None;1145.5629609;None;['7'];[0.2838717000001907];1145.5629609;None;0.6481265999998413;;;;;;;Emoconpilot045;2022_Jan_07_1134;BackwardMask;2020.2.8;120.01315344162764;
;f;028_y_f_h_a.jpg;happy;9;33;m;033_o_m_n_a.jpg;neutral;incongruent;8;mismatch;;120;170;;1;238;block2_Pilot_2;28;h_n;h_n_strong;;;;;0;1;1;1;0;45;45;45;;;;;;;;;1148.5639391999998;None;1150.5567386999999;1150.8474319;1150.8474319;1150.8554024999999;1150.8554024999999;1150.8962086;1150.8962086;None;None;0;1150.8962086;None;1152.3964996;None;['9'];[0.41840430000002016];1152.3964996;None;;;;;;;;Emoconpilot045;2022_Jan_07_1134;BackwardMask;2020.2.8;120.01315344162764;
;m;027_o_m_s_a.jpg;sad;7;19;f;019_m_f_n_a.jpg;neutral;incongruent;8;mismatch;;130;170;;2;236;block2_Pilot_2;27;s_n;s_n_weak;;;;;0;1;1;1;0;46;46;46;;;;;;;;;1155.3972784;None;1157.3706760999999;1157.6640028;1157.6640028;1157.6805565;1157.6805565;1157.7213379;1157.7213379;None;8;1;1157.7213379;None;1159.2215985999999;None;['8'];[0.3292583999998442];1159.2215985999999;None;0.6695780000000013;;;;;;;Emoconpilot045;2022_Jan_07_1134;BackwardMask;2020.2.8;120.01315344162764;
;m;027_o_m_h_a.jpg;happy;9;19;f;019_m_f_s_a.jpg;sad;incongruent;7;mismatch;;120;160;;1;238;block2_Pilot_2;27;h_s;h_s_strong;;;;;0;1;1;1;0;47;47;47;;;;;;;;;1162.2225039;None;1164.2286778999999;1164.522963;1164.522963;1164.5306656999999;1164.5306656999999;1164.5716731;1164.5716731;None;None;0;1164.5716731;None;1166.0714940999999;None;['9'];[0.3993496000000505];1166.0714940999999;None;;;;;;;;Emoconpilot045;2022_Jan_07_1134;BackwardMask;2020.2.8;120.01315344162764;
;m;016_y_m_h_a.jpg;happy;9;4;m;004_o_m_s_a.jpg;sad;incongruent;7;match;;120;160;;3;227;block2_Pilot_2;16;h_s;h_s_strong;;;;;0;1;1;1;0;48;48;48;;;;;;;;;1169.0718580999999;None;1170.9755974999998;1171.2643664;1171.2643664;1171.2891026999998;1171.2891026999998;1171.3301227;1171.3301227;None;9;0;1171.3301227;None;1172.8301341;None;['7'];[0.3209028999999646];1172.8301341;None;0.5488138999999137;;;;;;;Emoconpilot045;2022_Jan_07_1134;BackwardMask;2020.2.8;120.01315344162764;
;f;040_y_f_h_a.jpg;happy;9;13;m;013_y_m_h_a.jpg;happy;congruent;9;mismatch;;120;150;;3;165;block2_Pilot_2;40;h_h;h_h_strong;;;;;0;1;1;1;0;49;49;49;;;;;;;;;1175.8302875;None;1177.2124646999998;1177.5062613999999;1177.5062613999999;1177.5308271;1177.5308271;1177.5716896;1177.5716896;None;9;1;1177.5716896;None;1179.0719073;None;['7'];[0.28697630000010577];1179.0719073;None;0.5311798000000181;;;;;;;Emoconpilot045;2022_Jan_07_1134;BackwardMask;2020.2.8;120.01315344162764;
;m;033_o_m_s_a.jpg;sad;7;28;f;028_y_f_n_a.jpg;neutral;incongruent;8;mismatch;;130;170;;2;227;block2_Pilot_2;33;s_n;s_n_weak;;;;;0;1;1;1;0;50;50;50;;;;;;;;;1182.0727106;None;1183.9760225;1184.2646316999999;1184.2646316999999;1184.2810869999998;1184.2810869999998;1184.3218865;1184.3218865;None;8;1;1184.3218865;None;1185.8220176999998;None;['8'];[0.26494530000013583];1185.8220176999998;None;0.7490394999999808;;;;;;;Emoconpilot045;2022_Jan_07_1134;BackwardMask;2020.2.8;120.01315344162764;
;f;019_m_f_s_a.jpg;sad;7;27;m;027_o_m_h_a.jpg;happy;incongruent;9;mismatch;;130;150;;1;238;block2_Pilot_2;19;s_h;s_h_weak;;;;;0;1;1;1;0;51;51;51;;;;;;;;;1188.8220844999998;None;1190.8266184;1191.1150731999999;1191.1150731999999;1191.1228936999998;1191.1228936999998;1191.1638822999998;1191.1638822999998;None;None;0;1191.1638822999998;None;1192.6639069;None;['9'];[0.47085859999992863];1192.6639069;None;;;;;;;;Emoconpilot045;2022_Jan_07_1134;BackwardMask;2020.2.8;120.01315344162764;
;m;016_y_m_h_a.jpg;happy;9;19;f;019_m_f_n_a.jpg;neutral;incongruent;8;mismatch;;120;170;;18;238;block2_Pilot_2;16;h_n;h_n_strong;;;;;0;1;1;1;0;52;52;52;;;;;;;;;1195.6645506999998;None;1197.6548658;1197.9482902;1197.9482902;1198.0980723999999;1198.0980723999999;1198.1389047999999;1198.1389047999999;None;9;0;1198.1389047999999;None;1199.6391472999999;None;['7'];[0.31975179999994907];1199.6391472999999;None;0.39596899999992274;;;;;;;Emoconpilot045;2022_Jan_07_1134;BackwardMask;2020.2.8;120.01315344162764;
;f;021_o_f_s_a.jpg;sad;7;8;m;008_y_m_n_a.jpg;neutral;incongruent;8;mismatch;;130;170;;1;238;block2_Pilot_2;21;s_n;s_n_strong;;;;;0;1;1;1;0;53;53;53;;;;;;;;;1202.6396587;None;1204.628634;1204.9232663999999;1204.9232663999999;1204.9314726;1204.9314726;1204.9723944999998;1204.9723944999998;None;None;0;1204.9723944999998;None;1206.4729802;None;['9'];[0.46198149999986526];1206.4729802;None;;;;;;;;Emoconpilot045;2022_Jan_07_1134;BackwardMask;2020.2.8;120.01315344162764;
;f;012_o_f_s_a.jpg;sad;7;33;m;033_o_m_s_a.jpg;sad;congruent;7;mismatch;;130;160;;2;148;block2_Pilot_2;12;s_s;s_s_weak;;;;;0;1;1;1;0;54;54;54;;;;;;;;;1209.4732468;None;1210.7098001;1211.0066568;1211.0066568;1211.0233936999998;1211.0233936999998;1211.0641111;1211.0641111;None;None;0;1211.0641111;None;1212.5641547;None;['9'];[0.43481599999995524];1212.5641547;None;;;;;;;;Emoconpilot045;2022_Jan_07_1134;BackwardMask;2020.2.8;120.01315344162764;
;f;030_o_f_s_a.jpg;sad;7;40;f;040_y_f_s_a.jpg;sad;congruent;7;match;;130;160;;3;136;block2_Pilot_2;30;s_s;s_s_strong;;;;;0;1;1;1;0;55;55;55;;;;;;;;;1215.5647807;None;1216.7192796;1217.0156722;1217.0156722;1217.0401427;1217.0401427;1217.0809574;1217.0809574;None;7;1;1217.0809574;None;1218.5809745;None;['8'];[0.23377879999998186];1218.5809745;None;0.6219361999999364;;;;;;;Emoconpilot045;2022_Jan_07_1134;BackwardMask;2020.2.8;120.01315344162764;
;m;027_o_m_s_a.jpg;sad;7;28;f;028_y_f_h_a.jpg;happy;incongruent;9;mismatch;;130;150;;1;238;block2_Pilot_2;27;s_h;s_h_weak;;;;;0;1;1;1;0;56;56;56;;;;;;;;;1221.5821035;None;1223.5725278;1223.8653932;1223.8653932;1223.8736064999998;1223.8736064999998;1223.9145059999998;1223.9145059999998;None;None;0;1223.9145059999998;None;1225.4145419;None;['9'];[0.3842603999999028];1225.4145419;None;;;;;;;;Emoconpilot045;2022_Jan_07_1134;BackwardMask;2020.2.8;120.01315344162764;
;m;004_o_m_n_a.jpg;neutral;8;8;m;008_y_m_s_a.jpg;sad;incongruent;7;match;;140;160;;3;225;block2_Pilot_2;4;n_s;n_s_strong;;;;;0;1;1;1;0;57;57;57;;;;;;;;;1228.4155013999998;None;1230.3099075999999;1230.5991743;1230.5991743;1230.6236883;1230.6236883;1230.6645419;1230.6645419;None;8;0;1230.6645419;None;1232.1647644999998;None;['8'];[0.3940927000001011];1232.1647644999998;None;0.7183388999999352;;;;;;;Emoconpilot045;2022_Jan_07_1134;BackwardMask;2020.2.8;120.01315344162764;
;f;012_o_f_s_a.jpg;sad;7;40;f;040_y_f_s_a.jpg;sad;congruent;7;match;;130;160;;1;238;block2_Pilot_2;12;s_s;s_s_strong;;;;;0;1;1;1;0;58;58;58;;;;;;;;;1235.1656194;None;1237.1519395;1237.4489019;1237.4489019;1237.4568964999999;1237.4568964999999;1237.4980352999999;1237.4980352999999;None;None;0;1237.4980352999999;None;1238.9979956999998;None;['9'];[0.36887449999994715];1238.9979956999998;None;;;;;;;;Emoconpilot045;2022_Jan_07_1134;BackwardMask;2020.2.8;120.01315344162764;
;f;021_o_f_h_a.jpg;happy;9;4;m;004_o_m_n_a.jpg;neutral;incongruent;8;mismatch;;120;170;;1;238;block2_Pilot_2;21;h_n;h_n_weak;;;;;0;1;1;1;0;59;59;59;;;;;;;;;1241.9988253;None;1244.0030192;1244.2995365;1244.2995365;1244.3071161999999;1244.3071161999999;1244.347965;1244.347965;None;None;0;1244.347965;None;1245.8481388999999;None;['9'];[0.4227022999998553];1245.8481388999999;None;;;;;;;;Emoconpilot045;2022_Jan_07_1134;BackwardMask;2020.2.8;120.01315344162764;
;f;040_y_f_h_a.jpg;happy;9;16;m;016_y_m_n_a.jpg;neutral;incongruent;8;mismatch;;120;170;;2;154;block2_Pilot_2;40;h_n;h_n_weak;;;;;0;1;1;1;0;60;60;60;;;;;;;;;1248.8489627;None;1250.1393563;1250.4326540999998;1250.4326540999998;1250.4491317;1250.4491317;1250.4899590999999;1250.4899590999999;None;9;0;1250.4899590999999;None;1251.9900882;None;['7'];[0.7287388999998257];1251.9900882;None;0.7010190000000875;;;;;;;Emoconpilot045;2022_Jan_07_1134;BackwardMask;2020.2.8;120.01315344162764;
;m;008_y_m_n_a.jpg;neutral;8;4;m;004_o_m_s_a.jpg;sad;incongruent;7;match;;140;160;;18;145;block2_Pilot_2;8;n_s;n_s_strong;;;;;0;1;1;1;0;61;61;61;;;;;;;;;1254.9910192999998;None;1256.2189723;1256.5080022;1256.5080022;1256.6575497;1256.6575497;1256.6985238;1256.6985238;None;8;0;1256.6985238;None;1258.1984679;None;['7'];[0.3042998000000807];1258.1984679;None;0.42020049999996445;;;;;;;Emoconpilot045;2022_Jan_07_1134;BackwardMask;2020.2.8;120.01315344162764;
;f;021_o_f_s_a.jpg;sad;7;33;m;033_o_m_h_a.jpg;happy;incongruent;9;mismatch;;130;150;;1;238;block2_Pilot_2;21;s_h;s_h_strong;;;;;0;1;1;1;0;62;62;62;;;;;;;;;1261.1993765999998;None;1263.1881922;1263.482822;1263.482822;1263.4909696;1263.4909696;1263.5317461999998;1263.5317461999998;None;None;0;1263.5317461999998;None;1265.0320086;None;['9'];[0.37488389999998617];1265.0320086;None;;;;;;;;Emoconpilot045;2022_Jan_07_1134;BackwardMask;2020.2.8;120.01315344162764;
;m;033_o_m_n_a.jpg;neutral;8;30;f;030_o_f_h_a.jpg;happy;incongruent;9;mismatch;;140;150;;18;171;block2_Pilot_2;33;n_h;n_h_weak;;;;;0;1;1;1;0;63;63;63;;;;;;;;;1268.0319812999999;None;1269.4777364;1269.7668383999999;1269.7668383999999;1269.9162324;1269.9162324;1269.9570257999999;1269.9570257999999;None;8;0;1269.9570257999999;None;1271.4571194999999;None;['7'];[0.29384589999995114];1271.4571194999999;None;0.35386990000006335;;;;;;;Emoconpilot045;2022_Jan_07_1134;BackwardMask;2020.2.8;120.01315344162764;
;m;027_o_m_n_a.jpg;neutral;8;27;m;027_o_m_h_a.jpg;happy;incongruent;9;match;;140;150;;2;164;block2_Pilot_2;27;n_h;n_h_weak;;;;;0;1;1;1;0;64;64;64;;;;;;;;;1274.4578130999998;None;1275.8435063;1276.1337185999998;1276.1337185999998;1276.1495716;1276.1495716;1276.1905233999998;1276.1905233999998;None;8;0;1276.1905233999998;None;1277.6907477;None;['8'];[0.2919959999999264];1277.6907477;None;0.6964379000000918;;;;;;;Emoconpilot045;2022_Jan_07_1134;BackwardMask;2020.2.8;120.01315344162764;
;m;008_y_m_n_a.jpg;neutral;8;40;f;040_y_f_n_a.jpg;neutral;congruent;8;mismatch;;140;170;;1;238;block2_Pilot_2;8;n_n;n_n_strong;;;;;0;1;1;1;0;65;65;65;;;;;;;;;1280.6921552;None;1282.6929579999999;1282.9835726;1282.9835726;1282.9913714;1282.9913714;1283.0323035;1283.0323035;None;None;0;1283.0323035;None;1284.5323177;None;['9'];[0.41040589999988697];1284.5323177;None;;;;;;;;Emoconpilot045;2022_Jan_07_1134;BackwardMask;2020.2.8;120.01315344162764;
;f;040_y_f_h_a.jpg;happy;9;21;f;021_o_f_n_a.jpg;neutral;incongruent;8;match;;120;170;;18;239;block2_Pilot_2;40;h_n;h_n_strong;;;;;0;1;1;1;0;66;66;66;;;;;;;;;1287.5331858;None;1289.5323932;1289.8250044;1289.8250044;1289.9749505;1289.9749505;1290.015796;1290.015796;None;9;0;1290.015796;None;1291.5156095999998;None;['7'];[0.2912524000000758];1291.5156095999998;None;0.4549746000000141;;;;;;;Emoconpilot045;2022_Jan_07_1134;BackwardMask;2020.2.8;120.01315344162764;
;f;021_o_f_s_a.jpg;sad;7;28;f;028_y_f_h_a.jpg;happy;incongruent;9;match;;130;150;;1;238;block2_Pilot_2;21;s_h;s_h_weak;;;;;0;1;1;1;0;67;67;67;;;;;;;;;1294.5159904;None;1296.5053802;1296.8000855;1296.8000855;1296.8083379999998;1296.8083379999998;1296.8492451;1296.8492451;None;None;0;1296.8492451;None;1298.3493552999998;None;['9'];[0.3454259000000093];1298.3493552999998;None;;;;;;;;Emoconpilot045;2022_Jan_07_1134;BackwardMask;2020.2.8;120.01315344162764;
;f;021_o_f_n_a.jpg;neutral;8;30;f;030_o_f_n_a.jpg;neutral;congruent;8;match;;140;170;;2;209;block2_Pilot_2;21;n_n;n_n_strong;;;;;0;1;1;1;0;68;68;68;;;;;;;;;1301.3501953;None;1303.1146199999998;1303.4091767999998;1303.4091767999998;1303.4252981;1303.4252981;1303.4659824;1303.4659824;None;None;0;1303.4659824;None;1304.9661949;None;['9'];[0.6006548000000294];1304.9661949;None;;;;;;;;Emoconpilot045;2022_Jan_07_1134;BackwardMask;2020.2.8;120.01315344162764;
;f;040_y_f_s_a.jpg;sad;7;13;m;013_y_m_s_a.jpg;sad;congruent;7;mismatch;;130;160;;3;147;block2_Pilot_2;40;s_s;s_s_strong;;;;;0;1;1;1;0;69;69;69;;;;;;;;;1307.9664596;None;1309.2001453;1309.4920699;1309.4920699;1309.5169594;1309.5169594;1309.5578455999998;1309.5578455999998;None;8;0;1309.5578455999998;None;1311.0578219;None;['8'];[0.7089441999999053];1311.0578219;None;1.2090078000001085;;;;;;;Emoconpilot045;2022_Jan_07_1134;BackwardMask;2020.2.8;120.01315344162764;
;f;040_y_f_s_a.jpg;sad;7;21;f;021_o_f_h_a.jpg;happy;incongruent;9;match;;130;150;;3;172;block2_Pilot_2;40;s_h;s_h_strong;;;;;0;1;1;1;0;70;70;70;;;;;;;;;1314.0586847;None;1315.4992347;1315.7922941;1315.7922941;1315.8170318;1315.8170318;1315.8579419;1315.8579419;None;8;0;1315.8579419;None;1317.3580838;None;['8'];[0.3125936000001275];1317.3580838;None;0.644916799999919;;;;;;;Emoconpilot045;2022_Jan_07_1134;BackwardMask;2020.2.8;120.01315344162764;
;m;013_y_m_s_a.jpg;sad;7;16;m;016_y_m_n_a.jpg;neutral;incongruent;8;match;;130;170;;1;238;block2_Pilot_2;13;s_n;s_n_strong;;;;;0;1;1;1;0;71;71;71;;;;;;;;;1320.3593959999998;None;1322.3504501999998;1322.6423318999998;1322.6423318999998;1322.6505327999998;1322.6505327999998;1322.6913043;1322.6913043;None;None;0;1322.6913043;None;1324.1914365999999;None;['9'];[0.6873461000000134];1324.1914365999999;None;;;;;;;;Emoconpilot045;2022_Jan_07_1134;BackwardMask;2020.2.8;120.01315344162764;
;m;008_y_m_s_a.jpg;sad;7;12;f;012_o_f_h_a.jpg;happy;incongruent;9;mismatch;;130;150;;18;238;block2_Pilot_2;8;s_h;s_h_weak;;;;;0;1;1;1;0;72;72;72;;;;;;;;;1327.1924454;None;1329.196857;1329.4927246999998;1329.4927246999998;1329.6423129999998;1329.6423129999998;1329.6832221999998;1329.6832221999998;None;7;0;1329.6832221999998;None;1331.1831872;None;['7'];[0.6316828000001351];1331.1831872;None;0.46775989999991907;;;;;;;Emoconpilot045;2022_Jan_07_1134;BackwardMask;2020.2.8;120.01315344162764;
;m;013_y_m_s_a.jpg;sad;7;21;f;021_o_f_n_a.jpg;neutral;incongruent;8;mismatch;;130;170;;1;238;block2_Pilot_2;13;s_n;s_n_weak;;;;;0;1;1;1;0;73;73;73;;;;;;;;;1334.1834798999998;None;1336.1745921;1336.4676216999999;1336.4676216999999;1336.4758167999998;1336.4758167999998;1336.5168752999998;1336.5168752999998;None;None;0;1336.5168752999998;None;1338.0165998;None;['9'];[0.3981880999999703];1338.0165998;None;;;;;;;;Emoconpilot045;2022_Jan_07_1134;BackwardMask;2020.2.8;120.01315344162764;
;f;019_m_f_s_a.jpg;sad;7;12;f;012_o_f_n_a.jpg;neutral;incongruent;8;match;;130;170;;2;208;block2_Pilot_2;19;s_n;s_n_weak;;;;;0;1;1;1;0;74;74;74;;;;;;;;;1341.0176927;None;1342.7710064999999;1343.059881;1343.059881;1343.075779;1343.075779;1343.1168963;1343.1168963;None;None;0;1343.1168963;None;1344.6169707;None;['9'];[0.5097300000002178];1344.6169707;None;;;;;;;;Emoconpilot045;2022_Jan_07_1134;BackwardMask;2020.2.8;120.01315344162764;
;m;016_y_m_s_a.jpg;sad;7;19;f;019_m_f_n_a.jpg;neutral;incongruent;8;mismatch;;130;170;;18;238;block2_Pilot_2;16;s_n;s_n_strong;;;;;0;1;1;1;0;75;75;75;;;;;;;;;1347.6176704;None;1349.6081563;1349.9015018999999;1349.9015018999999;1350.0509496;1350.0509496;1350.0918219999999;1350.0918219999999;None;7;0;1350.0918219999999;None;1351.5921764999998;None;['7'];[0.3026896999999735];1351.5921764999998;None;0.45103450000010525;;;;;;;Emoconpilot045;2022_Jan_07_1134;BackwardMask;2020.2.8;120.01315344162764;
;f;040_y_f_n_a.jpg;neutral;8;27;m;027_o_m_s_a.jpg;sad;incongruent;7;mismatch;;140;160;;1;238;block2_Pilot_2;40;n_s;n_s_weak;;;;;0;1;1;1;0;76;76;76;;;;;;;;;1354.5928546;None;1356.5951450999999;1356.8850022;1356.8850022;1356.8929323999998;1356.8929323999998;1356.9338051999998;1356.9338051999998;None;None;0;1356.9338051999998;None;1358.4339086999998;None;['9'];[0.4047817999999097];1358.4339086999998;None;;;;;;;;Emoconpilot045;2022_Jan_07_1134;BackwardMask;2020.2.8;120.01315344162764;
;m;016_y_m_h_a.jpg;happy;9;30;f;030_o_f_n_a.jpg;neutral;incongruent;8;mismatch;;120;170;;2;215;block2_Pilot_2;16;h_n;h_n_weak;;;;;0;1;1;1;0;77;77;77;;;;;;;;;1361.4342677;None;1363.2334888;1363.5265415;1363.5265415;1363.5429207999998;1363.5429207999998;1363.5838715;1363.5838715;None;9;0;1363.5838715;None;1365.0839222;None;['7'];[0.38681369999994786];1365.0839222;None;0.5668269999998756;;;;;;;Emoconpilot045;2022_Jan_07_1134;BackwardMask;2020.2.8;120.01315344162764;
;m;013_y_m_h_a.jpg;happy;9;28;f;028_y_f_n_a.jpg;neutral;incongruent;8;mismatch;;120;170;;18;191;block2_Pilot_2;13;h_n;h_n_weak;;;;;0;1;1;1;0;78;78;78;;;;;;;;;1368.0841248;None;1369.6965839;1369.9852987;1369.9852987;1370.1348196;1370.1348196;1370.1757409;1370.1757409;None;9;0;1370.1757409;None;1371.6757991;None;['7'];[0.3470213999999032];1371.6757991;None;0.35908710000012434;;;;;;;Emoconpilot045;2022_Jan_07_1134;BackwardMask;2020.2.8;120.01315344162764;
;m;008_y_m_n_a.jpg;neutral;8;8;m;008_y_m_h_a.jpg;happy;incongruent;9;match;;140;150;;3;228;block2_Pilot_2;8;n_h;n_h_weak;;;;;0;1;1;1;0;79;79;79;;;;;;;;;1374.6764833999998;None;1376.5955127999998;1376.8855087;1376.8855087;1376.9104106;1376.9104106;1376.9509125;1376.9509125;None;8;0;1376.9509125;None;1378.4509704999998;None;['7'];[0.33991820000005646];1378.4509704999998;None;0.6239417000001595;;;;;;;Emoconpilot045;2022_Jan_07_1134;BackwardMask;2020.2.8;120.01315344162764;
;m;016_y_m_h_a.jpg;happy;9;13;m;013_y_m_s_a.jpg;sad;incongruent;7;match;;120;160;;1;238;block2_Pilot_2;16;h_s;h_s_weak;;;;;0;1;1;1;0;80;80;80;;;;;;;;;1381.4513528999998;None;1383.442476;1383.7352775;1383.7352775;1383.7433371999998;1383.7433371999998;1383.7843395999998;1383.7843395999998;None;None;0;1383.7843395999998;None;1385.2843037999999;None;['9'];[0.37053740000010293];1385.2843037999999;None;;;;;;;;Emoconpilot045;2022_Jan_07_1134;BackwardMask;2020.2.8;120.01315344162764;
;m;027_o_m_s_a.jpg;sad;7;40;f;040_y_f_h_a.jpg;happy;incongruent;9;mismatch;;130;150;;18;238;block2_Pilot_2;27;s_h;s_h_strong;;;;;0;1;1;1;0;81;81;81;;;;;;;;;1388.2852996;None;1390.2758798999998;1390.5687343;1390.5687343;1390.7185923;1390.7185923;1390.7595540999998;1390.7595540999998;None;7;0;1390.7595540999998;None;1392.2594582;None;['7'];[0.25937850000013896];1392.2594582;None;0.8312935999999809;;;;;;;Emoconpilot045;2022_Jan_07_1134;BackwardMask;2020.2.8;120.01315344162764;
;f;019_m_f_n_a.jpg;neutral;8;28;f;028_y_f_h_a.jpg;happy;incongruent;9;match;;140;150;;18;159;block2_Pilot_2;19;n_h;n_h_strong;;;;;0;1;1;1;0;82;82;82;;;;;;;;;1395.2595695;None;1396.6066386;1396.9027251999998;1396.9027251999998;1397.0520236999998;1397.0520236999998;1397.0930179;1397.0930179;None;8;0;1397.0930179;None;1398.5930727;None;['7'];[0.669762799999944];1398.5930727;None;0.5538252000001194;;;;;;;Emoconpilot045;2022_Jan_07_1134;BackwardMask;2020.2.8;120.01315344162764;
;m;013_y_m_n_a.jpg;neutral;8;4;m;004_o_m_n_a.jpg;neutral;congruent;8;match;;140;170;;1;238;block2_Pilot_2;13;n_n;n_n_strong;;;;;0;1;1;1;0;83;83;83;;;;;;;;;1401.5935921999999;None;1403.5956562;1403.8859913;1403.8859913;1403.8938663;1403.8938663;1403.9347796999998;1403.9347796999998;None;None;0;1403.9347796999998;None;1405.4347908999998;None;['9'];[0.3959756000001562];1405.4347908999998;None;;;;;;;;Emoconpilot045;2022_Jan_07_1134;BackwardMask;2020.2.8;120.01315344162764;
;f;040_y_f_s_a.jpg;sad;7;33;m;033_o_m_s_a.jpg;sad;congruent;7;mismatch;;130;160;;2;130;block2_Pilot_2;40;s_s;s_s_weak;;;;;0;1;1;1;0;84;84;84;;;;;;;;;1408.434984;None;1409.5260025;1409.8190361;1409.8190361;1409.8356724999999;1409.8356724999999;1409.8765133;1409.8765133;None;8;0;1409.8765133;None;1411.3765099;None;['8'];[0.7262879999998404];1411.3765099;None;0.5943809000000329;;;;;;;Emoconpilot045;2022_Jan_07_1134;BackwardMask;2020.2.8;120.01315344162764;
;m;013_y_m_s_a.jpg;sad;7;16;m;016_y_m_h_a.jpg;happy;incongruent;9;match;;130;150;;1;238;block2_Pilot_2;13;s_h;s_h_weak;;;;;0;1;1;1;0;85;85;85;;;;;;;;;1414.3774157999999;None;1416.3680081;1416.6609297999998;1416.6609297999998;1416.6689431;1416.6689431;1416.7098818;1416.7098818;None;None;0;1416.7098818;None;1418.2104130999999;None;['9'];[0.3083818000000065];1418.2104130999999;None;;;;;;;;Emoconpilot045;2022_Jan_07_1134;BackwardMask;2020.2.8;120.01315344162764;
