Person;primeGender;prime;primeEmotion;corrAnsPrime;targetPerson;targetGender;target;targetEmotion;Cond;corrAnsTar;gender;condition;ID_primer;ID_target;PrimerTime;PrimerTime120;JitterTime;conditionsFile;primePerson;emotion_condition;Condition;example.thisRepN;example.thisTrialN;example.thisN;example.thisIndex;readinBlocks.thisRepN;readinBlocks.thisTrialN;readinBlocks.thisN;readinBlocks.thisIndex;trials.thisRepN;trials.thisTrialN;trials.thisN;trials.thisIndex;text_intro.started;text_intro.stopped;text_probe.started;text_probe.stopped;key_resp_2.keys;key_resp_2.rt;key_resp_2.started;key_resp_2.stopped;polygon_ISI.started;polygon_ISI.stopped;polygon.started;polygon.stopped;primerImage.started;primerImage.stopped;maskImage.started;maskImage.stopped;response.started;response.stopped;key_resp.keys;key_resp.corr;key_resp.started;key_resp.stopped;text.started;text.stopped;key_resp_Rating.keys;key_resp_Rating.rt;key_resp_Rating.started;key_resp_Rating.stopped;key_resp.rt;text_start.started;text_start.stopped;text_pause.started;text_pause.stopped;text_ende.started;text_ende.stopped;participant;date;expName;psychopyVersion;frameRate;
;;;;;;;;;;;;;;;;;;;;;;;;;;;;;;;;;;213.53257609996945;218.50104700005613;218.50104700005613;None;7;19.910748399910517;213.53257609996945;None;;;;;;;;;;;;;;;;;;;;;;;;;;;;Emoconpilot048;2022_Jan_19_1237;BackwardMask;2020.2.8;120.44260236807746;
2;f;1113_y_f_s_a.jpg;sad;7;1;m;1111_m_m_h_a.jpg;happy;incongruent;9;mix;s+h;130;150;1;2;148;;;;;0;0;0;0;;;;;;;;;;;;;;;;;233.50959040003363;None;234.78391770005692;235.09543290000875;235.09543290000875;235.1256832999643;235.1256832999643;235.15954600006808;235.15954600006808;None;None;0;235.15954600006808;None;236.65933100006077;None;"['8', '7']";"[0.26395319995936006, 1.688031299971044]";236.65933100006077;None;;;;;;;;Emoconpilot048;2022_Jan_19_1237;BackwardMask;2020.2.8;120.44260236807746;
2;f;1111_m_m_h_a.jpg;happy;9;3;f;1113_y_f_s_a.jpg;sad;incongruent;7;mix;h+s;120;160;9;18;195;;;;;0;1;1;1;;;;;;;;;;;;;;;;;239.65876759996172;None;241.3111311000539;241.60097050003242;241.60097050003242;241.75043090002146;241.75043090002146;241.7914534000447;241.7914534000447;None;None;0;241.7914534000447;None;243.29137310001533;None;"['9', '8']";"[0.0798058999935165, 0.7279791999608278]";243.29137310001533;None;;;;;;;;Emoconpilot048;2022_Jan_19_1237;BackwardMask;2020.2.8;120.44260236807746;
2;f;1112_m_f_n_a.jpg;neutral;8;2;f;1112_m_f_n_a.jpg;neutral;congruent;8;match;n+n;140;170;9;18;134;;;;;0;2;2;2;;;;;;;;;;;;;;;;;246.2914926999947;None;247.4378155999584;247.73456859996077;247.73456859996077;247.8839628000278;247.8839628000278;247.92488489998505;247.92488489998505;None;8;1;247.92488489998505;None;249.42486090003513;None;['7'];[0.39431430003605783];249.42486090003513;None;0.8623462000396103;;;;;;;Emoconpilot048;2022_Jan_19_1237;BackwardMask;2020.2.8;120.44260236807746;
;m;033_o_m_h_a.jpg;happy;9;30;f;030_o_f_n_a.jpg;neutral;incongruent;8;mismatch;;120;170;;18;238;block1_Pilot_2;33;h_n;h_n_strong;;;;;0;0;0;0;0;0;0;0;;;;;;;;;253.47137260006275;None;255.47185219998937;255.76780210004654;255.76780210004654;255.9173129000701;255.9173129000701;255.95827850000933;255.95827850000933;None;9;0;255.95827850000933;None;257.45922770001926;None;['7'];[0.6560644999844953];257.45922770001926;None;1.0450509999645874;252.42526569997426;None;None;None;;;Emoconpilot048;2022_Jan_19_1237;BackwardMask;2020.2.8;120.44260236807746;
;m;004_o_m_h_a.jpg;happy;9;12;f;012_o_f_h_a.jpg;happy;congruent;9;mismatch;;120;150;;2;218;block1_Pilot_2;4;h_h;h_h_weak;;;;;0;0;0;0;0;1;1;1;;;;;;;;;260.4592849999899;None;262.34469090006314;262.6348711999599;262.6348711999599;262.65086549997795;262.65086549997795;262.69184390001465;262.69184390001465;None;None;0;262.69184390001465;None;264.19208730000537;None;['9'];[1.7950545999919996];264.19208730000537;None;;;;;;;;Emoconpilot048;2022_Jan_19_1237;BackwardMask;2020.2.8;120.44260236807746;
;f;012_o_f_h_a.jpg;happy;9;33;m;033_o_m_h_a.jpg;happy;congruent;9;mismatch;;120;150;;2;140;block1_Pilot_2;12;h_h;h_h_weak;;;;;0;0;0;0;0;2;2;2;;;;;;;;;267.19207099999767;None;268.3756140000187;268.6679206000408;268.6679206000408;268.6845575000625;268.6845575000625;268.7252567000687;268.7252567000687;None;9;1;268.7252567000687;None;270.2253745000344;None;['8'];[0.9778830000432208];270.2253745000344;None;1.4218964000465348;;;;;;;Emoconpilot048;2022_Jan_19_1237;BackwardMask;2020.2.8;120.44260236807746;
;f;040_y_f_n_a.jpg;neutral;8;40;f;040_y_f_h_a.jpg;happy;incongruent;9;match;;140;150;;2;192;block1_Pilot_2;40;n_h;n_h_weak;;;;;0;0;0;0;0;3;3;3;;;;;;;;;273.2263301999774;None;274.8591093000723;275.15185050002765;275.15185050002765;275.16782400000375;275.16782400000375;275.20865000004414;275.20865000004414;None;9;1;275.20865000004414;None;276.70875350001734;None;['8'];[0.4784802000503987];276.70875350001734;None;1.354364699916914;;;;;;;Emoconpilot048;2022_Jan_19_1237;BackwardMask;2020.2.8;120.44260236807746;
;m;013_y_m_s_a.jpg;sad;7;16;m;016_y_m_n_a.jpg;neutral;incongruent;8;match;;130;170;;3;155;block1_Pilot_2;13;s_n;s_n_weak;;;;;0;0;0;0;0;4;4;4;;;;;;;;;279.7095413999632;None;281.01780230004806;281.3099410000723;281.3099410000723;281.33467170002405;281.33467170002405;281.37570360000245;281.37570360000245;None;None;0;281.37570360000245;None;282.8756934000412;None;['7'];[0.2713827999541536];282.8756934000412;None;;;;;;;;Emoconpilot048;2022_Jan_19_1237;BackwardMask;2020.2.8;120.44260236807746;
;f;012_o_f_h_a.jpg;happy;9;21;f;021_o_f_h_a.jpg;happy;congruent;9;match;;120;150;;2;216;block1_Pilot_2;12;h_h;h_h_strong;;;;;0;0;0;0;0;5;5;5;;;;;;;;;285.87636230001226;None;287.6855137000093;287.97665500000585;287.97665500000585;287.9932048000628;287.9932048000628;288.03410230006557;288.03410230006557;None;9;1;288.03410230006557;None;289.5341681999853;None;['7'];[2.4129254000727087];289.5341681999853;None;1.43307259993162;;;;;;;Emoconpilot048;2022_Jan_19_1237;BackwardMask;2020.2.8;120.44260236807746;
;f;040_y_f_s_a.jpg;sad;7;40;f;040_y_f_h_a.jpg;happy;incongruent;9;match;;130;150;;1;238;block1_Pilot_2;40;s_h;s_h_weak;;;;;0;0;0;0;0;6;6;6;;;;;;;;;292.5345547000179;None;294.5328733000206;294.82694040006027;294.82694040006027;294.8348372000037;294.8348372000037;294.875904000015;294.875904000015;None;None;0;294.875904000015;None;296.3758564000018;None;['8'];[1.0194499000208452];296.3758564000018;None;;;;;;;;Emoconpilot048;2022_Jan_19_1237;BackwardMask;2020.2.8;120.44260236807746;
;m;033_o_m_n_a.jpg;neutral;8;27;m;027_o_m_n_a.jpg;neutral;congruent;8;match;;140;170;;18;238;block1_Pilot_2;33;n_n;n_n_weak;;;;;0;0;0;0;0;7;7;7;;;;;;;;;299.3766801999882;None;301.40183009998873;301.6941086000297;301.6941086000297;301.8433183999732;301.8433183999732;301.88426459999755;301.88426459999755;None;None;0;301.88426459999755;None;303.3842963000061;None;['7'];[1.4109503000508994];303.3842963000061;None;;;;;;;;Emoconpilot048;2022_Jan_19_1237;BackwardMask;2020.2.8;120.44260236807746;
;f;040_y_f_h_a.jpg;happy;9;19;f;019_m_f_n_a.jpg;neutral;incongruent;8;match;;120;170;;1;238;block1_Pilot_2;40;h_n;h_n_strong;;;;;0;0;0;0;0;8;8;8;;;;;;;;;306.38602269999683;None;308.38320200005546;308.677003000048;308.677003000048;308.68499410001095;308.68499410001095;308.7259250000352;308.7259250000352;None;None;0;308.7259250000352;None;310.22608789999504;None;['9'];[1.016885400051251];310.22608789999504;None;;;;;;;;Emoconpilot048;2022_Jan_19_1237;BackwardMask;2020.2.8;120.44260236807746;
;m;013_y_m_h_a.jpg;happy;9;12;f;012_o_f_s_a.jpg;sad;incongruent;7;mismatch;;120;160;;3;198;block1_Pilot_2;13;h_s;h_s_weak;;;;;0;0;0;0;0;9;9;9;;;;;;;;;313.22626540006604;None;314.92259259999264;315.2192816999741;315.2192816999741;315.2436426000204;315.2436426000204;315.2845620000735;315.2845620000735;None;9;0;315.2845620000735;None;316.78485419997014;None;['7'];[0.4183959999354556];316.78485419997014;None;1.0145304999314249;;;;;;;Emoconpilot048;2022_Jan_19_1237;BackwardMask;2020.2.8;120.44260236807746;
;m;008_y_m_h_a.jpg;happy;9;4;m;004_o_m_n_a.jpg;neutral;incongruent;8;match;;120;170;;18;150;block1_Pilot_2;8;h_n;h_n_strong;;;;;0;0;0;0;0;10;10;10;;;;;;;;;319.7854171000654;None;321.0500384999905;321.3439391000429;321.3439391000429;321.4938278000336;321.4938278000336;321.53475300001446;321.53475300001446;None;9;0;321.53475300001446;None;323.03468140005134;None;['7'];[0.6405910999746993];323.03468140005134;None;1.076394599978812;;;;;;;Emoconpilot048;2022_Jan_19_1237;BackwardMask;2020.2.8;120.44260236807746;
;f;019_m_f_h_a.jpg;happy;9;27;m;027_o_m_s_a.jpg;sad;incongruent;7;mismatch;;120;160;;1;238;block1_Pilot_2;19;h_s;h_s_weak;;;;;0;0;0;0;0;11;11;11;;;;;;;;;326.0348995999666;None;328.03981420001946;328.3359764000634;328.3359764000634;328.3439333999995;328.3439333999995;328.38482889998704;328.38482889998704;None;None;0;328.38482889998704;None;329.88498390000314;None;['9'];[1.4380476999795064];329.88498390000314;None;;;;;;;;Emoconpilot048;2022_Jan_19_1237;BackwardMask;2020.2.8;120.44260236807746;
;m;016_y_m_s_a.jpg;sad;7;4;m;004_o_m_s_a.jpg;sad;congruent;7;match;;130;160;;18;142;block1_Pilot_2;16;s_s;s_s_strong;;;;;0;0;0;0;0;12;12;12;;;;;;;;;332.88496449997183;None;334.08301689999644;334.37769140000455;334.37769140000455;334.5275778999785;334.5275778999785;334.5684210000327;334.5684210000327;None;7;1;334.5684210000327;None;336.06841179996263;None;['7'];[0.47057040000800043];336.06841179996263;None;1.1387363000540063;;;;;;;Emoconpilot048;2022_Jan_19_1237;BackwardMask;2020.2.8;120.44260236807746;
;f;021_o_f_n_a.jpg;neutral;8;21;f;021_o_f_h_a.jpg;happy;incongruent;9;match;;140;150;;3;171;block1_Pilot_2;21;n_h;n_h_weak;;;;;0;0;0;0;0;13;13;13;;;;;;;;;339.0689855000237;None;340.5333135999972;340.8279739000136;340.8279739000136;340.85252089996357;340.85252089996357;340.8933738999767;340.8933738999767;None;8;0;340.8933738999767;None;342.3943387999898;None;['8'];[1.1048962000058964];342.3943387999898;None;1.3177489000372589;;;;;;;Emoconpilot048;2022_Jan_19_1237;BackwardMask;2020.2.8;120.44260236807746;
;f;012_o_f_h_a.jpg;happy;9;13;m;013_y_m_h_a.jpg;happy;congruent;9;mismatch;;120;150;;3;213;block1_Pilot_2;12;h_h;h_h_weak;;;;;0;0;0;0;0;14;14;14;;;;;;;;;345.3944086000556;None;347.1765022999607;347.46964150003623;347.46964150003623;347.4941538000712;347.4941538000712;347.5351866000565;347.5351866000565;None;9;1;347.5351866000565;None;349.0353114999598;None;['7'];[0.4239607999334112];349.0353114999598;None;1.0759601999307051;;;;;;;Emoconpilot048;2022_Jan_19_1237;BackwardMask;2020.2.8;120.44260236807746;
;f;021_o_f_s_a.jpg;sad;7;27;m;027_o_m_n_a.jpg;neutral;incongruent;8;mismatch;;130;170;;3;174;block1_Pilot_2;21;s_n;s_n_weak;;;;;0;0;0;0;0;15;15;15;;;;;;;;;352.036375900032;None;353.4985474999994;353.79457919998094;353.79457919998094;353.81951910001226;353.81951910001226;353.8602834000485;353.8602834000485;None;9;0;353.8602834000485;None;355.36040570004843;None;['7'];[0.36263869993854314];355.36040570004843;None;0.878906499943696;;;;;;;Emoconpilot048;2022_Jan_19_1237;BackwardMask;2020.2.8;120.44260236807746;
;f;019_m_f_n_a.jpg;neutral;8;19;f;019_m_f_h_a.jpg;happy;incongruent;9;match;;140;150;;3;238;block1_Pilot_2;19;n_h;n_h_weak;;;;;0;0;0;0;0;16;16;16;;;;;;;;;358.3610930000432;None;360.3819214999676;360.6785063999705;360.6785063999705;360.703025600058;360.703025600058;360.74370690004434;360.74370690004434;None;8;0;360.74370690004434;None;362.24375370005146;None;['7'];[0.3034314999822527];362.24375370005146;None;0.7155098000075668;;;;;;;Emoconpilot048;2022_Jan_19_1237;BackwardMask;2020.2.8;120.44260236807746;
;f;028_y_f_n_a.jpg;neutral;8;30;f;030_o_f_s_a.jpg;sad;incongruent;7;match;;140;160;;18;219;block1_Pilot_2;28;n_s;n_s_weak;;;;;0;0;0;0;0;17;17;17;;;;;;;;;365.2440129000461;None;367.0956122999778;367.3872553000692;367.3872553000692;367.5364920999855;367.5364920999855;367.57709509995766;367.57709509995766;None;8;0;367.57709509995766;None;369.0775399999693;None;['7'];[0.3176984000019729];369.0775399999693;None;0.6740487999049947;;;;;;;Emoconpilot048;2022_Jan_19_1237;BackwardMask;2020.2.8;120.44260236807746;
;m;008_y_m_h_a.jpg;happy;9;8;m;008_y_m_s_a.jpg;sad;incongruent;7;match;;120;160;;3;176;block1_Pilot_2;8;h_s;h_s_weak;;;;;0;0;0;0;0;18;18;18;;;;;;;;;372.0773545000702;None;373.5519119000528;373.84498399996664;373.84498399996664;373.8699597000377;373.8699597000377;373.91084230004344;373.91084230004344;None;9;0;373.91084230004344;None;375.41070520004723;None;['7'];[0.616455000010319];375.41070520004723;None;1.036131399916485;;;;;;;Emoconpilot048;2022_Jan_19_1237;BackwardMask;2020.2.8;120.44260236807746;
;f;019_m_f_h_a.jpg;happy;9;33;m;033_o_m_n_a.jpg;neutral;incongruent;8;mismatch;;120;170;;18;136;block1_Pilot_2;19;h_n;h_n_weak;;;;;0;0;0;0;0;19;19;19;;;;;;;;;378.4118628000142;None;379.55227400001604;379.84527300007176;379.84527300007176;379.99523390003014;379.99523390003014;380.03586060006637;380.03586060006637;None;9;0;380.03586060006637;None;381.5360680000158;None;['7'];[0.4270886000012979];381.5360680000158;None;0.9351764000020921;;;;;;;Emoconpilot048;2022_Jan_19_1237;BackwardMask;2020.2.8;120.44260236807746;
;m;013_y_m_n_a.jpg;neutral;8;12;f;012_o_f_s_a.jpg;sad;incongruent;7;mismatch;;140;160;;2;132;block1_Pilot_2;13;n_s;n_s_strong;;;;;0;0;0;0;0;20;20;20;;;;;;;;;384.53669350000564;None;385.66517329995986;385.9537710000295;385.9537710000295;385.9701450000284;385.9701450000284;386.0110330999596;386.0110330999596;None;8;0;386.0110330999596;None;387.5108595000347;None;['8'];[0.308312900015153];387.5108595000347;None;0.8641934000188485;;;;;;;Emoconpilot048;2022_Jan_19_1237;BackwardMask;2020.2.8;120.44260236807746;
;f;040_y_f_s_a.jpg;sad;7;8;m;008_y_m_h_a.jpg;happy;incongruent;9;mismatch;;130;150;;2;175;block1_Pilot_2;40;s_h;s_h_weak;;;;;0;0;0;0;0;21;21;21;;;;;;;;;390.5114150000736;None;391.97711730003357;392.27043330005836;392.27043330005836;392.2869957999792;392.2869957999792;392.3276254000375;392.3276254000375;None;8;0;392.3276254000375;None;393.82780119997915;None;['8'];[0.3432493000291288];393.82780119997915;None;0.9954123999923468;;;;;;;Emoconpilot048;2022_Jan_19_1237;BackwardMask;2020.2.8;120.44260236807746;
;m;004_o_m_h_a.jpg;happy;9;40;f;040_y_f_s_a.jpg;sad;incongruent;7;mismatch;;120;160;;2;193;block1_Pilot_2;4;h_s;h_s_weak;;;;;0;0;0;0;0;22;22;22;;;;;;;;;396.82763000007253;None;398.4744546000147;398.77119350002613;398.77119350002613;398.7868136999896;398.7868136999896;398.82771510002203;398.82771510002203;None;9;0;398.82771510002203;None;400.3279333000537;None;['7'];[0.4109529999550432];400.3279333000537;None;1.023266899981536;;;;;;;Emoconpilot048;2022_Jan_19_1237;BackwardMask;2020.2.8;120.44260236807746;
;f;028_y_f_s_a.jpg;sad;7;13;m;013_y_m_n_a.jpg;neutral;incongruent;8;mismatch;;130;170;;2;126;block1_Pilot_2;28;s_n;s_n_weak;;;;;0;0;0;0;0;23;23;23;;;;;;;;;403.32891260006;None;404.39899600006174;404.6868182000471;404.6868182000471;404.7033492999617;404.7033492999617;404.7446143999696;404.7446143999696;None;None;0;404.7446143999696;None;406.2451493999688;None;['7'];[0.6139721000799909];406.2451493999688;None;;;;;;;;Emoconpilot048;2022_Jan_19_1237;BackwardMask;2020.2.8;120.44260236807746;
;m;004_o_m_h_a.jpg;happy;9;40;f;040_y_f_n_a.jpg;neutral;incongruent;8;mismatch;;120;170;;3;146;block1_Pilot_2;4;h_n;h_n_strong;;;;;0;0;0;0;0;24;24;24;;;;;;;;;409.2452337000286;None;410.5055649999995;410.79616230004467;410.79616230004467;410.82068700005766;410.82068700005766;410.86157399998046;410.86157399998046;None;9;0;410.86157399998046;None;412.3614435000345;None;['7'];[0.521507199970074];412.3614435000345;None;1.221533800009638;;;;;;;Emoconpilot048;2022_Jan_19_1237;BackwardMask;2020.2.8;120.44260236807746;
;m;008_y_m_s_a.jpg;sad;7;30;f;030_o_f_n_a.jpg;neutral;incongruent;8;mismatch;;130;170;;3;132;block1_Pilot_2;8;s_n;s_n_strong;;;;;0;0;0;0;0;25;25;25;;;;;;;;;415.3622547000414;None;416.4867610000074;416.7797678000061;416.7797678000061;416.8039215999888;416.8039215999888;416.84491049998906;416.84491049998906;None;7;0;416.84491049998906;None;418.34506319998764;None;['7'];[0.5701248000841588];418.34506319998764;None;1.3982286000391468;;;;;;;Emoconpilot048;2022_Jan_19_1237;BackwardMask;2020.2.8;120.44260236807746;
;f;040_y_f_n_a.jpg;neutral;8;40;f;040_y_f_s_a.jpg;sad;incongruent;7;match;;140;160;;2;123;block1_Pilot_2;40;n_s;n_s_weak;;;;;0;0;0;0;0;26;26;26;;;;;;;;;421.34510739997495;None;422.3903547000373;422.6797392000444;422.6797392000444;422.6958248000592;422.6958248000592;422.73671450000256;422.73671450000256;None;8;0;422.73671450000256;None;424.23664550005924;None;['8'];[0.39052469993475825];424.23664550005924;None;1.0024689000565559;;;;;;;Emoconpilot048;2022_Jan_19_1237;BackwardMask;2020.2.8;120.44260236807746;
;f;028_y_f_s_a.jpg;sad;7;27;m;027_o_m_s_a.jpg;sad;congruent;7;mismatch;;130;160;;3;159;block1_Pilot_2;28;s_s;s_s_weak;;;;;0;0;0;0;0;27;27;27;;;;;;;;;427.23679370002355;None;428.57310689997394;428.862847100012;428.862847100012;428.88773880002555;428.88773880002555;428.928402599995;428.928402599995;None;8;0;428.928402599995;None;430.4286684000399;None;['7'];[0.9825069999787956];430.4286684000399;None;0.794712100061588;;;;;;;Emoconpilot048;2022_Jan_19_1237;BackwardMask;2020.2.8;120.44260236807746;
;f;012_o_f_s_a.jpg;sad;7;27;m;027_o_m_s_a.jpg;sad;congruent;7;mismatch;;130;160;;18;166;block1_Pilot_2;12;s_s;s_s_weak;;;;;0;0;0;0;0;28;28;28;;;;;;;;;433.42926150001585;None;434.8256832000334;435.1211241000565;435.1211241000565;435.271062899963;435.271062899963;435.31200260005426;435.31200260005426;None;7;1;435.31200260005426;None;436.8119354000082;None;['7'];[0.46326190000399947];436.8119354000082;None;1.0431268999818712;;;;;;;Emoconpilot048;2022_Jan_19_1237;BackwardMask;2020.2.8;120.44260236807746;
;f;028_y_f_n_a.jpg;neutral;8;28;f;028_y_f_h_a.jpg;happy;incongruent;9;match;;140;150;;2;186;block1_Pilot_2;28;n_h;n_h_weak;;;;;0;0;0;0;0;29;29;29;;;;;;;;;439.81331070000306;None;441.4311452000402;441.7217385000549;441.7217385000549;441.737865800038;441.737865800038;441.7787936000386;441.7787936000386;None;8;0;441.7787936000386;None;443.2788952999981;None;['7'];[0.4921035000588745];443.2788952999981;None;0.9684310000156984;;;;;;;Emoconpilot048;2022_Jan_19_1237;BackwardMask;2020.2.8;120.44260236807746;
;m;027_o_m_n_a.jpg;neutral;8;16;m;016_y_m_n_a.jpg;neutral;congruent;8;match;;140;170;;2;188;block1_Pilot_2;27;n_n;n_n_weak;;;;;0;0;0;0;0;30;30;30;;;;;;;;;446.27977999998257;None;447.874693699996;448.1636809000047;448.1636809000047;448.17985610000324;448.17985610000324;448.2205909000477;448.2205909000477;None;None;0;448.2205909000477;None;449.7205961999716;None;"['8', '8']";"[0.04263319994788617, 0.5784965999191627]";449.7205961999716;None;;;;;;;;Emoconpilot048;2022_Jan_19_1237;BackwardMask;2020.2.8;120.44260236807746;
;f;012_o_f_s_a.jpg;sad;7;13;m;013_y_m_n_a.jpg;neutral;incongruent;8;mismatch;;130;170;;3;162;block1_Pilot_2;12;s_n;s_n_strong;;;;;0;0;0;0;0;31;31;31;;;;;;;;;452.7214278000174;None;454.0755702999886;454.3715320000192;454.3715320000192;454.39661230007187;454.39661230007187;454.43735090002883;454.43735090002883;None;8;1;454.43735090002883;None;455.9374242000049;None;['8'];[0.3778324000304565];455.9374242000049;None;0.7336954999482259;;;;;;;Emoconpilot048;2022_Jan_19_1237;BackwardMask;2020.2.8;120.44260236807746;
;f;012_o_f_s_a.jpg;sad;7;16;m;016_y_m_h_a.jpg;happy;incongruent;9;mismatch;;130;150;;1;238;block1_Pilot_2;12;s_h;s_h_strong;;;;;0;0;0;0;0;32;32;32;;;;;;;;;458.9384262000676;None;460.9239614000544;461.22181829996407;461.22181829996407;461.23008050001226;461.23008050001226;461.2707550000632;461.2707550000632;None;None;0;461.2707550000632;None;462.77156160003506;None;['9'];[0.8874312000116333];462.77156160003506;None;;;;;;;;Emoconpilot048;2022_Jan_19_1237;BackwardMask;2020.2.8;120.44260236807746;
;f;028_y_f_n_a.jpg;neutral;8;21;f;021_o_f_n_a.jpg;neutral;congruent;8;match;;140;170;;3;220;block1_Pilot_2;28;n_n;n_n_weak;;;;;0;0;0;0;0;33;33;33;;;;;;;;;465.7718508000253;None;467.6510350999888;467.9472798999632;467.9472798999632;467.9717001999961;467.9717001999961;468.01271569996607;468.01271569996607;None;8;1;468.01271569996607;None;469.5126878999872;None;['7'];[0.2745271000312641];469.5126878999872;None;0.9265289000468329;;;;;;;Emoconpilot048;2022_Jan_19_1237;BackwardMask;2020.2.8;120.44260236807746;
;f;040_y_f_h_a.jpg;happy;9;33;m;033_o_m_s_a.jpg;sad;incongruent;7;mismatch;;120;160;;2;194;block1_Pilot_2;40;h_s;h_s_weak;;;;;0;0;0;0;0;34;34;34;;;;;;;;;472.51341150002554;None;474.13768779998645;474.4303715999704;474.4303715999704;474.446759799961;474.446759799961;474.4875123000238;474.4875123000238;None;9;0;474.4875123000238;None;475.9877731000306;None;['8'];[0.3752512000501156];475.9877731000306;None;1.0754410999361426;;;;;;;Emoconpilot048;2022_Jan_19_1237;BackwardMask;2020.2.8;120.44260236807746;
;f;028_y_f_h_a.jpg;happy;9;8;m;008_y_m_n_a.jpg;neutral;incongruent;8;mismatch;;120;170;;3;162;block1_Pilot_2;28;h_n;h_n_weak;;;;;0;0;0;0;0;35;35;35;;;;;;;;;478.9878861999605;None;480.3538792000618;480.6472402999643;480.6472402999643;480.6720153000206;480.6720153000206;480.712820500019;480.712820500019;None;9;0;480.712820500019;None;482.2128440999659;None;['7'];[0.4302695000078529];482.2128440999659;None;0.9224222999764606;;;;;;;Emoconpilot048;2022_Jan_19_1237;BackwardMask;2020.2.8;120.44260236807746;
;m;013_y_m_n_a.jpg;neutral;8;27;m;027_o_m_n_a.jpg;neutral;congruent;8;match;;140;170;;2;126;block1_Pilot_2;13;n_n;n_n_strong;;;;;0;0;0;0;0;36;36;36;;;;;;;;;485.21325919998344;None;486.33002080000006;486.6226387000643;486.6226387000643;486.638650399982;486.638650399982;486.6796806000639;486.6796806000639;None;9;0;486.6796806000639;None;488.1798466000473;None;['7'];[0.48727359995245934];488.1798466000473;None;1.059513199958019;;;;;;;Emoconpilot048;2022_Jan_19_1237;BackwardMask;2020.2.8;120.44260236807746;
;f;028_y_f_s_a.jpg;sad;7;19;f;019_m_f_n_a.jpg;neutral;incongruent;8;match;;130;170;;2;156;block1_Pilot_2;28;s_n;s_n_strong;;;;;0;0;0;0;0;37;37;37;;;;;;;;;491.18018769996706;None;492.49123759998474;492.78079890005756;492.78079890005756;492.79724039998837;492.79724039998837;492.8382236000616;492.8382236000616;None;9;0;492.8382236000616;None;494.3381463000551;None;['7'];[0.4169882999267429];494.3381463000551;None;0.8290053999517113;;;;;;;Emoconpilot048;2022_Jan_19_1237;BackwardMask;2020.2.8;120.44260236807746;
;m;016_y_m_s_a.jpg;sad;7;19;f;019_m_f_n_a.jpg;neutral;incongruent;8;mismatch;;130;170;;3;138;block1_Pilot_2;16;s_n;s_n_weak;;;;;0;0;0;0;0;38;38;38;;;;;;;;;497.3382907999912;None;498.49648069997784;498.78935760003515;498.78935760003515;498.81410339998547;498.81410339998547;498.8547762000235;498.8547762000235;None;8;1;498.8547762000235;None;500.35501459997613;None;['7'];[0.3760619000531733];500.35501459997613;None;0.9163132000248879;;;;;;;Emoconpilot048;2022_Jan_19_1237;BackwardMask;2020.2.8;120.44260236807746;
;m;033_o_m_s_a.jpg;sad;7;27;m;027_o_m_n_a.jpg;neutral;incongruent;8;match;;130;170;;3;120;block1_Pilot_2;33;s_n;s_n_strong;;;;;0;0;0;0;0;39;39;39;;;;;;;;;503.35577729996294;None;504.3682638000464;504.6642838000553;504.6642838000553;504.68933710001875;504.68933710001875;504.72994860005565;504.72994860005565;None;7;0;504.72994860005565;None;506.229934800067;None;['8'];[0.37308729998767376];506.229934800067;None;1.0331661999225616;;;;;;;Emoconpilot048;2022_Jan_19_1237;BackwardMask;2020.2.8;120.44260236807746;
;f;040_y_f_s_a.jpg;sad;7;33;m;033_o_m_n_a.jpg;neutral;incongruent;8;mismatch;;130;170;;1;238;block1_Pilot_2;40;s_n;s_n_weak;;;;;0;0;0;0;0;40;40;40;;;;;;;;;509.2312365999678;None;511.2213333999971;511.5146436999785;511.5146436999785;511.5226178000448;511.5226178000448;511.5635074999882;511.5635074999882;None;None;0;511.5635074999882;None;513.0638085000683;None;['9'];[0.38711250002961606];513.0638085000683;None;;;;;;;;Emoconpilot048;2022_Jan_19_1237;BackwardMask;2020.2.8;120.44260236807746;
;f;021_o_f_n_a.jpg;neutral;8;19;f;019_m_f_s_a.jpg;sad;incongruent;7;match;;140;160;;1;238;block1_Pilot_2;21;n_s;n_s_strong;;;;;0;0;0;0;0;41;41;41;;;;;;;;;516.0651325000217;None;518.068973800051;518.3650205000304;518.3650205000304;518.3727341999765;518.3727341999765;518.4137085999828;518.4137085999828;None;None;0;518.4137085999828;None;519.9140794000123;None;['9'];[0.3770144999725744];519.9140794000123;None;;;;;;;;Emoconpilot048;2022_Jan_19_1237;BackwardMask;2020.2.8;120.44260236807746;
;m;033_o_m_h_a.jpg;happy;9;27;m;027_o_m_h_a.jpg;happy;congruent;9;match;;120;150;;3;134;block1_Pilot_2;33;h_h;h_h_weak;;;;;0;0;0;0;0;42;42;42;;;;;;;;;522.9137446000241;None;524.0381408999674;524.331435100059;524.331435100059;524.3562546999892;524.3562546999892;524.3971463000635;524.3971463000635;None;9;1;524.3971463000635;None;525.897170900018;None;['7'];[0.32978709996677935];525.897170900018;None;0.9499689999502152;;;;;;;Emoconpilot048;2022_Jan_19_1237;BackwardMask;2020.2.8;120.44260236807746;
;f;040_y_f_s_a.jpg;sad;7;4;m;004_o_m_h_a.jpg;happy;incongruent;9;mismatch;;130;150;;2;225;block1_Pilot_2;40;s_h;s_h_strong;;;;;0;0;0;0;0;43;43;43;;;;;;;;;528.8972827000543;None;530.780490300036;531.0732959000161;531.0732959000161;531.0895100999624;531.0895100999624;531.1304995999672;531.1304995999672;None;None;0;531.1304995999672;None;532.6305695000337;None;['9'];[0.9725688999751583];532.6305695000337;None;;;;;;;;Emoconpilot048;2022_Jan_19_1237;BackwardMask;2020.2.8;120.44260236807746;
;m;027_o_m_s_a.jpg;sad;7;21;f;021_o_f_n_a.jpg;neutral;incongruent;8;mismatch;;130;170;;18;238;block1_Pilot_2;27;s_n;s_n_weak;;;;;0;0;0;0;0;44;44;44;;;;;;;;;535.6317186000524;None;537.629559300025;537.9236881000688;537.9236881000688;538.0731809000717;538.0731809000717;538.1140021999599;538.1140021999599;None;7;0;538.1140021999599;None;539.6140544000082;None;['7'];[0.5809549000114202];539.6140544000082;None;0.7931296000024304;;;;;;;Emoconpilot048;2022_Jan_19_1237;BackwardMask;2020.2.8;120.44260236807746;
;m;016_y_m_h_a.jpg;happy;9;16;m;016_y_m_n_a.jpg;neutral;incongruent;8;match;;120;170;;3;202;block1_Pilot_2;16;h_n;h_n_weak;;;;;0;0;0;0;0;45;45;45;;;;;;;;;542.615067500039;None;544.3124547000043;544.6068780999631;544.6068780999631;544.631659500068;544.631659500068;544.6724265000084;544.6724265000084;None;9;0;544.6724265000084;None;546.1726101000095;None;['7'];[0.4945261999964714];546.1726101000095;None;1.154717899975367;;;;;;;Emoconpilot048;2022_Jan_19_1237;BackwardMask;2020.2.8;120.44260236807746;
;m;033_o_m_h_a.jpg;happy;9;13;m;013_y_m_n_a.jpg;neutral;incongruent;8;match;;120;170;;2;150;block1_Pilot_2;33;h_n;h_n_weak;;;;;0;0;0;0;0;46;46;46;;;;;;;;;549.1733721999917;None;550.430668200017;550.7235603000736;550.7235603000736;550.7402039000299;550.7402039000299;550.7809934000252;550.7809934000252;None;9;0;550.7809934000252;None;552.2811415999895;None;['7'];[0.5539599000476301];552.2811415999895;None;0.8140268999850377;;;;;;;Emoconpilot048;2022_Jan_19_1237;BackwardMask;2020.2.8;120.44260236807746;
;f;012_o_f_n_a.jpg;neutral;8;16;m;016_y_m_n_a.jpg;neutral;congruent;8;mismatch;;140;170;;1;238;block1_Pilot_2;12;n_n;n_n_strong;;;;;0;0;0;0;0;47;47;47;;;;;;;;;555.2818644000217;None;557.2928257000167;557.582694599987;557.582694599987;557.5900503000012;557.5900503000012;557.6311195000308;557.6311195000308;None;8;1;557.6311195000308;None;559.1311772000045;None;['8'];[1.063784099998884];559.1311772000045;None;1.0119307999266312;;;;;;;Emoconpilot048;2022_Jan_19_1237;BackwardMask;2020.2.8;120.44260236807746;
;f;040_y_f_n_a.jpg;neutral;8;30;f;030_o_f_h_a.jpg;happy;incongruent;9;match;;140;150;;2;194;block1_Pilot_2;40;n_h;n_h_strong;;;;;0;0;0;0;0;48;48;48;;;;;;;;;562.1313315000152;None;563.7669603000395;564.0574416000163;564.0574416000163;564.0735831999918;564.0735831999918;564.1146511000115;564.1146511000115;None;8;0;564.1146511000115;None;565.6145031000488;None;['8'];[0.7806561000179499];565.6145031000488;None;1.3285454000579193;;;;;;;Emoconpilot048;2022_Jan_19_1237;BackwardMask;2020.2.8;120.44260236807746;
;m;013_y_m_n_a.jpg;neutral;8;12;f;012_o_f_s_a.jpg;sad;incongruent;7;mismatch;;140;160;;18;238;block1_Pilot_2;13;n_s;n_s_weak;;;;;0;0;0;0;0;49;49;49;;;;;;;;;568.6148334000027;None;570.6167943000328;570.9075603999663;570.9075603999663;571.0571370000253;571.0571370000253;571.0979424000252;571.0979424000252;None;8;0;571.0979424000252;None;572.5981203999836;None;['7'];[0.4209844999713823];572.5981203999836;None;0.9776264999527484;;;;;;;Emoconpilot048;2022_Jan_19_1237;BackwardMask;2020.2.8;120.44260236807746;
;f;012_o_f_h_a.jpg;happy;9;12;f;012_o_f_n_a.jpg;neutral;incongruent;8;match;;120;170;;2;125;block1_Pilot_2;12;h_n;h_n_strong;;;;;0;0;0;0;0;50;50;50;;;;;;;;;575.5990751000354;None;576.6478319000453;576.9407881000079;576.9407881000079;576.957303400035;576.957303400035;576.9982244999846;576.9982244999846;None;None;0;576.9982244999846;None;578.4981252000434;None;"['8', '9']";"[0.1050746999680996, 1.5288784999866039]";578.4981252000434;None;;;;;;;;Emoconpilot048;2022_Jan_19_1237;BackwardMask;2020.2.8;120.44260236807746;
;m;008_y_m_s_a.jpg;sad;7;19;f;019_m_f_s_a.jpg;sad;congruent;7;mismatch;;130;160;;2;202;block1_Pilot_2;8;s_s;s_s_strong;;;;;0;0;0;0;0;51;51;51;;;;;;;;;581.4990444000578;None;583.228808099986;583.5244626000058;583.5244626000058;583.5408615999622;583.5408615999622;583.5816358999582;583.5816358999582;None;8;0;583.5816358999582;None;585.0817050000187;None;['8'];[0.5773880999768153];585.0817050000187;None;1.0454034000867978;;;;;;;Emoconpilot048;2022_Jan_19_1237;BackwardMask;2020.2.8;120.44260236807746;
;f;028_y_f_n_a.jpg;neutral;8;12;f;012_o_f_n_a.jpg;neutral;congruent;8;match;;140;170;;2;214;block1_Pilot_2;28;n_n;n_n_strong;;;;;0;0;0;0;0;52;52;52;;;;;;;;;588.0817319999915;None;589.8848847000627;590.1742571999785;590.1742571999785;590.1905067999614;590.1905067999614;590.2312289000256;590.2312289000256;None;8;1;590.2312289000256;None;591.7315042000264;None;['8'];[1.415417099953629];591.7315042000264;None;0.8357049999758601;;;;;;;Emoconpilot048;2022_Jan_19_1237;BackwardMask;2020.2.8;120.44260236807746;
;m;027_o_m_h_a.jpg;happy;9;19;f;019_m_f_h_a.jpg;happy;congruent;9;mismatch;;120;150;;3;165;block1_Pilot_2;27;h_h;h_h_strong;;;;;0;0;0;0;0;53;53;53;;;;;;;;;594.7316305000568;None;596.1320024000015;596.4246353000635;596.4246353000635;596.4489050999982;596.4489050999982;596.4897161000408;596.4897161000408;None;9;1;596.4897161000408;None;597.9898468999891;None;['7'];[0.621115600108169];597.9898468999891;None;1.2731871999567375;;;;;;;Emoconpilot048;2022_Jan_19_1237;BackwardMask;2020.2.8;120.44260236807746;
;m;008_y_m_s_a.jpg;sad;7;13;m;013_y_m_h_a.jpg;happy;incongruent;9;match;;130;150;;18;200;block1_Pilot_2;8;s_h;s_h_strong;;;;;0;0;0;0;0;54;54;54;;;;;;;;;600.9900606999872;None;602.6766513000475;602.966319900006;602.966319900006;603.1157691000262;603.1157691000262;603.1565527999774;603.1565527999774;None;None;0;603.1565527999774;None;604.6567434000317;None;['9'];[0.9141679999884218];604.6567434000317;None;;;;;;;;Emoconpilot048;2022_Jan_19_1237;BackwardMask;2020.2.8;120.44260236807746;
;f;030_o_f_n_a.jpg;neutral;8;28;f;028_y_f_s_a.jpg;sad;incongruent;7;match;;140;160;;18;238;block1_Pilot_2;30;n_s;n_s_weak;;;;;0;0;0;0;0;55;55;55;;;;;;;;;607.6569826999912;None;609.664474899997;609.9581208999734;609.9581208999734;610.1074751999695;610.1074751999695;610.148307000054;610.148307000054;None;8;0;610.148307000054;None;611.6486118000466;None;['7'];[0.30630000005476177];611.6486118000466;None;0.6305395000381395;;;;;;;Emoconpilot048;2022_Jan_19_1237;BackwardMask;2020.2.8;120.44260236807746;
;f;019_m_f_h_a.jpg;happy;9;27;m;027_o_m_h_a.jpg;happy;congruent;9;mismatch;;120;150;;1;238;block1_Pilot_2;19;h_h;h_h_strong;;;;;0;0;0;0;0;56;56;56;;;;;;;;;614.648816699977;None;616.6407010999974;616.9327855999582;616.9327855999582;616.941086600069;616.941086600069;616.9817895999877;616.9817895999877;None;None;0;616.9817895999877;None;618.4819835000671;None;['9'];[0.7127883000066504];618.4819835000671;None;;;;;;;;Emoconpilot048;2022_Jan_19_1237;BackwardMask;2020.2.8;120.44260236807746;
;m;004_o_m_s_a.jpg;sad;7;4;m;004_o_m_h_a.jpg;happy;incongruent;9;match;;130;150;;18;155;block1_Pilot_2;4;s_h;s_h_weak;;;;;0;0;0;0;0;57;57;57;;;;;;;;;621.4821072999621;None;622.7876323000528;623.0829705999931;623.0829705999931;623.2328186000232;623.2328186000232;623.273699900019;623.273699900019;None;7;0;623.273699900019;None;624.7749851000262;None;['7'];[0.2758697000099346];624.7749851000262;None;0.8731536000268534;;;;;;;Emoconpilot048;2022_Jan_19_1237;BackwardMask;2020.2.8;120.44260236807746;
;f;021_o_f_s_a.jpg;sad;7;27;m;027_o_m_n_a.jpg;neutral;incongruent;8;mismatch;;130;170;;3;224;block1_Pilot_2;21;s_n;s_n_weak;;;;;0;0;0;0;0;58;58;58;;;;;;;;;627.7739722999977;None;629.6464915999677;629.9413587000454;629.9413587000454;629.9662499000551;629.9662499000551;630.0070726000704;630.0070726000704;None;9;0;630.0070726000704;None;631.5073028999614;None;['7'];[0.3595680999569595];631.5073028999614;None;1.0598211999749765;;;;;;;Emoconpilot048;2022_Jan_19_1237;BackwardMask;2020.2.8;120.44260236807746;
;f;021_o_f_h_a.jpg;happy;9;27;m;027_o_m_n_a.jpg;neutral;incongruent;8;mismatch;;120;170;;2;147;block1_Pilot_2;21;h_n;h_n_strong;;;;;0;0;0;0;0;59;59;59;;;;;;;;;634.5074854000704;None;635.7617856999859;636.0507877999917;636.0507877999917;636.0669526000274;636.0669526000274;636.1077804999659;636.1077804999659;None;9;0;636.1077804999659;None;637.6078200000338;None;['7'];[0.39520429994445294];637.6078200000338;None;1.0552388000069186;;;;;;;Emoconpilot048;2022_Jan_19_1237;BackwardMask;2020.2.8;120.44260236807746;
;f;040_y_f_n_a.jpg;neutral;8;13;m;013_y_m_h_a.jpg;happy;incongruent;9;mismatch;;140;150;;3;237;block1_Pilot_2;40;n_h;n_h_strong;;;;;0;0;0;0;0;60;60;60;;;;;;;;;640.6079167000717;None;642.6018630999606;642.892568500014;642.892568500014;642.9168919000076;642.9168919000076;642.957821900025;642.957821900025;None;8;0;642.957821900025;None;644.4586538000731;None;None;;644.4586538000731;None;0.7413198000285774;;;;;;;Emoconpilot048;2022_Jan_19_1237;BackwardMask;2020.2.8;120.44260236807746;
;m;027_o_m_n_a.jpg;neutral;8;19;f;019_m_f_h_a.jpg;happy;incongruent;9;mismatch;;140;150;;3;199;block1_Pilot_2;27;n_h;n_h_strong;;;;;0;0;0;0;0;61;61;61;;;;;;;;;647.4587331999792;None;649.1354456000263;649.4259707999881;649.4259707999881;649.4505071999738;649.4505071999738;649.4914488999639;649.4914488999639;None;8;0;649.4914488999639;None;650.9914588000393;None;['7'];[0.41162679996341467];650.9914588000393;None;0.6955762000288814;;;;;;;Emoconpilot048;2022_Jan_19_1237;BackwardMask;2020.2.8;120.44260236807746;
;m;027_o_m_h_a.jpg;happy;9;21;f;021_o_f_s_a.jpg;sad;incongruent;7;mismatch;;120;160;;2;169;block1_Pilot_2;27;h_s;h_s_strong;;;;;0;0;0;0;0;62;62;62;;;;;;;;;653.9921328000491;None;655.4190868000733;655.7097239000723;655.7097239000723;655.7255319000687;655.7255319000687;655.7663501000497;655.7663501000497;None;None;0;655.7663501000497;None;657.2665538999718;None;['9'];[1.1444834000431001];657.2665538999718;None;;;;;;;;Emoconpilot048;2022_Jan_19_1237;BackwardMask;2020.2.8;120.44260236807746;
;m;013_y_m_n_a.jpg;neutral;8;33;m;033_o_m_h_a.jpg;happy;incongruent;9;match;;140;150;;18;238;block1_Pilot_2;13;n_h;n_h_strong;;;;;0;0;0;0;0;63;63;63;;;;;;;;;660.2672838000581;None;662.2685370000545;662.5594415999949;662.5594415999949;662.7090296000242;662.7090296000242;662.7497794000665;662.7497794000665;None;8;0;662.7497794000665;None;664.2500783000141;None;['7'];[1.8569017000263557];664.2500783000141;None;0.6214156999485567;;;;;;;Emoconpilot048;2022_Jan_19_1237;BackwardMask;2020.2.8;120.44260236807746;
;m;033_o_m_n_a.jpg;neutral;8;30;f;030_o_f_s_a.jpg;sad;incongruent;7;mismatch;;140;160;;1;238;block1_Pilot_2;33;n_s;n_s_weak;;;;;0;0;0;0;0;64;64;64;;;;;;;;;667.2502972000511;None;669.2525271000341;669.5431969000492;669.5431969000492;669.5508027999895;669.5508027999895;669.5918790000724;669.5918790000724;None;None;0;669.5918790000724;None;671.0917826000368;None;"['8', '9']";"[0.02306869998574257, 0.6710890999529511]";671.0917826000368;None;;;;;;;;Emoconpilot048;2022_Jan_19_1237;BackwardMask;2020.2.8;120.44260236807746;
;m;033_o_m_s_a.jpg;sad;7;4;m;004_o_m_s_a.jpg;sad;congruent;7;match;;130;160;;18;146;block1_Pilot_2;33;s_s;s_s_weak;;;;;0;0;0;0;0;65;65;65;;;;;;;;;674.0918242000043;None;675.3169388000388;675.6094338999828;675.6094338999828;675.7592401000438;675.7592401000438;675.8001658000285;675.8001658000285;None;7;1;675.8001658000285;None;677.3002414000221;None;['7'];[0.4788041999563575];677.3002414000221;None;1.0028069999534637;;;;;;;Emoconpilot048;2022_Jan_19_1237;BackwardMask;2020.2.8;120.44260236807746;
;m;016_y_m_s_a.jpg;sad;7;28;f;028_y_f_h_a.jpg;happy;incongruent;9;mismatch;;130;150;;18;238;block1_Pilot_2;16;s_h;s_h_strong;;;;;0;0;0;0;0;66;66;66;;;;;;;;;680.3010287999641;None;682.291657899972;682.5845879999688;682.5845879999688;682.7343571999809;682.7343571999809;682.7753458999796;682.7753458999796;None;7;0;682.7753458999796;None;684.2757424999727;None;['7'];[0.3511646001134068];684.2757424999727;None;0.7795801000902429;;;;;;;Emoconpilot048;2022_Jan_19_1237;BackwardMask;2020.2.8;120.44260236807746;
;f;030_o_f_h_a.jpg;happy;9;28;f;028_y_f_h_a.jpg;happy;congruent;9;match;;120;150;;3;234;block1_Pilot_2;30;h_h;h_h_weak;;;;;0;0;0;0;0;67;67;67;;;;;;;;;687.2773464999627;None;689.2536612000549;689.5434627999784;689.5434627999784;689.5678330999799;689.5678330999799;689.6086938000517;689.6086938000517;None;9;1;689.6086938000517;None;691.1092456000624;None;['7'];[0.4378886999329552];691.1092456000624;None;1.3143608999671414;;;;;;;Emoconpilot048;2022_Jan_19_1237;BackwardMask;2020.2.8;120.44260236807746;
;m;013_y_m_h_a.jpg;happy;9;4;m;004_o_m_h_a.jpg;happy;congruent;9;match;;120;150;;2;141;block1_Pilot_2;13;h_h;h_h_strong;;;;;0;0;0;0;0;68;68;68;;;;;;;;;694.1089172000065;None;695.303245899966;695.5934902000008;695.5934902000008;695.6098137999652;695.6098137999652;695.6505928999977;695.6505928999977;None;9;1;695.6505928999977;None;697.1506559000118;None;['7'];[0.26836690003983676];697.1506559000118;None;0.7525680999970064;;;;;;;Emoconpilot048;2022_Jan_19_1237;BackwardMask;2020.2.8;120.44260236807746;
;f;028_y_f_s_a.jpg;sad;7;8;m;008_y_m_s_a.jpg;sad;congruent;7;mismatch;;130;160;;1;238;block1_Pilot_2;28;s_s;s_s_strong;;;;;0;0;0;0;0;69;69;69;;;;;;;;;700.1514783999883;None;702.1442126999609;702.434927299968;702.434927299968;702.4430627999827;702.4430627999827;702.4839832000434;702.4839832000434;None;None;0;702.4839832000434;None;703.9841816000408;None;['9'];[0.4749154000310227];703.9841816000408;None;;;;;;;;Emoconpilot048;2022_Jan_19_1237;BackwardMask;2020.2.8;120.44260236807746;
;f;028_y_f_s_a.jpg;sad;7;30;f;030_o_f_h_a.jpg;happy;incongruent;9;match;;130;150;;2;199;block1_Pilot_2;28;s_h;s_h_weak;;;;;0;0;0;0;0;70;70;70;;;;;;;;;706.9850034000119;None;708.6527487999992;708.9434293999802;708.9434293999802;708.9599408999784;708.9599408999784;709.0009847000474;709.0009847000474;None;None;0;709.0009847000474;None;710.5006241999799;None;['9'];[0.4384299000957981];710.5006241999799;None;;;;;;;;Emoconpilot048;2022_Jan_19_1237;BackwardMask;2020.2.8;120.44260236807746;
;m;008_y_m_h_a.jpg;happy;9;21;f;021_o_f_n_a.jpg;neutral;incongruent;8;mismatch;;120;170;;2;137;block1_Pilot_2;8;h_n;h_n_weak;;;;;0;0;0;0;0;71;71;71;;;;;;;;;713.5011699000606;None;714.6507003000006;714.9435395000037;714.9435395000037;714.9598488999764;714.9598488999764;715.0009441999719;715.0009441999719;None;9;0;715.0009441999719;None;716.5017435000045;None;['7'];[0.301113500026986];716.5017435000045;None;0.9141469000605866;;;;;;;Emoconpilot048;2022_Jan_19_1237;BackwardMask;2020.2.8;120.44260236807746;
;f;012_o_f_n_a.jpg;neutral;8;8;m;008_y_m_s_a.jpg;sad;incongruent;7;mismatch;;140;160;;2;208;block1_Pilot_2;12;n_s;n_s_weak;;;;;0;0;0;0;0;72;72;72;;;;;;;;;719.5018861000426;None;721.2552194000455;721.544211099972;721.544211099972;721.5602643999737;721.5602643999737;721.6011039000005;721.6011039000005;None;9;0;721.6011039000005;None;723.1011749999598;None;['8'];[0.5259009000146762];723.1011749999598;None;1.241957199992612;;;;;;;Emoconpilot048;2022_Jan_19_1237;BackwardMask;2020.2.8;120.44260236807746;
;m;016_y_m_n_a.jpg;neutral;8;8;m;008_y_m_n_a.jpg;neutral;congruent;8;match;;140;170;;3;211;block1_Pilot_2;16;n_n;n_n_strong;;;;;0;0;0;0;0;73;73;73;;;;;;;;;726.101222999976;None;727.8867388999788;728.1775397000602;728.1775397000602;728.2020082999952;728.2020082999952;728.2429053999949;728.2429053999949;None;8;1;728.2429053999949;None;729.7427635999629;None;['7'];[0.300115599995479];729.7427635999629;None;0.6879676000680774;;;;;;;Emoconpilot048;2022_Jan_19_1237;BackwardMask;2020.2.8;120.44260236807746;
;m;016_y_m_h_a.jpg;happy;9;13;m;013_y_m_s_a.jpg;sad;incongruent;7;match;;120;160;;3;138;block1_Pilot_2;16;h_s;h_s_weak;;;;;0;0;0;0;0;74;74;74;;;;;;;;;732.743757899967;None;733.9007290999871;734.1939171999693;734.1939171999693;734.2187395000365;734.2187395000365;734.259608500055;734.259608500055;None;9;0;734.259608500055;None;735.7606438000221;None;['7'];[0.3541662000352517];735.7606438000221;None;0.9834062999580055;;;;;;;Emoconpilot048;2022_Jan_19_1237;BackwardMask;2020.2.8;120.44260236807746;
;m;016_y_m_n_a.jpg;neutral;8;19;f;019_m_f_s_a.jpg;sad;incongruent;7;mismatch;;140;160;;2;185;block1_Pilot_2;16;n_s;n_s_strong;;;;;0;0;0;0;0;75;75;75;;;;;;;;;738.760551400017;None;740.3213640999747;740.6111276999582;740.6111276999582;740.6271076999838;740.6271076999838;740.6681128999917;740.6681128999917;None;None;0;740.6681128999917;None;742.1682855000254;None;['9'];[1.0827530999667943];742.1682855000254;None;;;;;;;;Emoconpilot048;2022_Jan_19_1237;BackwardMask;2020.2.8;120.44260236807746;
;m;027_o_m_s_a.jpg;sad;7;8;m;008_y_m_s_a.jpg;sad;congruent;7;match;;130;160;;1;238;block1_Pilot_2;27;s_s;s_s_strong;;;;;0;0;0;0;0;76;76;76;;;;;;;;;745.1692103999667;None;747.1589474000502;747.4526000999613;747.4526000999613;747.4607162000611;747.4607162000611;747.5016468999675;747.5016468999675;None;None;0;747.5016468999675;None;749.0014922000701;None;['9'];[0.3374856999143958];749.0014922000701;None;;;;;;;;Emoconpilot048;2022_Jan_19_1237;BackwardMask;2020.2.8;120.44260236807746;
;f;019_m_f_n_a.jpg;neutral;8;27;m;027_o_m_n_a.jpg;neutral;congruent;8;mismatch;;140;170;;3;186;block1_Pilot_2;19;n_n;n_n_strong;;;;;0;0;0;0;0;77;77;77;;;;;;;;;752.0018446999602;None;753.5713227000087;753.861426700023;753.861426700023;753.885842800024;753.885842800024;753.9265504999785;753.9265504999785;None;8;1;753.9265504999785;None;755.4266545000719;None;None;;755.4266545000719;None;0.7805438000941649;;;;;;;Emoconpilot048;2022_Jan_19_1237;BackwardMask;2020.2.8;120.44260236807746;
;m;004_o_m_s_a.jpg;sad;7;12;f;012_o_f_s_a.jpg;sad;congruent;7;mismatch;;130;160;;1;238;block1_Pilot_2;4;s_s;s_s_strong;;;;;0;0;0;0;0;78;78;78;;;;;;;;;758.4268165000249;None;760.4190958000254;760.7112002000213;760.7112002000213;760.7192080999957;760.7192080999957;760.7606158000417;760.7606158000417;None;None;0;760.7606158000417;None;762.2609302999917;None;['9'];[0.3659979000221938];762.2609302999917;None;;;;;;;;Emoconpilot048;2022_Jan_19_1237;BackwardMask;2020.2.8;120.44260236807746;
;f;019_m_f_n_a.jpg;neutral;8;13;m;013_y_m_s_a.jpg;sad;incongruent;7;mismatch;;140;160;;3;207;block1_Pilot_2;19;n_s;n_s_strong;;;;;0;0;0;0;0;79;79;79;;;;;;;;;765.2611508000409;None;767.0067448000191;767.3033172000432;767.3033172000432;767.3278344999999;767.3278344999999;767.3687922999961;767.3687922999961;None;8;0;767.3687922999961;None;768.8688048999757;None;['7'];[0.390217800042592];768.8688048999757;None;0.7942156000062823;;;;;;;Emoconpilot048;2022_Jan_19_1237;BackwardMask;2020.2.8;120.44260236807746;
;m;027_o_m_h_a.jpg;happy;9;33;m;033_o_m_h_a.jpg;happy;congruent;9;match;;120;150;;1;238;block1_Pilot_2;27;h_h;h_h_strong;;;;;0;0;0;0;0;80;80;80;;;;;;;;;771.8700032000197;None;773.8716640999774;774.162039799965;774.162039799965;774.1695294000674;774.1695294000674;774.2103690999793;774.2103690999793;None;None;0;774.2103690999793;None;775.7104541000444;None;['9'];[0.7884570999303833];775.7104541000444;None;;;;;;;;Emoconpilot048;2022_Jan_19_1237;BackwardMask;2020.2.8;120.44260236807746;
;m;027_o_m_h_a.jpg;happy;9;21;f;021_o_f_s_a.jpg;sad;incongruent;7;mismatch;;120;160;;1;238;block1_Pilot_2;27;h_s;h_s_weak;;;;;0;0;0;0;0;81;81;81;;;;;;;;;778.7112962000538;None;780.713047600002;781.0037068000529;781.0037068000529;781.01120790001;781.01120790001;781.0522462000372;781.0522462000372;None;None;0;781.0522462000372;None;782.5525636000093;None;['9'];[0.6104930000146851];782.5525636000093;None;;;;;;;;Emoconpilot048;2022_Jan_19_1237;BackwardMask;2020.2.8;120.44260236807746;
;m;033_o_m_s_a.jpg;sad;7;40;f;040_y_f_n_a.jpg;neutral;incongruent;8;mismatch;;130;170;;3;146;block1_Pilot_2;33;s_n;s_n_weak;;;;;0;0;0;0;0;82;82;82;;;;;;;;;785.5529338000342;None;786.7772121999878;787.0701393999625;787.0701393999625;787.0948131000623;787.0948131000623;787.1355973000173;787.1355973000173;None;8;1;787.1355973000173;None;788.6357466999907;None;['7'];[0.6472923000110313];788.6357466999907;None;1.0033071000361815;;;;;;;Emoconpilot048;2022_Jan_19_1237;BackwardMask;2020.2.8;120.44260236807746;
;m;008_y_m_h_a.jpg;happy;9;4;m;004_o_m_s_a.jpg;sad;incongruent;7;match;;120;160;;2;225;block1_Pilot_2;8;h_s;h_s_weak;;;;;0;0;0;0;0;83;83;83;;;;;;;;;791.6366988000227;None;793.5190589000704;793.8117259000428;793.8117259000428;793.8283111000201;793.8283111000201;793.8691252999706;793.8691252999706;None;9;0;793.8691252999706;None;795.3692740000552;None;['7'];[0.5857462999410927];795.3692740000552;None;0.9419676000252366;;;;;;;Emoconpilot048;2022_Jan_19_1237;BackwardMask;2020.2.8;120.44260236807746;
;f;012_o_f_n_a.jpg;neutral;8;4;m;004_o_m_s_a.jpg;sad;incongruent;7;mismatch;;140;160;;3;150;block1_Pilot_2;12;n_s;n_s_strong;;;;;0;0;0;0;0;84;84;84;;;;;;;;;798.3694512000075;None;799.6414035999915;799.9373286999762;799.9373286999762;799.9618131000316;799.9618131000316;800.002635300043;800.002635300043;None;8;0;800.002635300043;None;801.5030063999584;None;['7'];[0.340043899952434];801.5030063999584;None;0.6881514999549836;;;;;;;Emoconpilot048;2022_Jan_19_1237;BackwardMask;2020.2.8;120.44260236807746;
;f;021_o_f_s_a.jpg;sad;7;40;f;040_y_f_n_a.jpg;neutral;incongruent;8;match;;130;170;;2;156;block1_Pilot_2;21;s_n;s_n_strong;;;;;0;0;0;0;0;85;85;85;;;;;;;;;804.5027678000042;None;805.8089579000371;806.1038549999939;806.1038549999939;806.120228099986;806.120228099986;806.161134700058;806.161134700058;None;None;0;806.161134700058;None;807.6612288999604;None;['9'];[0.6215450000017881];807.6612288999604;None;;;;;;;;Emoconpilot048;2022_Jan_19_1237;BackwardMask;2020.2.8;120.44260236807746;
;m;004_o_m_n_a.jpg;neutral;8;13;m;013_y_m_n_a.jpg;neutral;congruent;8;match;;140;170;;2;225;block1_Pilot_2;4;n_n;n_n_strong;;;;;0;0;0;0;0;86;86;86;;;;;;;;;810.6613750000251;None;812.5694474000484;812.8627770000603;812.8627770000603;812.8786760000512;812.8786760000512;812.9194650000427;812.9194650000427;None;8;1;812.9194650000427;None;814.4197673000162;None;['8'];[0.2552156000165269];814.4197673000162;None;0.8593925000168383;;;;;;;Emoconpilot048;2022_Jan_19_1237;BackwardMask;2020.2.8;120.44260236807746;
;m;016_y_m_n_a.jpg;neutral;8;16;m;016_y_m_h_a.jpg;happy;incongruent;9;match;;140;150;;18;193;block1_Pilot_2;16;n_h;n_h_strong;;;;;0;0;0;0;0;87;87;87;;;;;;;;;817.420855000033;None;819.0472983999643;819.3376766999718;819.3376766999718;819.4871646000538;819.4871646000538;819.5281119999709;819.5281119999709;None;8;0;819.5281119999709;None;821.0281998000573;None;['7'];[0.39079540001694113];821.0281998000573;None;0.6029747000429779;;;;;;;Emoconpilot048;2022_Jan_19_1237;BackwardMask;2020.2.8;120.44260236807746;
;m;033_o_m_h_a.jpg;happy;9;4;m;004_o_m_h_a.jpg;happy;congruent;9;match;;120;150;;2;195;block1_Pilot_2;33;h_h;h_h_strong;;;;;0;0;0;0;0;88;88;88;;;;;;;;;824.0287272999994;None;825.6611818000674;825.9540099999867;825.9540099999867;825.970557600027;825.970557600027;826.0115694999695;826.0115694999695;None;9;1;826.0115694999695;None;827.5117222999688;None;['7'];[0.3393064000410959];827.5117222999688;None;1.0952232000418007;;;;;;;Emoconpilot048;2022_Jan_19_1237;BackwardMask;2020.2.8;120.44260236807746;
;m;027_o_m_h_a.jpg;happy;9;16;m;016_y_m_h_a.jpg;happy;congruent;9;match;;120;150;;3;209;block1_Pilot_2;27;h_h;h_h_weak;;;;;0;0;0;0;0;89;89;89;;;;;;;;;830.5121498999652;None;832.2892129999818;832.5797613000032;832.5797613000032;832.6040615000529;832.6040615000529;832.6449233000167;832.6449233000167;None;9;1;832.6449233000167;None;834.1451253000414;None;['7'];[0.43373279995284975];834.1451253000414;None;1.037817299948074;;;;;;;Emoconpilot048;2022_Jan_19_1237;BackwardMask;2020.2.8;120.44260236807746;
;m;033_o_m_s_a.jpg;sad;7;16;m;016_y_m_s_a.jpg;sad;congruent;7;match;;130;160;;3;128;block1_Pilot_2;33;s_s;s_s_strong;;;;;0;0;0;0;0;90;90;90;;;;;;;;;837.1465082999784;None;838.2197120999917;838.5126877999865;838.5126877999865;838.5375703000464;838.5375703000464;838.5784302999964;838.5784302999964;None;8;0;838.5784302999964;None;840.0783236999996;None;['7'];[0.3887008000165224];840.0783236999996;None;0.760592499980703;;;;;;;Emoconpilot048;2022_Jan_19_1237;BackwardMask;2020.2.8;120.44260236807746;
;f;021_o_f_s_a.jpg;sad;7;30;f;030_o_f_s_a.jpg;sad;congruent;7;match;;130;160;;1;238;block1_Pilot_2;21;s_s;s_s_strong;;;;;0;0;0;0;0;91;91;91;;;;;;;;;843.0793742999667;None;845.0684185000136;845.3629196999827;845.3629196999827;845.370883799973;845.370883799973;845.4120285999961;845.4120285999961;None;None;0;845.4120285999961;None;846.9119842000073;None;['9'];[0.5469917000737041];846.9119842000073;None;;;;;;;;Emoconpilot048;2022_Jan_19_1237;BackwardMask;2020.2.8;120.44260236807746;
;m;033_o_m_n_a.jpg;neutral;8;28;f;028_y_f_s_a.jpg;sad;incongruent;7;mismatch;;140;160;;18;166;block1_Pilot_2;33;n_s;n_s_strong;;;;;0;0;0;0;0;92;92;92;;;;;;;;;849.9120993000688;None;851.3212115999777;851.6134704999859;851.6134704999859;851.7628817000659;851.7628817000659;851.8037579000229;851.8037579000229;None;8;0;851.8037579000229;None;853.3038202000316;None;['7'];[0.531210699933581];853.3038202000316;None;0.6471872000256553;;;;;;;Emoconpilot048;2022_Jan_19_1237;BackwardMask;2020.2.8;120.44260236807746;
;f;019_m_f_n_a.jpg;neutral;8;30;f;030_o_f_n_a.jpg;neutral;congruent;8;match;;140;170;;18;228;block1_Pilot_2;19;n_n;n_n_weak;;;;;0;0;0;0;0;93;93;93;;;;;;;;;856.3045134000713;None;858.2223464000272;858.5134416000219;858.5134416000219;858.6629991000518;858.6629991000518;858.7038119999925;858.7038119999925;None;8;1;858.7038119999925;None;860.2046311000595;None;['7'];[0.4701539999805391];860.2046311000595;None;0.6991799999959767;;;;;;;Emoconpilot048;2022_Jan_19_1237;BackwardMask;2020.2.8;120.44260236807746;
;m;008_y_m_s_a.jpg;sad;7;12;f;012_o_f_h_a.jpg;happy;incongruent;9;mismatch;;130;150;;3;130;block1_Pilot_2;8;s_h;s_h_weak;;;;;0;0;0;0;0;94;94;94;;;;;;;;;863.2045784000074;None;864.306783100008;864.5970670999959;864.5970670999959;864.6214117000345;864.6214117000345;864.662104899995;864.662104899995;None;8;0;864.662104899995;None;866.1624046000652;None;['7'];[0.4565195000031963];866.1624046000652;None;1.0689099000301212;;;;;;;Emoconpilot048;2022_Jan_19_1237;BackwardMask;2020.2.8;120.44260236807746;
;m;016_y_m_n_a.jpg;neutral;8;28;f;028_y_f_n_a.jpg;neutral;congruent;8;mismatch;;140;170;;18;189;block1_Pilot_2;16;n_n;n_n_strong;;;;;0;0;0;0;0;95;95;95;;;;;;;;;869.1625238000415;None;870.7614018999739;871.0554039999843;871.0554039999843;871.2048589000478;871.2048589000478;871.2458165000426;871.2458165000426;None;8;1;871.2458165000426;None;872.7456598000135;None;['7'];[0.46524339995812625];872.7456598000135;None;1.1331073999172077;;;;;;;Emoconpilot048;2022_Jan_19_1237;BackwardMask;2020.2.8;120.44260236807746;
;f;012_o_f_s_a.jpg;sad;7;16;m;016_y_m_h_a.jpg;happy;incongruent;9;mismatch;;130;150;;3;238;block1_Pilot_2;12;s_h;s_h_strong;;;;;0;0;0;0;0;96;96;96;;;;;;;;;875.7473098000046;None;877.7332156000193;878.0300728000002;878.0300728000002;878.0550386999967;878.0550386999967;878.0957750000525;878.0957750000525;None;None;0;878.0957750000525;None;879.5960126999998;None;['9'];[0.9990366999991238];879.5960126999998;None;;;;;;;;Emoconpilot048;2022_Jan_19_1237;BackwardMask;2020.2.8;120.44260236807746;
;m;013_y_m_h_a.jpg;happy;9;27;m;027_o_m_h_a.jpg;happy;congruent;9;match;;120;150;;18;238;block1_Pilot_2;13;h_h;h_h_strong;;;;;0;0;0;0;0;97;97;97;;;;;;;;;882.597276299959;None;884.5996540000197;884.8890552000375;884.8890552000375;885.0385315000312;885.0385315000312;885.0793542000465;885.0793542000465;None;9;1;885.0793542000465;None;886.5794747000327;None;['7'];[0.34351349994540215];886.5794747000327;None;0.7236858999822289;;;;;;;Emoconpilot048;2022_Jan_19_1237;BackwardMask;2020.2.8;120.44260236807746;
;m;016_y_m_s_a.jpg;sad;7;33;m;033_o_m_n_a.jpg;neutral;incongruent;8;match;;130;170;;1;238;block1_Pilot_2;16;s_n;s_n_weak;;;;;0;0;0;0;0;98;98;98;;;;;;;;;889.5796229999978;None;891.5707112000091;891.8637499000179;891.8637499000179;891.8719542999752;891.8719542999752;891.9128424000228;891.9128424000228;None;None;0;891.9128424000228;None;893.412771500065;None;['9'];[0.3901771999662742];893.412771500065;None;;;;;;;;Emoconpilot048;2022_Jan_19_1237;BackwardMask;2020.2.8;120.44260236807746;
;m;008_y_m_n_a.jpg;neutral;8;30;f;030_o_f_n_a.jpg;neutral;congruent;8;mismatch;;140;170;;1;238;block1_Pilot_2;8;n_n;n_n_weak;;;;;0;0;0;0;0;99;99;99;;;;;;;;;896.4128412000136;None;898.4314418999711;898.7226131999632;898.7226131999632;898.7303743000375;898.7303743000375;898.7714046000037;898.7714046000037;None;None;0;898.7714046000037;None;900.2712977000047;None;['9'];[0.3555198999820277];900.2712977000047;None;;;;;;;;Emoconpilot048;2022_Jan_19_1237;BackwardMask;2020.2.8;120.44260236807746;
;m;008_y_m_s_a.jpg;sad;7;30;f;030_o_f_s_a.jpg;sad;congruent;7;mismatch;;130;160;;2;133;block1_Pilot_2;8;s_s;s_s_weak;;;;;0;0;0;0;0;100;100;100;;;;;;;;;903.2718253000639;None;904.3992357000243;904.6897243000567;904.6897243000567;904.7055126000196;904.7055126000196;904.7463478000136;904.7463478000136;None;None;0;904.7463478000136;None;906.2461343000177;None;['8'];[0.10066590004134923];906.2461343000177;None;;;;;;;;Emoconpilot048;2022_Jan_19_1237;BackwardMask;2020.2.8;120.44260236807746;
;f;040_y_f_n_a.jpg;neutral;8;30;f;030_o_f_s_a.jpg;sad;incongruent;7;match;;140;160;;3;197;block1_Pilot_2;40;n_s;n_s_strong;;;;;0;0;0;0;0;101;101;101;;;;;;;;;909.2481095000403;None;910.9084481999744;911.1979629000416;911.1979629000416;911.2222276000539;911.2222276000539;911.2631536000408;911.2631536000408;None;8;0;911.2631536000408;None;912.7641148000257;None;['8'];[0.9509655999718234];912.7641148000257;None;0.931815900024958;;;;;;;Emoconpilot048;2022_Jan_19_1237;BackwardMask;2020.2.8;120.44260236807746;
;m;004_o_m_h_a.jpg;happy;9;30;f;030_o_f_s_a.jpg;sad;incongruent;7;mismatch;;120;160;;3;121;block1_Pilot_2;4;h_s;h_s_strong;;;;;0;0;0;0;0;102;102;102;;;;;;;;;915.7641070999671;None;916.7906715000281;917.0814649000531;917.0814649000531;917.1059068000177;917.1059068000177;917.1466879000654;917.1466879000654;None;9;0;917.1466879000654;None;918.6466742999619;None;['7'];[0.28417950007133186];918.6466742999619;None;0.7122581999283284;;;;;;;Emoconpilot048;2022_Jan_19_1237;BackwardMask;2020.2.8;120.44260236807746;
;f;040_y_f_h_a.jpg;happy;9;8;m;008_y_m_h_a.jpg;happy;congruent;9;mismatch;;120;150;;18;211;block1_Pilot_2;40;h_h;h_h_weak;;;;;0;0;0;0;0;103;103;103;;;;;;;;;921.6467803000705;None;923.4133612000151;923.7061151000671;923.7061151000671;923.8560220999643;923.8560220999643;923.8968775999965;923.8968775999965;None;9;1;923.8968775999965;None;925.39705889998;None;['7'];[0.3978261000011116];925.39705889998;None;0.714129599975422;;;;;;;Emoconpilot048;2022_Jan_19_1237;BackwardMask;2020.2.8;120.44260236807746;
;f;019_m_f_s_a.jpg;sad;7;16;m;016_y_m_n_a.jpg;neutral;incongruent;8;mismatch;;130;170;;2;198;block1_Pilot_2;19;s_n;s_n_strong;;;;;0;0;0;0;0;104;104;104;;;;;;;;;928.3971554000163;None;930.0751780000282;930.3650253000669;930.3650253000669;930.3811278999783;930.3811278999783;930.4223110000603;930.4223110000603;None;None;0;930.4223110000603;None;931.9222292000195;None;['9'];[0.9608306000009179];931.9222292000195;None;;;;;;;;Emoconpilot048;2022_Jan_19_1237;BackwardMask;2020.2.8;120.44260236807746;
;f;040_y_f_s_a.jpg;sad;7;12;f;012_o_f_s_a.jpg;sad;congruent;7;match;;130;160;;18;240;block1_Pilot_2;40;s_s;s_s_strong;;;;;0;0;0;0;0;105;105;105;;;;;;;;;934.9233799000503;None;936.9302075000014;937.223068100051;937.223068100051;937.3729391000234;937.3729391000234;937.4136574000586;937.4136574000586;None;7;1;937.4136574000586;None;938.9137479000492;None;['7'];[0.9691264999564737];938.9137479000492;None;0.9171532000182196;;;;;;;Emoconpilot048;2022_Jan_19_1237;BackwardMask;2020.2.8;120.44260236807746;
;f;040_y_f_n_a.jpg;neutral;8;33;m;033_o_m_s_a.jpg;sad;incongruent;7;mismatch;;140;160;;3;188;block1_Pilot_2;40;n_s;n_s_weak;;;;;0;0;0;0;0;106;106;106;;;;;;;;;941.9139743000269;None;943.5221202999819;943.8153674000641;943.8153674000641;943.839611500036;943.839611500036;943.8804333000444;943.8804333000444;None;8;0;943.8804333000444;None;945.3805594000733;None;['7'];[0.41438380000181496];945.3805594000733;None;0.7784269999247044;;;;;;;Emoconpilot048;2022_Jan_19_1237;BackwardMask;2020.2.8;120.44260236807746;
;f;028_y_f_h_a.jpg;happy;9;21;f;021_o_f_s_a.jpg;sad;incongruent;7;match;;120;160;;3;193;block1_Pilot_2;28;h_s;h_s_strong;;;;;0;0;0;0;0;107;107;107;;;;;;;;;948.3815716999816;None;949.999116800027;950.289951600018;950.289951600018;950.3147933;950.3147933;950.3556488000322;950.3556488000322;None;9;0;950.3556488000322;None;951.8555800999748;None;['7'];[0.3074311000527814];951.8555800999748;None;0.7592862999299541;;;;;;;Emoconpilot048;2022_Jan_19_1237;BackwardMask;2020.2.8;120.44260236807746;
;f;040_y_f_s_a.jpg;sad;7;13;m;013_y_m_n_a.jpg;neutral;incongruent;8;mismatch;;130;170;;2;198;block1_Pilot_2;40;s_n;s_n_strong;;;;;0;0;0;0;0;108;108;108;;;;;;;;;954.8566988999955;None;956.5136313000694;956.806878500036;956.806878500036;956.8232276999624;956.8232276999624;956.864197100047;956.864197100047;None;9;0;956.864197100047;None;958.3641504000407;None;['8'];[0.42278599995188415];958.3641504000407;None;1.3228082999121398;;;;;;;Emoconpilot048;2022_Jan_19_1237;BackwardMask;2020.2.8;120.44260236807746;
;f;030_o_f_n_a.jpg;neutral;8;33;m;033_o_m_s_a.jpg;sad;incongruent;7;mismatch;;140;160;;1;238;block1_Pilot_2;30;n_s;n_s_strong;;;;;0;0;0;0;0;109;109;109;;;;;;;;;961.3657497999957;None;963.3781830000225;963.6739651999669;963.6739651999669;963.6815554000204;963.6815554000204;963.7227232999867;963.7227232999867;None;None;0;963.7227232999867;None;965.2225257999962;None;['9'];[0.3882525999797508];965.2225257999962;None;;;;;;;;Emoconpilot048;2022_Jan_19_1237;BackwardMask;2020.2.8;120.44260236807746;
;f;021_o_f_h_a.jpg;happy;9;40;f;040_y_f_n_a.jpg;neutral;incongruent;8;match;;120;170;;2;125;block1_Pilot_2;21;h_n;h_n_weak;;;;;0;0;0;0;0;110;110;110;;;;;;;;;968.2232938000234;None;969.2846379000694;969.5742228999734;969.5742228999734;969.5901492000557;969.5901492000557;969.6309848000528;969.6309848000528;None;9;0;969.6309848000528;None;971.1310531999916;None;['8'];[0.6717141000553966];971.1310531999916;None;0.899939899914898;;;;;;;Emoconpilot048;2022_Jan_19_1237;BackwardMask;2020.2.8;120.44260236807746;
;f;021_o_f_h_a.jpg;happy;9;16;m;016_y_m_s_a.jpg;sad;incongruent;7;mismatch;;120;160;;1;238;block1_Pilot_2;21;h_s;h_s_strong;;;;;0;0;0;0;0;111;111;111;;;;;;;;;974.1320101000601;None;976.1338334999746;976.4245015999768;976.4245015999768;976.4319932999788;976.4319932999788;976.4728592999745;976.4728592999745;None;None;0;976.4728592999745;None;977.9727859999985;None;['9'];[0.35020960005931556];977.9727859999985;None;;;;;;;;Emoconpilot048;2022_Jan_19_1237;BackwardMask;2020.2.8;120.44260236807746;
;f;012_o_f_h_a.jpg;happy;9;8;m;008_y_m_s_a.jpg;sad;incongruent;7;mismatch;;120;160;;1;238;block1_Pilot_2;12;h_s;h_s_weak;;;;;0;0;0;0;0;112;112;112;;;;;;;;;980.9730343000265;None;982.9640061999671;983.2571559000062;983.2571559000062;983.265624599997;983.265624599997;983.3063530999934;983.3063530999934;None;None;0;983.3063530999934;None;984.8063298000488;None;['9'];[0.2766799000091851];984.8063298000488;None;;;;;;;;Emoconpilot048;2022_Jan_19_1237;BackwardMask;2020.2.8;120.44260236807746;
;m;013_y_m_h_a.jpg;happy;9;16;m;016_y_m_s_a.jpg;sad;incongruent;7;match;;120;160;;3;202;block1_Pilot_2;13;h_s;h_s_weak;;;;;0;0;0;0;0;113;113;113;;;;;;;;;987.8071506000124;None;989.5106947000604;989.7994770000223;989.7994770000223;989.8239250000333;989.8239250000333;989.8648467999883;989.8648467999883;None;9;0;989.8648467999883;None;991.3658551999833;None;['7'];[0.3811156000010669];991.3658551999833;None;1.0019816000713035;;;;;;;Emoconpilot048;2022_Jan_19_1237;BackwardMask;2020.2.8;120.44260236807746;
;f;019_m_f_s_a.jpg;sad;7;4;m;004_o_m_n_a.jpg;neutral;incongruent;8;mismatch;;130;170;;1;238;block1_Pilot_2;19;s_n;s_n_strong;;;;;0;0;0;0;0;114;114;114;;;;;;;;;994.3660334000597;None;996.3672203000169;996.6581158000045;996.6581158000045;996.6656658999855;996.6656658999855;996.7066492000595;996.7066492000595;None;None;0;996.7066492000595;None;998.2067273000721;None;['9'];[0.4202010999433696];998.2067273000721;None;;;;;;;;Emoconpilot048;2022_Jan_19_1237;BackwardMask;2020.2.8;120.44260236807746;
;f;028_y_f_n_a.jpg;neutral;8;27;m;027_o_m_s_a.jpg;sad;incongruent;7;mismatch;;140;160;;18;238;block1_Pilot_2;28;n_s;n_s_strong;;;;;0;0;0;0;0;115;115;115;;;;;;;;;1001.2077572999988;None;1003.2093410000671;1003.4997335000662;1003.4997335000662;1003.6493304000469;1003.6493304000469;1003.690106300055;1003.690106300055;None;8;0;1003.690106300055;None;1005.1899835000513;None;['7'];[0.6048112999415025];1005.1899835000513;None;1.2166280000237748;;;;;;;Emoconpilot048;2022_Jan_19_1237;BackwardMask;2020.2.8;120.44260236807746;
;m;013_y_m_s_a.jpg;sad;7;12;f;012_o_f_h_a.jpg;happy;incongruent;9;mismatch;;130;150;;1;238;block1_Pilot_2;13;s_h;s_h_strong;;;;;0;0;0;0;0;116;116;116;;;;;;;;;1008.1912096999586;None;1010.1821899999632;1010.4746996000176;1010.4746996000176;1010.4826867000666;1010.4826867000666;1010.5234258000273;1010.5234258000273;None;None;0;1010.5234258000273;None;1012.0234840000048;None;['9'];[0.4193548000184819];1012.0234840000048;None;;;;;;;;Emoconpilot048;2022_Jan_19_1237;BackwardMask;2020.2.8;120.44260236807746;
;m;016_y_m_s_a.jpg;sad;7;19;f;019_m_f_h_a.jpg;happy;incongruent;9;mismatch;;130;150;;1;238;block1_Pilot_2;16;s_h;s_h_strong;;;;;0;0;0;0;0;117;117;117;;;;;;;;;1015.0245571000269;None;1017.014179800055;1017.3079879999859;1017.3079879999859;1017.3160917999921;1017.3160917999921;1017.3570288000628;1017.3570288000628;None;None;0;1017.3570288000628;None;1018.8569841000717;None;['9'];[0.3218134999042377];1018.8569841000717;None;;;;;;;;Emoconpilot048;2022_Jan_19_1237;BackwardMask;2020.2.8;120.44260236807746;
;m;013_y_m_s_a.jpg;sad;7;21;f;021_o_f_h_a.jpg;happy;incongruent;9;mismatch;;130;150;;18;238;block1_Pilot_2;13;s_h;s_h_strong;;;;;0;0;0;0;0;118;118;118;;;;;;;;;1021.8572961000027;None;1023.8486640000483;1024.1416091000428;1024.1416091000428;1024.291296600015;1024.291296600015;1024.3323241999606;1024.3323241999606;None;7;0;1024.3323241999606;None;1025.8323771000141;None;['7'];[0.3785362000344321];1025.8323771000141;None;0.8384029000299051;;;;;;;Emoconpilot048;2022_Jan_19_1237;BackwardMask;2020.2.8;120.44260236807746;
;f;012_o_f_s_a.jpg;sad;7;13;m;013_y_m_h_a.jpg;happy;incongruent;9;mismatch;;130;150;;3;235;block1_Pilot_2;12;s_h;s_h_weak;;;;;0;0;0;0;0;119;119;119;;;;;;;;;1028.8330127999652;None;1030.7943916000659;1031.091483199969;1031.091483199969;1031.116533500026;1031.116533500026;1031.157265100046;1031.157265100046;None;9;1;1031.157265100046;None;1032.6574088999769;None;['7'];[0.4094504000386223];1032.6574088999769;None;1.0214653000002727;;;;;;;Emoconpilot048;2022_Jan_19_1237;BackwardMask;2020.2.8;120.44260236807746;
;f;019_m_f_s_a.jpg;sad;7;30;f;030_o_f_h_a.jpg;happy;incongruent;9;match;;130;150;;3;235;block2_Pilot_2;19;s_h;s_h_strong;;;;;0;1;1;1;0;0;0;0;;;;;;;;;1055.696043599979;None;1057.671717899968;1057.9676442999626;1057.9676442999626;1057.9920070000226;1057.9920070000226;1058.0328488000669;1058.0328488000669;None;None;0;1058.0328488000669;None;1059.5330097000115;None;None;;1059.5330097000115;None;;;;1035.657783200033;None;;;Emoconpilot048;2022_Jan_19_1237;BackwardMask;2020.2.8;120.44260236807746;
;m;008_y_m_n_a.jpg;neutral;8;40;f;040_y_f_h_a.jpg;happy;incongruent;9;mismatch;;140;150;;2;121;block2_Pilot_2;8;n_h;n_h_strong;;;;;0;1;1;1;0;1;1;1;;;;;;;;;1062.5336972000077;None;1063.560985499993;1063.8508649000432;1063.8508649000432;1063.8670612999704;1063.8670612999704;1063.9078457000433;1063.9078457000433;None;None;0;1063.9078457000433;None;1065.4081490000244;None;None;;1065.4081490000244;None;;;;;;;;Emoconpilot048;2022_Jan_19_1237;BackwardMask;2020.2.8;120.44260236807746;
;f;012_o_f_h_a.jpg;happy;9;27;m;027_o_m_n_a.jpg;neutral;incongruent;8;mismatch;;120;170;;2;240;block2_Pilot_2;12;h_n;h_n_weak;;;;;0;1;1;1;0;2;2;2;;;;;;;;;1068.4081166000105;None;1070.4156701000175;1070.709215000039;1070.709215000039;1070.7254604999907;1070.7254604999907;1070.7664818000048;1070.7664818000048;None;None;0;1070.7664818000048;None;1072.2666251000483;None;['9'];[0.6721771999727935];1072.2666251000483;None;;;;;;;;Emoconpilot048;2022_Jan_19_1237;BackwardMask;2020.2.8;120.44260236807746;
;m;008_y_m_h_a.jpg;happy;9;40;f;040_y_f_h_a.jpg;happy;congruent;9;mismatch;;120;150;;18;195;block2_Pilot_2;8;h_h;h_h_strong;;;;;0;1;1;1;0;3;3;3;;;;;;;;;1075.2666612999747;None;1076.8992061000317;1077.1927060000598;1077.1927060000598;1077.3424074000213;1077.3424074000213;1077.383358299965;1077.383358299965;None;9;1;1077.383358299965;None;1078.884063799982;None;['7'];[0.3669320000335574];1078.884063799982;None;0.7475674001034349;;;;;;;Emoconpilot048;2022_Jan_19_1237;BackwardMask;2020.2.8;120.44260236807746;
;m;004_o_m_n_a.jpg;neutral;8;33;m;033_o_m_s_a.jpg;sad;incongruent;7;match;;140;160;;18;126;block2_Pilot_2;4;n_s;n_s_weak;;;;;0;1;1;1;0;4;4;4;;;;;;;;;1081.8834929000586;None;1082.954964500037;1083.2514504999854;1083.2514504999854;1083.4007319000084;1083.4007319000084;1083.4416121999966;1083.4416121999966;None;8;0;1083.4416121999966;None;1084.9417610999662;None;['7'];[0.6050255999434739];1084.9417610999662;None;1.2572155999951065;;;;;;;Emoconpilot048;2022_Jan_19_1237;BackwardMask;2020.2.8;120.44260236807746;
;f;028_y_f_s_a.jpg;sad;7;27;m;027_o_m_n_a.jpg;neutral;incongruent;8;mismatch;;130;170;;18;225;block2_Pilot_2;28;s_n;s_n_strong;;;;;0;1;1;1;0;5;5;5;;;;;;;;;1087.9433316000504;None;1089.8285106000258;1090.1178149000043;1090.1178149000043;1090.2676400999771;1090.2676400999771;1090.3084428999573;1090.3084428999573;None;7;0;1090.3084428999573;None;1091.808510200004;None;['7'];[0.3224142000544816];1091.808510200004;None;1.1824124999111518;;;;;;;Emoconpilot048;2022_Jan_19_1237;BackwardMask;2020.2.8;120.44260236807746;
;m;027_o_m_s_a.jpg;sad;7;30;f;030_o_f_h_a.jpg;happy;incongruent;9;mismatch;;130;150;;18;238;block2_Pilot_2;27;s_h;s_h_weak;;;;;0;1;1;1;0;6;6;6;;;;;;;;;1094.8086881999625;None;1096.7997747999616;1097.0931916000554;1097.0931916000554;1097.2429128000513;1097.2429128000513;1097.2837369999615;1097.2837369999615;None;7;0;1097.2837369999615;None;1098.7837430000072;None;['7'];[0.34714420000091195];1098.7837430000072;None;0.9590555001050234;;;;;;;Emoconpilot048;2022_Jan_19_1237;BackwardMask;2020.2.8;120.44260236807746;
;m;033_o_m_h_a.jpg;happy;9;40;f;040_y_f_s_a.jpg;sad;incongruent;7;mismatch;;120;160;;1;238;block2_Pilot_2;33;h_s;h_s_strong;;;;;0;1;1;1;0;7;7;7;;;;;;;;;1101.7845281000482;None;1103.7741141000297;1104.0678983000107;1104.0678983000107;1104.0762590999948;1104.0762590999948;1104.1170359000098;1104.1170359000098;None;None;0;1104.1170359000098;None;1105.6171166000422;None;['9'];[0.3695944999344647];1105.6171166000422;None;;;;;;;;Emoconpilot048;2022_Jan_19_1237;BackwardMask;2020.2.8;120.44260236807746;
;f;012_o_f_n_a.jpg;neutral;8;12;f;012_o_f_h_a.jpg;happy;incongruent;9;match;;140;150;;2;200;block2_Pilot_2;12;n_h;n_h_weak;;;;;0;1;1;1;0;8;8;8;;;;;;;;;1108.6173351999605;None;1110.3060223000357;1110.6018868000247;1110.6018868000247;1110.6179897000547;1110.6179897000547;1110.6589327000547;1110.6589327000547;None;8;0;1110.6589327000547;None;1112.1588876000606;None;['8'];[0.5640129999956116];1112.1588876000606;None;1.264028999954462;;;;;;;Emoconpilot048;2022_Jan_19_1237;BackwardMask;2020.2.8;120.44260236807746;
;f;030_o_f_n_a.jpg;neutral;8;19;f;019_m_f_n_a.jpg;neutral;congruent;8;match;;140;170;;1;238;block2_Pilot_2;30;n_n;n_n_weak;;;;;0;1;1;1;0;9;9;9;;;;;;;;;1115.1598288000096;None;1117.1615956999594;1117.4521633000113;1117.4521633000113;1117.4597532000626;1117.4597532000626;1117.500730299973;1117.500730299973;None;None;0;1117.500730299973;None;1119.0006992999697;None;['8'];[0.37828710000030696];1119.0006992999697;None;;;;;;;;Emoconpilot048;2022_Jan_19_1237;BackwardMask;2020.2.8;120.44260236807746;
;m;013_y_m_h_a.jpg;happy;9;8;m;008_y_m_n_a.jpg;neutral;incongruent;8;match;;120;170;;1;238;block2_Pilot_2;13;h_n;h_n_strong;;;;;0;1;1;1;0;10;10;10;;;;;;;;;1122.0017037000507;None;1124.0035352000268;1124.2939961999655;1124.2939961999655;1124.3015631999588;1124.3015631999588;1124.3425730000017;1124.3425730000017;None;None;0;1124.3425730000017;None;1125.8426034000004;None;['9'];[0.3682103999890387];1125.8426034000004;None;;;;;;;;Emoconpilot048;2022_Jan_19_1237;BackwardMask;2020.2.8;120.44260236807746;
;f;040_y_f_h_a.jpg;happy;9;19;f;019_m_f_s_a.jpg;sad;incongruent;7;match;;120;160;;3;133;block2_Pilot_2;40;h_s;h_s_strong;;;;;0;1;1;1;0;11;11;11;;;;;;;;;1128.8435086000245;None;1129.9583648999687;1130.251869300031;1130.251869300031;1130.276717800065;1130.276717800065;1130.3176661999896;1130.3176661999896;None;9;0;1130.3176661999896;None;1131.8177970000543;None;['7'];[0.24910749995615333];1131.8177970000543;None;0.7971916999667883;;;;;;;Emoconpilot048;2022_Jan_19_1237;BackwardMask;2020.2.8;120.44260236807746;
;f;040_y_f_h_a.jpg;happy;9;13;m;013_y_m_s_a.jpg;sad;incongruent;7;mismatch;;120;160;;3;226;block2_Pilot_2;40;h_s;h_s_strong;;;;;0;1;1;1;0;12;12;12;;;;;;;;;1134.8182612999808;None;1136.7094021000667;1137.002198799979;1137.002198799979;1137.0268122999696;1137.0268122999696;1137.0677386999596;1137.0677386999596;None;9;0;1137.0677386999596;None;1138.5677608000115;None;['7'];[0.3789470000192523];1138.5677608000115;None;0.7510060000931844;;;;;;;Emoconpilot048;2022_Jan_19_1237;BackwardMask;2020.2.8;120.44260236807746;
;f;030_o_f_s_a.jpg;sad;7;27;m;027_o_m_h_a.jpg;happy;incongruent;9;mismatch;;130;150;;1;238;block2_Pilot_2;30;s_h;s_h_strong;;;;;0;1;1;1;0;13;13;13;;;;;;;;;1141.568855599966;None;1143.5881551000057;1143.8777036999818;1143.8777036999818;1143.8853253000416;1143.8853253000416;1143.9262603999814;1143.9262603999814;None;None;0;1143.9262603999814;None;1145.4268909000093;None;['9'];[0.3358896999852732];1145.4268909000093;None;;;;;;;;Emoconpilot048;2022_Jan_19_1237;BackwardMask;2020.2.8;120.44260236807746;
;m;033_o_m_h_a.jpg;happy;9;30;f;030_o_f_s_a.jpg;sad;incongruent;7;mismatch;;120;160;;1;238;block2_Pilot_2;33;h_s;h_s_weak;;;;;0;1;1;1;0;14;14;14;;;;;;;;;1148.4270450000186;None;1150.4178394000046;1150.7106319000013;1150.7106319000013;1150.7189521000255;1150.7189521000255;1150.759786300012;1150.759786300012;None;None;0;1150.759786300012;None;1152.2597771000583;None;['9'];[0.3670742999529466];1152.2597771000583;None;;;;;;;;Emoconpilot048;2022_Jan_19_1237;BackwardMask;2020.2.8;120.44260236807746;
;f;030_o_f_s_a.jpg;sad;7;28;f;028_y_f_n_a.jpg;neutral;incongruent;8;match;;130;170;;3;198;block2_Pilot_2;30;s_n;s_n_weak;;;;;0;1;1;1;0;15;15;15;;;;;;;;;1155.2600624000188;None;1156.938347300049;1157.2280992000597;1157.2280992000597;1157.252258399967;1157.252258399967;1157.2932308999589;1157.2932308999589;None;8;1;1157.2932308999589;None;1158.7931286999956;None;['7'];[0.3856728000100702];1158.7931286999956;None;1.0293752000434324;;;;;;;Emoconpilot048;2022_Jan_19_1237;BackwardMask;2020.2.8;120.44260236807746;
;f;030_o_f_s_a.jpg;sad;7;33;m;033_o_m_h_a.jpg;happy;incongruent;9;mismatch;;130;150;;3;175;block2_Pilot_2;30;s_h;s_h_weak;;;;;0;1;1;1;0;16;16;16;;;;;;;;;1161.7943598000566;None;1163.2712075000163;1163.5612683000509;1163.5612683000509;1163.5857251000125;1163.5857251000125;1163.6265484000323;1163.6265484000323;None;8;0;1163.6265484000323;None;1165.1266569000436;None;['7'];[0.9800610999809578];1165.1266569000436;None;1.4003021999960765;;;;;;;Emoconpilot048;2022_Jan_19_1237;BackwardMask;2020.2.8;120.44260236807746;
;f;021_o_f_h_a.jpg;happy;9;30;f;030_o_f_h_a.jpg;happy;congruent;9;match;;120;150;;2;194;block2_Pilot_2;21;h_h;h_h_strong;;;;;0;1;1;1;0;17;17;17;;;;;;;;;1168.1276871999726;None;1169.7629403000465;1170.0533730000025;1170.0533730000025;1170.0692062999588;1170.0692062999588;1170.1101074999897;1170.1101074999897;None;9;1;1170.1101074999897;None;1171.6102748999838;None;['8'];[0.4005462999921292];1171.6102748999838;None;0.9007172000128776;;;;;;;Emoconpilot048;2022_Jan_19_1237;BackwardMask;2020.2.8;120.44260236807746;
;f;019_m_f_n_a.jpg;neutral;8;16;m;016_y_m_s_a.jpg;sad;incongruent;7;mismatch;;140;160;;18;163;block2_Pilot_2;19;n_s;n_s_weak;;;;;0;1;1;1;0;18;18;18;;;;;;;;;1174.6109203000087;None;1175.9874819000252;1176.2782752000494;1176.2782752000494;1176.427755300072;1176.427755300072;1176.4685789999785;1176.4685789999785;None;8;0;1176.4685789999785;None;1177.9686342000496;None;['7'];[0.3063053999794647];1177.9686342000496;None;0.5501541000558063;;;;;;;Emoconpilot048;2022_Jan_19_1237;BackwardMask;2020.2.8;120.44260236807746;
;m;033_o_m_n_a.jpg;neutral;8;13;m;013_y_m_n_a.jpg;neutral;congruent;8;match;;140;170;;2;217;block2_Pilot_2;33;n_n;n_n_strong;;;;;0;1;1;1;0;19;19;19;;;;;;;;;1180.9686535999645;None;1182.8061837999849;1183.0952667000238;1183.0952667000238;1183.1111202000175;1183.1111202000175;1183.1520786000183;1183.1520786000183;None;9;0;1183.1520786000183;None;1184.6520053000422;None;['8'];[1.0947940000332892];1184.6520053000422;None;0.8585387000348419;;;;;;;Emoconpilot048;2022_Jan_19_1237;BackwardMask;2020.2.8;120.44260236807746;
;m;033_o_m_h_a.jpg;happy;9;13;m;013_y_m_n_a.jpg;neutral;incongruent;8;match;;120;170;;2;227;block2_Pilot_2;33;h_n;h_n_weak;;;;;0;1;1;1;0;20;20;20;;;;;;;;;1187.652180199977;None;1189.5512918999884;1189.8448843000224;1189.8448843000224;1189.8612104000058;1189.8612104000058;1189.9021041999804;1189.9021041999804;None;None;0;1189.9021041999804;None;1191.4020645000273;None;"['9', '7']";"[0.048514600028283894, 0.864764399942942]";1191.4020645000273;None;;;;;;;;Emoconpilot048;2022_Jan_19_1237;BackwardMask;2020.2.8;120.44260236807746;
;f;012_o_f_s_a.jpg;sad;7;16;m;016_y_m_n_a.jpg;neutral;incongruent;8;mismatch;;130;170;;1;238;block2_Pilot_2;12;s_n;s_n_weak;;;;;0;1;1;1;0;21;21;21;;;;;;;;;1194.4024515000638;None;1196.389717599959;1196.6865226000082;1196.6865226000082;1196.6946530999849;1196.6946530999849;1196.7356259999797;1196.7356259999797;None;None;0;1196.7356259999797;None;1198.2357600000687;None;['9'];[0.3669421999948099];1198.2357600000687;None;;;;;;;;Emoconpilot048;2022_Jan_19_1237;BackwardMask;2020.2.8;120.44260236807746;
;f;028_y_f_n_a.jpg;neutral;8;21;f;021_o_f_h_a.jpg;happy;incongruent;9;match;;140;150;;18;202;block2_Pilot_2;28;n_h;n_h_strong;;;;;0;1;1;1;0;22;22;22;;;;;;;;;1201.2369667000603;None;1202.9424997000024;1203.2370686000213;1203.2370686000213;1203.3864786999766;1203.3864786999766;1203.4273493000073;1203.4273493000073;None;8;0;1203.4273493000073;None;1204.9275149999885;None;['7'];[0.307382500031963];1204.9275149999885;None;0.607543500023894;;;;;;;Emoconpilot048;2022_Jan_19_1237;BackwardMask;2020.2.8;120.44260236807746;
;f;028_y_f_s_a.jpg;sad;7;30;f;030_o_f_n_a.jpg;neutral;incongruent;8;match;;130;170;;2;127;block2_Pilot_2;28;s_n;s_n_weak;;;;;0;1;1;1;0;23;23;23;;;;;;;;;1207.9276380999945;None;1208.9978383000707;1209.2869129000464;1209.2869129000464;1209.3033110999968;1209.3033110999968;1209.3441640000092;1209.3441640000092;None;None;0;1209.3441640000092;None;1210.8442153000506;None;"['8', '8']";"[0.17462219996377826, 2.8944522999227047]";1210.8442153000506;None;;;;;;;;Emoconpilot048;2022_Jan_19_1237;BackwardMask;2020.2.8;120.44260236807746;
;m;004_o_m_n_a.jpg;neutral;8;40;f;040_y_f_n_a.jpg;neutral;congruent;8;mismatch;;140;170;;1;238;block2_Pilot_2;4;n_n;n_n_weak;;;;;0;1;1;1;0;24;24;24;;;;;;;;;1213.8452217000304;None;1215.8710294000339;1216.1624788000481;1216.1624788000481;1216.1699818000197;1216.1699818000197;1216.2109879000345;1216.2109879000345;None;None;0;1216.2109879000345;None;1217.7109415000305;None;['9'];[0.8999363000039011];1217.7109415000305;None;;;;;;;;Emoconpilot048;2022_Jan_19_1237;BackwardMask;2020.2.8;120.44260236807746;
;m;016_y_m_n_a.jpg;neutral;8;16;m;016_y_m_h_a.jpg;happy;incongruent;9;match;;140;150;;18;239;block2_Pilot_2;16;n_h;n_h_weak;;;;;0;1;1;1;0;25;25;25;;;;;;;;;1220.7111902000615;None;1222.7233376000077;1223.0126444000052;1223.0126444000052;1223.161985200015;1223.161985200015;1223.2027571999934;1223.2027571999934;None;8;0;1223.2027571999934;None;1224.7028496999992;None;['7'];[0.3479759000474587];1224.7028496999992;None;0.7281125000445172;;;;;;;Emoconpilot048;2022_Jan_19_1237;BackwardMask;2020.2.8;120.44260236807746;
;f;012_o_f_n_a.jpg;neutral;8;33;m;033_o_m_n_a.jpg;neutral;congruent;8;mismatch;;140;170;;3;134;block2_Pilot_2;12;n_n;n_n_weak;;;;;0;1;1;1;0;26;26;26;;;;;;;;;1227.7040090999799;None;1228.8389433000702;1229.129453200032;1229.129453200032;1229.1538385000313;1229.1538385000313;1229.1946575000184;1229.1946575000184;None;8;1;1229.1946575000184;None;1230.6946941000642;None;['8'];[0.46006229997146875];1230.6946941000642;None;0.704248100053519;;;;;;;Emoconpilot048;2022_Jan_19_1237;BackwardMask;2020.2.8;120.44260236807746;
;m;013_y_m_h_a.jpg;happy;9;27;m;027_o_m_s_a.jpg;sad;incongruent;7;match;;120;160;;2;194;block2_Pilot_2;13;h_s;h_s_strong;;;;;0;1;1;1;0;27;27;27;;;;;;;;;1233.6948473000666;None;1235.3324184999801;1235.6210172000574;1235.6210172000574;1235.6372355000349;1235.6372355000349;1235.6781156000216;1235.6781156000216;None;9;0;1235.6781156000216;None;1237.1779811000451;None;['7'];[1.1451438999501988];1237.1779811000451;None;0.7808320999611169;;;;;;;Emoconpilot048;2022_Jan_19_1237;BackwardMask;2020.2.8;120.44260236807746;
;m;013_y_m_n_a.jpg;neutral;8;28;f;028_y_f_n_a.jpg;neutral;congruent;8;mismatch;;140;170;;1;238;block2_Pilot_2;13;n_n;n_n_weak;;;;;0;1;1;1;0;28;28;28;;;;;;;;;1240.179006600054;None;1242.1809102999978;1242.4711696000304;1242.4711696000304;1242.4789966000244;1242.4789966000244;1242.5197984999977;1242.5197984999977;None;None;0;1242.5197984999977;None;1244.0198700999608;None;['9'];[0.5750248999102041];1244.0198700999608;None;;;;;;;;Emoconpilot048;2022_Jan_19_1237;BackwardMask;2020.2.8;120.44260236807746;
;f;030_o_f_s_a.jpg;sad;7;33;m;033_o_m_h_a.jpg;happy;incongruent;9;mismatch;;130;150;;3;168;block2_Pilot_2;30;s_h;s_h_weak;;;;;0;1;1;1;0;29;29;29;;;;;;;;;1247.020857400028;None;1248.4394977999618;1248.7298593999585;1248.7298593999585;1248.754191200016;1248.754191200016;1248.7950251000002;1248.7950251000002;None;8;0;1248.7950251000002;None;1250.2951902999775;None;['7'];[0.4036157000809908];1250.2951902999775;None;0.7196980000007898;;;;;;;Emoconpilot048;2022_Jan_19_1237;BackwardMask;2020.2.8;120.44260236807746;
;m;008_y_m_n_a.jpg;neutral;8;12;f;012_o_f_n_a.jpg;neutral;congruent;8;mismatch;;140;170;;18;208;block2_Pilot_2;8;n_n;n_n_weak;;;;;0;1;1;1;0;30;30;30;;;;;;;;;1253.2959182000486;None;1255.0496822000714;1255.33802200004;1255.33802200004;1255.4875753000379;1255.4875753000379;1255.5286190999905;1255.5286190999905;None;8;1;1255.5286190999905;None;1257.0284631999675;None;['7'];[0.3023407000582665];1257.0284631999675;None;0.5301483999937773;;;;;;;Emoconpilot048;2022_Jan_19_1237;BackwardMask;2020.2.8;120.44260236807746;
;m;008_y_m_s_a.jpg;sad;7;4;m;004_o_m_n_a.jpg;neutral;incongruent;8;match;;130;170;;2;231;block2_Pilot_2;8;s_n;s_n_weak;;;;;0;1;1;1;0;31;31;31;;;;;;;;;1260.0293606000487;None;1261.9727830999764;1262.2633103000699;1262.2633103000699;1262.2794856000692;1262.2794856000692;1262.3203595000086;1262.3203595000086;None;None;0;1262.3203595000086;None;1263.820332000032;None;['9'];[0.942440600018017];1263.820332000032;None;;;;;;;;Emoconpilot048;2022_Jan_19_1237;BackwardMask;2020.2.8;120.44260236807746;
;m;016_y_m_n_a.jpg;neutral;8;28;f;028_y_f_n_a.jpg;neutral;congruent;8;mismatch;;140;170;;2;218;block2_Pilot_2;16;n_n;n_n_weak;;;;;0;1;1;1;0;32;32;32;;;;;;;;;1266.8212089000735;None;1268.656666200026;1268.9468508000718;1268.9468508000718;1268.9627699999837;1268.9627699999837;1269.0036533999955;1269.0036533999955;None;8;1;1269.0036533999955;None;1270.5038090000162;None;['8'];[0.27505020005628467];1270.5038090000162;None;0.6871425000717863;;;;;;;Emoconpilot048;2022_Jan_19_1237;BackwardMask;2020.2.8;120.44260236807746;
;m;033_o_m_n_a.jpg;neutral;8;33;m;033_o_m_s_a.jpg;sad;incongruent;7;match;;140;160;;3;141;block2_Pilot_2;33;n_s;n_s_weak;;;;;0;1;1;1;0;33;33;33;;;;;;;;;1273.5048185000196;None;1274.6973600999918;1274.9886776000494;1274.9886776000494;1275.012825599988;1275.012825599988;1275.0538170000073;1275.0538170000073;None;None;0;1275.0538170000073;None;1276.5539732000325;None;"['7', '8']";"[0.032929199980571866, 1.0809345999732614]";1276.5539732000325;None;;;;;;;;Emoconpilot048;2022_Jan_19_1237;BackwardMask;2020.2.8;120.44260236807746;
;m;016_y_m_n_a.jpg;neutral;8;13;m;013_y_m_s_a.jpg;sad;incongruent;7;match;;140;160;;1;238;block2_Pilot_2;16;n_s;n_s_weak;;;;;0;1;1;1;0;34;34;34;;;;;;;;;1279.5549426999642;None;1281.5563299000496;1281.8469214000506;1281.8469214000506;1281.854816099978;1281.854816099978;1281.89568159997;1281.89568159997;None;None;0;1281.89568159997;None;1283.3958196999738;None;['9'];[0.2948857999872416];1283.3958196999738;None;;;;;;;;Emoconpilot048;2022_Jan_19_1237;BackwardMask;2020.2.8;120.44260236807746;
;f;030_o_f_h_a.jpg;happy;9;12;f;012_o_f_n_a.jpg;neutral;incongruent;8;match;;120;170;;3;190;block2_Pilot_2;30;h_n;h_n_weak;;;;;0;1;1;1;0;35;35;35;;;;;;;;;1286.3967541999882;None;1287.9989349000389;1288.2887109000003;1288.2887109000003;1288.3133894000202;1288.3133894000202;1288.354119500029;1288.354119500029;None;9;0;1288.354119500029;None;1289.8538477000548;None;['7'];[0.2530704999808222];1289.8538477000548;None;0.8085151000414044;;;;;;;Emoconpilot048;2022_Jan_19_1237;BackwardMask;2020.2.8;120.44260236807746;
;f;030_o_f_s_a.jpg;sad;7;12;f;012_o_f_n_a.jpg;neutral;incongruent;8;match;;130;170;;3;197;block2_Pilot_2;30;s_n;s_n_strong;;;;;0;1;1;1;0;36;36;36;;;;;;;;;1292.8545143000083;None;1294.515678100055;1294.8056451999582;1294.8056451999582;1294.8300593000604;1294.8300593000604;1294.8709360000212;1294.8709360000212;None;9;0;1294.8709360000212;None;1296.3709371000296;None;['7'];[0.41591340000741184];1296.3709371000296;None;1.0278352999594063;;;;;;;Emoconpilot048;2022_Jan_19_1237;BackwardMask;2020.2.8;120.44260236807746;
;m;004_o_m_s_a.jpg;sad;7;8;m;008_y_m_h_a.jpg;happy;incongruent;9;match;;130;150;;3;201;block2_Pilot_2;4;s_h;s_h_strong;;;;;0;1;1;1;0;37;37;37;;;;;;;;;1299.3711578999646;None;1301.0542451000074;1301.347031100071;1301.347031100071;1301.3719026000472;1301.3719026000472;1301.4127436999697;1301.4127436999697;None;None;0;1301.4127436999697;None;1302.9127150999848;None;['9'];[1.0581647000508383];1302.9127150999848;None;;;;;;;;Emoconpilot048;2022_Jan_19_1237;BackwardMask;2020.2.8;120.44260236807746;
;f;040_y_f_n_a.jpg;neutral;8;16;m;016_y_m_n_a.jpg;neutral;congruent;8;mismatch;;140;170;;3;198;block2_Pilot_2;40;n_n;n_n_strong;;;;;0;1;1;1;0;38;38;38;;;;;;;;;1305.9128855000017;None;1307.5887030999875;1307.8808453000383;1307.8808453000383;1307.9054069999838;1307.9054069999838;1307.9461158000631;1307.9461158000631;None;8;1;1307.9461158000631;None;1309.4463496999815;None;['7'];[0.2765206000767648];1309.4463496999815;None;0.6407044999068603;;;;;;;Emoconpilot048;2022_Jan_19_1237;BackwardMask;2020.2.8;120.44260236807746;
;m;027_o_m_n_a.jpg;neutral;8;16;m;016_y_m_s_a.jpg;sad;incongruent;7;match;;140;160;;1;238;block2_Pilot_2;27;n_s;n_s_strong;;;;;0;1;1;1;0;39;39;39;;;;;;;;;1312.4463666999945;None;1314.448989000055;1314.73952860001;1314.73952860001;1314.747165100067;1314.747165100067;1314.7880846000044;1314.7880846000044;None;None;0;1314.7880846000044;None;1316.2887993999757;None;['9'];[0.28198490000795573];1316.2887993999757;None;;;;;;;;Emoconpilot048;2022_Jan_19_1237;BackwardMask;2020.2.8;120.44260236807746;
;m;033_o_m_n_a.jpg;neutral;8;40;f;040_y_f_h_a.jpg;happy;incongruent;9;mismatch;;140;150;;2;137;block2_Pilot_2;33;n_h;n_h_strong;;;;;0;1;1;1;0;40;40;40;;;;;;;;;1319.2888357000193;None;1320.450107300072;1320.7395914000226;1320.7395914000226;1320.7555748999584;1320.7555748999584;1320.7964936000062;1320.7964936000062;None;9;1;1320.7964936000062;None;1322.2966273999773;None;['8'];[0.26624220004305243];1322.2966273999773;None;1.0861663999967277;;;;;;;Emoconpilot048;2022_Jan_19_1237;BackwardMask;2020.2.8;120.44260236807746;
;m;004_o_m_s_a.jpg;sad;7;8;m;008_y_m_h_a.jpg;happy;incongruent;9;match;;130;150;;18;193;block2_Pilot_2;4;s_h;s_h_strong;;;;;0;1;1;1;0;41;41;41;;;;;;;;;1325.2971039999975;None;1326.9131031000288;1327.2059931000695;1327.2059931000695;1327.3558975000633;1327.3558975000633;1327.3965397999855;1327.3965397999855;None;7;0;1327.3965397999855;None;1328.8966413000599;None;['7'];[0.2981617000186816];1328.8966413000599;None;0.7261733000632375;;;;;;;Emoconpilot048;2022_Jan_19_1237;BackwardMask;2020.2.8;120.44260236807746;
;f;012_o_f_h_a.jpg;happy;9;4;m;004_o_m_s_a.jpg;sad;incongruent;7;mismatch;;120;160;;3;198;block2_Pilot_2;12;h_s;h_s_weak;;;;;0;1;1;1;0;42;42;42;;;;;;;;;1331.897915199981;None;1333.554750500014;1333.8478947000112;1333.8478947000112;1333.872528100037;1333.872528100037;1333.9133487000363;1333.9133487000363;None;9;0;1333.9133487000363;None;1335.4135356000625;None;['7'];[0.42902409995440394];1335.4135356000625;None;0.8574690000386909;;;;;;;Emoconpilot048;2022_Jan_19_1237;BackwardMask;2020.2.8;120.44260236807746;
;f;012_o_f_n_a.jpg;neutral;8;8;m;008_y_m_s_a.jpg;sad;incongruent;7;mismatch;;140;160;;1;238;block2_Pilot_2;12;n_s;n_s_strong;;;;;0;1;1;1;0;43;43;43;;;;;;;;;1338.41459150007;None;1340.4190644000191;1340.7150952999946;1340.7150952999946;1340.7225210999604;1340.7225210999604;1340.763496599975;1340.763496599975;None;None;0;1340.763496599975;None;1342.263648299966;None;['9'];[0.5311515999492258];1342.263648299966;None;;;;;;;;Emoconpilot048;2022_Jan_19_1237;BackwardMask;2020.2.8;120.44260236807746;
;f;040_y_f_n_a.jpg;neutral;8;8;m;008_y_m_n_a.jpg;neutral;congruent;8;mismatch;;140;170;;3;165;block2_Pilot_2;40;n_n;n_n_weak;;;;;0;1;1;1;0;44;44;44;;;;;;;;;1345.2643888000166;None;1346.6580734000308;1346.9483083999949;1346.9483083999949;1346.9728033000138;1346.9728033000138;1347.013617199962;1347.013617199962;None;8;1;1347.013617199962;None;1348.5145844999934;None;['7'];[0.3922349000349641];1348.5145844999934;None;0.9091351000824943;;;;;;;Emoconpilot048;2022_Jan_19_1237;BackwardMask;2020.2.8;120.44260236807746;
;f;028_y_f_h_a.jpg;happy;9;33;m;033_o_m_n_a.jpg;neutral;incongruent;8;mismatch;;120;170;;1;238;block2_Pilot_2;28;h_n;h_n_strong;;;;;0;1;1;1;0;45;45;45;;;;;;;;;1351.5144793000072;None;1353.5083231000463;1353.7981821000576;1353.7981821000576;1353.8062099000672;1353.8062099000672;1353.847127999994;1353.847127999994;None;None;0;1353.847127999994;None;1355.3470655999845;None;['9'];[0.2955958000384271];1355.3470655999845;None;;;;;;;;Emoconpilot048;2022_Jan_19_1237;BackwardMask;2020.2.8;120.44260236807746;
;m;027_o_m_s_a.jpg;sad;7;19;f;019_m_f_n_a.jpg;neutral;incongruent;8;mismatch;;130;170;;2;236;block2_Pilot_2;27;s_n;s_n_weak;;;;;0;1;1;1;0;46;46;46;;;;;;;;;1358.3481221999973;None;1360.3227125999983;1360.6153034999734;1360.6153034999734;1360.6314284000546;1360.6314284000546;1360.6723331999965;1360.6723331999965;None;None;0;1360.6723331999965;None;1362.1722675999627;None;['9'];[0.40643669990822673];1362.1722675999627;None;;;;;;;;Emoconpilot048;2022_Jan_19_1237;BackwardMask;2020.2.8;120.44260236807746;
;m;027_o_m_h_a.jpg;happy;9;19;f;019_m_f_s_a.jpg;sad;incongruent;7;mismatch;;120;160;;1;238;block2_Pilot_2;27;h_s;h_s_strong;;;;;0;1;1;1;0;47;47;47;;;;;;;;;1365.1732365000062;None;1367.1945139999734;1367.490441299975;1367.490441299975;1367.498188800062;1367.498188800062;1367.5391747000394;1367.5391747000394;None;None;0;1367.5391747000394;None;1369.0391725000227;None;['9'];[0.48337270005140454];1369.0391725000227;None;;;;;;;;Emoconpilot048;2022_Jan_19_1237;BackwardMask;2020.2.8;120.44260236807746;
;m;016_y_m_h_a.jpg;happy;9;4;m;004_o_m_s_a.jpg;sad;incongruent;7;match;;120;160;;3;227;block2_Pilot_2;16;h_s;h_s_strong;;;;;0;1;1;1;0;48;48;48;;;;;;;;;1372.0397682000184;None;1373.9391816999996;1374.2319331000326;1374.2319331000326;1374.2565141000086;1374.2565141000086;1374.2974647000665;1374.2974647000665;None;9;0;1374.2974647000665;None;1375.7977356000338;None;['7'];[0.23679799993988127];1375.7977356000338;None;0.9612886999966577;;;;;;;Emoconpilot048;2022_Jan_19_1237;BackwardMask;2020.2.8;120.44260236807746;
;f;040_y_f_h_a.jpg;happy;9;13;m;013_y_m_h_a.jpg;happy;congruent;9;mismatch;;120;150;;3;165;block2_Pilot_2;40;h_h;h_h_strong;;;;;0;1;1;1;0;49;49;49;;;;;;;;;1378.797704800032;None;1380.1806405000389;1380.4736368999584;1380.4736368999584;1380.4986135000363;1380.4986135000363;1380.5393777000718;1380.5393777000718;None;9;1;1380.5393777000718;None;1382.0392881999724;None;['7'];[0.2834423000458628];1382.0392881999724;None;0.7674266999820247;;;;;;;Emoconpilot048;2022_Jan_19_1237;BackwardMask;2020.2.8;120.44260236807746;
;m;033_o_m_s_a.jpg;sad;7;28;f;028_y_f_n_a.jpg;neutral;incongruent;8;mismatch;;130;170;;2;227;block2_Pilot_2;33;s_n;s_n_weak;;;;;0;1;1;1;0;50;50;50;;;;;;;;;1385.040308900061;None;1386.938841999974;1387.2321283000056;1387.2321283000056;1387.248423299985;1387.248423299985;1387.2894337000325;1387.2894337000325;None;9;0;1387.2894337000325;None;1388.7895496999845;None;['9'];[0.3893009000457823];1388.7895496999845;None;0.8412291000131518;;;;;;;Emoconpilot048;2022_Jan_19_1237;BackwardMask;2020.2.8;120.44260236807746;
;f;019_m_f_s_a.jpg;sad;7;27;m;027_o_m_h_a.jpg;happy;incongruent;9;mismatch;;130;150;;1;238;block2_Pilot_2;19;s_h;s_h_weak;;;;;0;1;1;1;0;51;51;51;;;;;;;;;1391.790519900038;None;1393.7932075000135;1394.0827014000388;1394.0827014000388;1394.0903569000075;1394.0903569000075;1394.1313951000338;1394.1313951000338;None;None;0;1394.1313951000338;None;1395.6313719999744;None;['9'];[0.3072473000502214];1395.6313719999744;None;;;;;;;;Emoconpilot048;2022_Jan_19_1237;BackwardMask;2020.2.8;120.44260236807746;
;m;016_y_m_h_a.jpg;happy;9;19;f;019_m_f_n_a.jpg;neutral;incongruent;8;mismatch;;120;170;;18;238;block2_Pilot_2;16;h_n;h_n_strong;;;;;0;1;1;1;0;52;52;52;;;;;;;;;1398.6321746000322;None;1400.6231511000078;1400.915863399976;1400.915863399976;1401.0656047000084;1401.0656047000084;1401.1064722000156;1401.1064722000156;None;9;0;1401.1064722000156;None;1402.607396000065;None;['7'];[0.2594604999758303];1402.607396000065;None;0.6962445999961346;;;;;;;Emoconpilot048;2022_Jan_19_1237;BackwardMask;2020.2.8;120.44260236807746;
;f;021_o_f_s_a.jpg;sad;7;8;m;008_y_m_n_a.jpg;neutral;incongruent;8;mismatch;;130;170;;1;238;block2_Pilot_2;21;s_n;s_n_strong;;;;;0;1;1;1;0;53;53;53;;;;;;;;;1405.6074334000004;None;1407.59548680007;1407.8908479000675;1407.8908479000675;1407.8990035000024;1407.8990035000024;1407.939760999987;1407.939760999987;None;None;0;1407.939760999987;None;1409.4397969000274;None;['9'];[0.39487580000422895];1409.4397969000274;None;;;;;;;;Emoconpilot048;2022_Jan_19_1237;BackwardMask;2020.2.8;120.44260236807746;
;f;012_o_f_s_a.jpg;sad;7;33;m;033_o_m_s_a.jpg;sad;congruent;7;mismatch;;130;160;;2;148;block2_Pilot_2;12;s_s;s_s_weak;;;;;0;1;1;1;0;54;54;54;;;;;;;;;1412.4403869999805;None;1413.677675300045;1413.9743096999591;1413.9743096999591;1413.990842900006;1413.990842900006;1414.0316891999682;1414.0316891999682;None;9;0;1414.0316891999682;None;1415.5317954999628;None;['8'];[0.4709163000807166];1415.5317954999628;None;1.3950177000369877;;;;;;;Emoconpilot048;2022_Jan_19_1237;BackwardMask;2020.2.8;120.44260236807746;
;f;030_o_f_s_a.jpg;sad;7;40;f;040_y_f_s_a.jpg;sad;congruent;7;match;;130;160;;3;136;block2_Pilot_2;30;s_s;s_s_strong;;;;;0;1;1;1;0;55;55;55;;;;;;;;;1418.5322989000706;None;1419.686099100043;1419.9750281999586;1419.9750281999586;1419.9994238000363;1419.9994238000363;1420.0402048999676;1420.0402048999676;None;8;0;1420.0402048999676;None;1421.540519400034;None;['8'];[0.2302493000170216];1421.540519400034;None;0.8504036000231281;;;;;;;Emoconpilot048;2022_Jan_19_1237;BackwardMask;2020.2.8;120.44260236807746;
;m;027_o_m_s_a.jpg;sad;7;28;f;028_y_f_h_a.jpg;happy;incongruent;9;mismatch;;130;150;;1;238;block2_Pilot_2;27;s_h;s_h_weak;;;;;0;1;1;1;0;56;56;56;;;;;;;;;1424.5409879999934;None;1426.5317244000034;1426.824422399979;1426.824422399979;1426.8327351000626;1426.8327351000626;1426.8735639000079;1426.8735639000079;None;None;0;1426.8735639000079;None;1428.374188899994;None;['9'];[0.3564935000613332];1428.374188899994;None;;;;;;;;Emoconpilot048;2022_Jan_19_1237;BackwardMask;2020.2.8;120.44260236807746;
;m;004_o_m_n_a.jpg;neutral;8;8;m;008_y_m_s_a.jpg;sad;incongruent;7;match;;140;160;;3;225;block2_Pilot_2;4;n_s;n_s_strong;;;;;0;1;1;1;0;57;57;57;;;;;;;;;1431.374442600063;None;1433.2727807000047;1433.5666947000427;1433.5666947000427;1433.5912958000554;1433.5912958000554;1433.632117500063;1433.632117500063;None;8;0;1433.632117500063;None;1435.1320655000163;None;['8'];[0.5186573000391945];1435.1320655000163;None;1.1944895999040455;;;;;;;Emoconpilot048;2022_Jan_19_1237;BackwardMask;2020.2.8;120.44260236807746;
;f;012_o_f_s_a.jpg;sad;7;40;f;040_y_f_s_a.jpg;sad;congruent;7;match;;130;160;;1;238;block2_Pilot_2;12;s_s;s_s_strong;;;;;0;1;1;1;0;58;58;58;;;;;;;;;1438.1330938000465;None;1440.1191697999602;1440.4162904999685;1440.4162904999685;1440.4247577000642;1440.4247577000642;1440.4656153999968;1440.4656153999968;None;None;0;1440.4656153999968;None;1441.9655280000297;None;['9'];[0.469121600035578];1441.9655280000297;None;;;;;;;;Emoconpilot048;2022_Jan_19_1237;BackwardMask;2020.2.8;120.44260236807746;
;f;021_o_f_h_a.jpg;happy;9;4;m;004_o_m_n_a.jpg;neutral;incongruent;8;mismatch;;120;170;;1;238;block2_Pilot_2;21;h_n;h_n_weak;;;;;0;1;1;1;0;59;59;59;;;;;;;;;1444.9663384000305;None;1446.9695469000144;1447.2586229000008;1447.2586229000008;1447.2664413000457;1447.2664413000457;1447.3073517000303;1447.3073517000303;None;None;0;1447.3073517000303;None;1448.8073274999624;None;['9'];[0.3234282999765128];1448.8073274999624;None;;;;;;;;Emoconpilot048;2022_Jan_19_1237;BackwardMask;2020.2.8;120.44260236807746;
;f;040_y_f_h_a.jpg;happy;9;16;m;016_y_m_n_a.jpg;neutral;incongruent;8;mismatch;;120;170;;2;154;block2_Pilot_2;40;h_n;h_n_weak;;;;;0;1;1;1;0;60;60;60;;;;;;;;;1451.8082963000052;None;1453.0998777999775;1453.391765300068;1453.391765300068;1453.4083295000019;1453.4083295000019;1453.4490573999938;1453.4490573999938;None;9;0;1453.4490573999938;None;1454.9491468999768;None;['7'];[0.22964950010646135];1454.9491468999768;None;0.9374841999961063;;;;;;;Emoconpilot048;2022_Jan_19_1237;BackwardMask;2020.2.8;120.44260236807746;
;m;008_y_m_n_a.jpg;neutral;8;4;m;004_o_m_s_a.jpg;sad;incongruent;7;match;;140;160;;18;145;block2_Pilot_2;8;n_s;n_s_strong;;;;;0;1;1;1;0;61;61;61;;;;;;;;;1457.949499499984;None;1459.1943964000093;1459.4840095000109;1459.4840095000109;1459.6336050999817;1459.6336050999817;1459.674185300013;1459.674185300013;None;8;0;1459.674185300013;None;1461.1741527999984;None;['7'];[0.30849149997811764];1461.1741527999984;None;0.8005371999461204;;;;;;;Emoconpilot048;2022_Jan_19_1237;BackwardMask;2020.2.8;120.44260236807746;
;f;021_o_f_s_a.jpg;sad;7;33;m;033_o_m_h_a.jpg;happy;incongruent;9;mismatch;;130;150;;1;238;block2_Pilot_2;21;s_h;s_h_strong;;;;;0;1;1;1;0;62;62;62;;;;;;;;;1464.1751594999805;None;1466.1638857000507;1466.4587287000613;1466.4587287000613;1466.4668249000097;1466.4668249000097;1466.5078203000594;1466.5078203000594;None;None;0;1466.5078203000594;None;1468.0076229000697;None;['9'];[0.31515569996554404];1468.0076229000697;None;;;;;;;;Emoconpilot048;2022_Jan_19_1237;BackwardMask;2020.2.8;120.44260236807746;
;m;033_o_m_n_a.jpg;neutral;8;30;f;030_o_f_h_a.jpg;happy;incongruent;9;mismatch;;140;150;;18;171;block2_Pilot_2;33;n_h;n_h_weak;;;;;0;1;1;1;0;63;63;63;;;;;;;;;1471.0078514000634;None;1472.4548564000288;1472.751100399997;1472.751100399997;1472.900361499982;1472.900361499982;1472.9411315000616;1472.9411315000616;None;8;0;1472.9411315000616;None;1474.4412319000112;None;['7'];[0.8094958999427035];1474.4412319000112;None;1.2536431999178603;;;;;;;Emoconpilot048;2022_Jan_19_1237;BackwardMask;2020.2.8;120.44260236807746;
;m;027_o_m_n_a.jpg;neutral;8;27;m;027_o_m_h_a.jpg;happy;incongruent;9;match;;140;150;;2;164;block2_Pilot_2;27;n_h;n_h_weak;;;;;0;1;1;1;0;64;64;64;;;;;;;;;1477.4414653000422;None;1478.8272353999782;1479.1177683999995;1479.1177683999995;1479.1338945999742;1479.1338945999742;1479.1746304000262;1479.1746304000262;None;None;0;1479.1746304000262;None;1480.6746675999602;None;['9'];[0.34396499989088625];1480.6746675999602;None;;;;;;;;Emoconpilot048;2022_Jan_19_1237;BackwardMask;2020.2.8;120.44260236807746;
;m;008_y_m_n_a.jpg;neutral;8;40;f;040_y_f_n_a.jpg;neutral;congruent;8;mismatch;;140;170;;1;238;block2_Pilot_2;8;n_n;n_n_strong;;;;;0;1;1;1;0;65;65;65;;;;;;;;;1483.675463499967;None;1485.67763619998;1485.96771430003;1485.96771430003;1485.9753601000411;1485.9753601000411;1486.0163348000497;1486.0163348000497;None;None;0;1486.0163348000497;None;1487.5165078999707;None;['9'];[0.27014129993040115];1487.5165078999707;None;;;;;;;;Emoconpilot048;2022_Jan_19_1237;BackwardMask;2020.2.8;120.44260236807746;
;f;040_y_f_h_a.jpg;happy;9;21;f;021_o_f_n_a.jpg;neutral;incongruent;8;match;;120;170;;18;239;block2_Pilot_2;40;h_n;h_n_strong;;;;;0;1;1;1;0;66;66;66;;;;;;;;;1490.5165923000313;None;1492.5166545000393;1492.8091553000268;1492.8091553000268;1492.959127200069;1492.959127200069;1493.0000145999948;1493.0000145999948;None;9;0;1493.0000145999948;None;1494.4999775000615;None;['7'];[0.3028415999142453];1494.4999775000615;None;0.8428007999900728;;;;;;;Emoconpilot048;2022_Jan_19_1237;BackwardMask;2020.2.8;120.44260236807746;
;f;021_o_f_s_a.jpg;sad;7;28;f;028_y_f_h_a.jpg;happy;incongruent;9;match;;130;150;;1;238;block2_Pilot_2;21;s_h;s_h_weak;;;;;0;1;1;1;0;67;67;67;;;;;;;;;1497.5003086000215;None;1499.4895535999676;1499.784226699965;1499.784226699965;1499.7925234000431;1499.7925234000431;1499.8332923999988;1499.8332923999988;None;None;0;1499.8332923999988;None;1501.3333530999953;None;['9'];[0.30941829993389547];1501.3333530999953;None;;;;;;;;Emoconpilot048;2022_Jan_19_1237;BackwardMask;2020.2.8;120.44260236807746;
;f;021_o_f_n_a.jpg;neutral;8;30;f;030_o_f_n_a.jpg;neutral;congruent;8;match;;140;170;;2;209;block2_Pilot_2;21;n_n;n_n_strong;;;;;0;1;1;1;0;68;68;68;;;;;;;;;1504.3344228999922;None;1506.1123249999946;1506.4016622999916;1506.4016622999916;1506.4178364999825;1506.4178364999825;1506.458687699982;1506.458687699982;None;None;0;1506.458687699982;None;1507.9584790000226;None;['8'];[0.32430510001722723];1507.9584790000226;None;;;;;;;;Emoconpilot048;2022_Jan_19_1237;BackwardMask;2020.2.8;120.44260236807746;
;f;040_y_f_s_a.jpg;sad;7;13;m;013_y_m_s_a.jpg;sad;congruent;7;mismatch;;130;160;;3;147;block2_Pilot_2;40;s_s;s_s_strong;;;;;0;1;1;1;0;69;69;69;;;;;;;;;1510.9592196999583;None;1512.1917225000216;1512.4846408000449;1512.4846408000449;1512.5096091000596;1512.5096091000596;1512.5502778000664;1512.5502778000664;None;None;0;1512.5502778000664;None;1514.050261400058;None;"['8', '7']";"[0.048450800008140504, 1.0404811999760568]";1514.050261400058;None;;;;;;;;Emoconpilot048;2022_Jan_19_1237;BackwardMask;2020.2.8;120.44260236807746;
;f;040_y_f_s_a.jpg;sad;7;21;f;021_o_f_h_a.jpg;happy;incongruent;9;match;;130;150;;3;172;block2_Pilot_2;40;s_h;s_h_strong;;;;;0;1;1;1;0;70;70;70;;;;;;;;;1517.050576300011;None;1518.4905249000294;1518.7846989000682;1518.7846989000682;1518.8096598000266;1518.8096598000266;1518.8504558000714;1518.8504558000714;None;8;0;1518.8504558000714;None;1520.3505306000588;None;None;;1520.3505306000588;None;0.6641907999292016;;;;;;;Emoconpilot048;2022_Jan_19_1237;BackwardMask;2020.2.8;120.44260236807746;
