Person;primeGender;prime;primeEmotion;corrAnsPrime;targetPerson;targetGender;target;targetEmotion;Cond;corrAnsTar;gender;condition;ID_primer;ID_target;PrimerTime;PrimerTime120;JitterTime;conditionsFile;primePerson;emotion_condition;Condition;example.thisRepN;example.thisTrialN;example.thisN;example.thisIndex;readinBlocks.thisRepN;readinBlocks.thisTrialN;readinBlocks.thisN;readinBlocks.thisIndex;trials.thisRepN;trials.thisTrialN;trials.thisN;trials.thisIndex;text_intro.started;text_intro.stopped;text_probe.started;text_probe.stopped;key_resp_2.keys;key_resp_2.rt;key_resp_2.started;key_resp_2.stopped;polygon_ISI.started;polygon_ISI.stopped;polygon.started;polygon.stopped;primerImage.started;primerImage.stopped;maskImage.started;maskImage.stopped;response.started;response.stopped;key_resp.keys;key_resp.corr;key_resp.started;key_resp.stopped;text.started;text.stopped;key_resp_Rating.keys;key_resp_Rating.rt;key_resp_Rating.started;key_resp_Rating.stopped;key_resp.rt;text_start.started;text_start.stopped;text_pause.started;text_pause.stopped;text_ende.started;text_ende.stopped;participant;date;expName;psychopyVersion;frameRate;
;;;;;;;;;;;;;;;;;;;;;;;;;;;;;;;;;;157.94186850000006;162.91101959999833;162.91101959999833;None;space;14.328270700001667;157.94186850000006;None;;;;;;;;;;;;;;;;;;;;;;;;;;;;Emoconpilot043;2022_Jan_07_1453;BackwardMask;2020.2.8;120.04571340811813;
2;f;1113_y_f_s_a.jpg;sad;7;1;m;1111_m_m_h_a.jpg;happy;incongruent;9;mix;s+h;130;150;1;2;148;;;;;0;0;0;0;;;;;;;;;;;;;;;;;172.30039419999957;None;173.56421769999906;173.87197719999858;173.87197719999858;173.90336659999957;173.90336659999957;173.93629449999935;173.93629449999935;None;None;0;173.93629449999935;None;175.43638889999966;None;"['7', '7']";"[0.17762539999966975, 2.7218255999996472]";175.43638889999966;None;;;;;;;;Emoconpilot043;2022_Jan_07_1453;BackwardMask;2020.2.8;120.04571340811813;
2;f;1111_m_m_h_a.jpg;happy;9;3;f;1113_y_f_s_a.jpg;sad;incongruent;7;mix;h+s;120;160;9;18;195;;;;;0;1;1;1;;;;;;;;;;;;;;;;;178.43561969999973;None;180.08231179999893;180.37783729999865;180.37783729999865;180.52741979999882;180.52741979999882;180.56812309999987;180.56812309999987;None;9;0;180.56812309999987;None;182.06829679999828;None;['7'];[1.5458798999989085];182.06829679999828;None;1.0861773000015091;;;;;;;Emoconpilot043;2022_Jan_07_1453;BackwardMask;2020.2.8;120.04571340811813;
2;f;1112_m_f_n_a.jpg;neutral;8;2;f;1112_m_f_n_a.jpg;neutral;congruent;8;match;n+n;140;170;9;18;134;;;;;0;2;2;2;;;;;;;;;;;;;;;;;185.068491;None;186.20708339999874;186.5029115999987;186.5029115999987;186.65247959999942;186.65247959999942;186.69334629999867;186.69334629999867;None;None;0;186.69334629999867;None;188.19344920000003;None;None;;188.19344920000003;None;;;;;;;;Emoconpilot043;2022_Jan_07_1453;BackwardMask;2020.2.8;120.04571340811813;
;m;033_o_m_h_a.jpg;happy;9;30;f;030_o_f_n_a.jpg;neutral;incongruent;8;mismatch;;120;170;;18;238;block1_Pilot_2;33;h_n;h_n_strong;;;;;0;0;0;0;0;0;0;0;;;;;;;;;192.2264013999993;None;194.22943069999928;194.5194036999983;194.5194036999983;194.66927959999884;194.66927959999884;194.71013719999974;194.71013719999974;None;9;0;194.71013719999974;None;196.21108829999866;None;['7'];[0.7871410000007018];196.21108829999866;None;1.048063700000057;191.19413059999897;None;None;None;;;Emoconpilot043;2022_Jan_07_1453;BackwardMask;2020.2.8;120.04571340811813;
;m;004_o_m_h_a.jpg;happy;9;12;f;012_o_f_h_a.jpg;happy;congruent;9;mismatch;;120;150;;2;218;block1_Pilot_2;4;h_h;h_h_weak;;;;;0;0;0;0;0;1;1;1;;;;;;;;;199.21102289999908;None;201.0844776999984;201.3782253999998;201.3782253999998;201.39449759999843;201.39449759999843;201.43528669999978;201.43528669999978;None;9;1;201.43528669999978;None;202.93534829999953;None;['8'];[1.4548673999997845];202.93534829999953;None;1.2509370000007038;;;;;;;Emoconpilot043;2022_Jan_07_1453;BackwardMask;2020.2.8;120.04571340811813;
;f;012_o_f_h_a.jpg;happy;9;33;m;033_o_m_h_a.jpg;happy;congruent;9;mismatch;;120;150;;2;140;block1_Pilot_2;12;h_h;h_h_weak;;;;;0;0;0;0;0;2;2;2;;;;;;;;;205.93642909999835;None;207.1110117999997;207.4030659;207.4030659;207.41955929999858;207.41955929999858;207.46038950000002;207.46038950000002;None;None;0;207.46038950000002;None;208.96067269999912;None;['8'];[1.9334222999987105];208.96067269999912;None;;;;;;;;Emoconpilot043;2022_Jan_07_1453;BackwardMask;2020.2.8;120.04571340811813;
;f;040_y_f_n_a.jpg;neutral;8;40;f;040_y_f_h_a.jpg;happy;incongruent;9;match;;140;150;;2;192;block1_Pilot_2;40;n_h;n_h_weak;;;;;0;0;0;0;0;3;3;3;;;;;;;;;211.96119199999885;None;213.60173319999922;213.8951737999996;213.8951737999996;213.9113140999998;213.9113140999998;213.95207969999865;213.95207969999865;None;8;0;213.95207969999865;None;215.45236359999944;None;['8'];[0.5618919000007736];215.45236359999944;None;1.2940785999999207;;;;;;;Emoconpilot043;2022_Jan_07_1453;BackwardMask;2020.2.8;120.04571340811813;
;m;013_y_m_s_a.jpg;sad;7;16;m;016_y_m_n_a.jpg;neutral;incongruent;8;match;;130;170;;3;155;block1_Pilot_2;13;s_n;s_n_weak;;;;;0;0;0;0;0;4;4;4;;;;;;;;;218.45375199999944;None;219.75493859999915;220.04490169999917;220.04490169999917;220.0697833999984;220.0697833999984;220.11057719999917;220.11057719999917;None;None;0;220.11057719999917;None;221.61092089999875;None;"['7', '8']";"[0.051202099999500206, 1.0670609000007971]";221.61092089999875;None;;;;;;;;Emoconpilot043;2022_Jan_07_1453;BackwardMask;2020.2.8;120.04571340811813;
;f;012_o_f_h_a.jpg;happy;9;21;f;021_o_f_h_a.jpg;happy;congruent;9;match;;120;150;;2;216;block1_Pilot_2;12;h_h;h_h_strong;;;;;0;0;0;0;0;5;5;5;;;;;;;;;224.6108482999989;None;226.41963209999994;226.7116274;226.7116274;226.72830459999932;226.72830459999932;226.76922119999836;226.76922119999836;None;9;1;226.76922119999836;None;228.2691520999997;None;['8'];[0.7690067000003182];228.2691520999997;None;0.7649803000003885;;;;;;;Emoconpilot043;2022_Jan_07_1453;BackwardMask;2020.2.8;120.04571340811813;
;f;040_y_f_s_a.jpg;sad;7;40;f;040_y_f_h_a.jpg;happy;incongruent;9;match;;130;150;;1;238;block1_Pilot_2;40;s_h;s_h_weak;;;;;0;0;0;0;0;6;6;6;;;;;;;;;231.27022429999852;None;233.26036879999992;233.5538592999983;233.5538592999983;233.56178409999848;233.56178409999848;233.60251619999872;233.60251619999872;None;None;0;233.60251619999872;None;235.1025551999992;None;['8'];[1.1516363999999157];235.1025551999992;None;;;;;;;;Emoconpilot043;2022_Jan_07_1453;BackwardMask;2020.2.8;120.04571340811813;
;m;033_o_m_n_a.jpg;neutral;8;27;m;027_o_m_n_a.jpg;neutral;congruent;8;match;;140;170;;18;238;block1_Pilot_2;33;n_n;n_n_weak;;;;;0;0;0;0;0;7;7;7;;;;;;;;;238.1027809999996;None;240.1334186999993;240.42901339999844;240.42901339999844;240.57843460000004;240.57843460000004;240.6193895999986;240.6193895999986;None;None;0;240.6193895999986;None;242.11944119999862;None;['7'];[1.478747299999668];242.11944119999862;None;;;;;;;;Emoconpilot043;2022_Jan_07_1453;BackwardMask;2020.2.8;120.04571340811813;
;f;040_y_f_h_a.jpg;happy;9;19;f;019_m_f_n_a.jpg;neutral;incongruent;8;match;;120;170;;1;238;block1_Pilot_2;40;h_n;h_n_strong;;;;;0;0;0;0;0;8;8;8;;;;;;;;;245.1202988999994;None;247.11286719999953;247.4037475999994;247.4037475999994;247.41206909999892;247.41206909999892;247.4530410999996;247.4530410999996;None;None;0;247.4530410999996;None;248.9529765999996;None;['9'];[1.3012524000005214];248.9529765999996;None;;;;;;;;Emoconpilot043;2022_Jan_07_1453;BackwardMask;2020.2.8;120.04571340811813;
;m;013_y_m_h_a.jpg;happy;9;12;f;012_o_f_s_a.jpg;sad;incongruent;7;mismatch;;120;160;;3;198;block1_Pilot_2;13;h_s;h_s_weak;;;;;0;0;0;0;0;9;9;9;;;;;;;;;251.95372209999914;None;253.64847179999924;253.9378687999997;253.9378687999997;253.96208279999883;253.96208279999883;254.00301939999918;254.00301939999918;None;9;0;254.00301939999918;None;255.5029719999984;None;['7'];[0.6792003999998997];255.5029719999984;None;1.131152199999633;;;;;;;Emoconpilot043;2022_Jan_07_1453;BackwardMask;2020.2.8;120.04571340811813;
;m;008_y_m_h_a.jpg;happy;9;4;m;004_o_m_n_a.jpg;neutral;incongruent;8;match;;120;170;;18;150;block1_Pilot_2;8;h_n;h_n_strong;;;;;0;0;0;0;0;10;10;10;;;;;;;;;258.5044541999996;None;259.7627367999994;260.05394969999907;260.05394969999907;260.2040055999987;260.2040055999987;260.2448784999997;260.2448784999997;None;9;0;260.2448784999997;None;261.74478069999896;None;['7'];[1.0534136999995098];261.74478069999896;None;1.041203200000382;;;;;;;Emoconpilot043;2022_Jan_07_1453;BackwardMask;2020.2.8;120.04571340811813;
;f;019_m_f_h_a.jpg;happy;9;27;m;027_o_m_s_a.jpg;sad;incongruent;7;mismatch;;120;160;;1;238;block1_Pilot_2;19;h_s;h_s_weak;;;;;0;0;0;0;0;11;11;11;;;;;;;;;264.74602459999915;None;266.7376029999996;267.0292954999986;267.0292954999986;267.03736299999946;267.03736299999946;267.07832569999846;267.07832569999846;None;None;0;267.07832569999846;None;268.5791937999984;None;['9'];[1.2189333999995142];268.5791937999984;None;;;;;;;;Emoconpilot043;2022_Jan_07_1453;BackwardMask;2020.2.8;120.04571340811813;
;m;016_y_m_s_a.jpg;sad;7;4;m;004_o_m_s_a.jpg;sad;congruent;7;match;;130;160;;18;142;block1_Pilot_2;16;s_s;s_s_strong;;;;;0;0;0;0;0;12;12;12;;;;;;;;;271.5794279999991;None;272.76907759999995;273.06269579999935;273.06269579999935;273.21245689999887;273.21245689999887;273.25358159999996;273.25358159999996;None;7;1;273.25358159999996;None;274.75334329999896;None;['7'];[1.0286617999990995];274.75334329999896;None;0.9204297999986011;;;;;;;Emoconpilot043;2022_Jan_07_1453;BackwardMask;2020.2.8;120.04571340811813;
;f;021_o_f_n_a.jpg;neutral;8;21;f;021_o_f_h_a.jpg;happy;incongruent;9;match;;140;150;;3;171;block1_Pilot_2;21;n_h;n_h_weak;;;;;0;0;0;0;0;13;13;13;;;;;;;;;277.75365259999853;None;279.2123488999987;279.50489709999965;279.50489709999965;279.5292802999993;279.5292802999993;279.5701608999989;279.5701608999989;None;None;0;279.5701608999989;None;281.0702085999983;None;['8'];[0.9119535000008909];281.0702085999983;None;;;;;;;;Emoconpilot043;2022_Jan_07_1453;BackwardMask;2020.2.8;120.04571340811813;
;f;012_o_f_h_a.jpg;happy;9;13;m;013_y_m_h_a.jpg;happy;congruent;9;mismatch;;120;150;;3;213;block1_Pilot_2;12;h_h;h_h_weak;;;;;0;0;0;0;0;14;14;14;;;;;;;;;284.0709255999991;None;285.85340019999967;286.14638119999836;286.14638119999836;286.17117189999954;286.17117189999954;286.2119598999998;286.2119598999998;None;9;1;286.2119598999998;None;287.7120827999988;None;['7'];[0.9740793000000849];287.7120827999988;None;0.8022512999996252;;;;;;;Emoconpilot043;2022_Jan_07_1453;BackwardMask;2020.2.8;120.04571340811813;
;f;021_o_f_s_a.jpg;sad;7;27;m;027_o_m_n_a.jpg;neutral;incongruent;8;mismatch;;130;170;;3;174;block1_Pilot_2;21;s_n;s_n_weak;;;;;0;0;0;0;0;15;15;15;;;;;;;;;290.71208879999904;None;292.16859179999847;292.46292959999846;292.46292959999846;292.48803829999997;292.48803829999997;292.5287223999985;292.5287223999985;None;None;0;292.5287223999985;None;294.02880729999924;None;['9'];[1.257284499999514];294.02880729999924;None;;;;;;;;Emoconpilot043;2022_Jan_07_1453;BackwardMask;2020.2.8;120.04571340811813;
;f;019_m_f_n_a.jpg;neutral;8;19;f;019_m_f_h_a.jpg;happy;incongruent;9;match;;140;150;;3;238;block1_Pilot_2;19;n_h;n_h_weak;;;;;0;0;0;0;0;16;16;16;;;;;;;;;297.0296366999992;None;299.0713005999987;299.3635488;299.3635488;299.3881455999999;299.3881455999999;299.4288248999983;299.4288248999983;None;7;0;299.4288248999983;None;300.92906609999955;None;['8'];[0.5250350999995135];300.92906609999955;None;1.0653311999994912;;;;;;;Emoconpilot043;2022_Jan_07_1453;BackwardMask;2020.2.8;120.04571340811813;
;f;028_y_f_n_a.jpg;neutral;8;30;f;030_o_f_s_a.jpg;sad;incongruent;7;match;;140;160;;18;219;block1_Pilot_2;28;n_s;n_s_weak;;;;;0;0;0;0;0;17;17;17;;;;;;;;;303.9306345999994;None;305.7748619999984;306.06365000000005;306.06365000000005;306.2131731999998;306.2131731999998;306.25392959999954;306.25392959999954;None;8;0;306.25392959999954;None;307.7542522999993;None;['8'];[1.955903899999612];307.7542522999993;None;1.432172000000719;;;;;;;Emoconpilot043;2022_Jan_07_1453;BackwardMask;2020.2.8;120.04571340811813;
;m;008_y_m_h_a.jpg;happy;9;8;m;008_y_m_s_a.jpg;sad;incongruent;7;match;;120;160;;3;176;block1_Pilot_2;8;h_s;h_s_weak;;;;;0;0;0;0;0;18;18;18;;;;;;;;;310.75510229999963;None;312.230219699999;312.52180899999985;312.52180899999985;312.5465385999996;312.5465385999996;312.5875705999988;312.5875705999988;None;9;0;312.5875705999988;None;314.08762679999927;None;['7'];[0.7263739999998506];314.08762679999927;None;0.8025692999999592;;;;;;;Emoconpilot043;2022_Jan_07_1453;BackwardMask;2020.2.8;120.04571340811813;
;f;019_m_f_h_a.jpg;happy;9;33;m;033_o_m_n_a.jpg;neutral;incongruent;8;mismatch;;120;170;;18;136;block1_Pilot_2;19;h_n;h_n_weak;;;;;0;0;0;0;0;19;19;19;;;;;;;;;317.08844319999844;None;318.22855999999956;318.52196189999995;318.52196189999995;318.6717598999985;318.6717598999985;318.712679799999;318.712679799999;None;9;0;318.712679799999;None;320.2125723999998;None;['7'];[0.7133811000003334];320.2125723999998;None;0.677518799999234;;;;;;;Emoconpilot043;2022_Jan_07_1453;BackwardMask;2020.2.8;120.04571340811813;
;m;013_y_m_n_a.jpg;neutral;8;12;f;012_o_f_s_a.jpg;sad;incongruent;7;mismatch;;140;160;;2;132;block1_Pilot_2;13;n_s;n_s_strong;;;;;0;0;0;0;0;20;20;20;;;;;;;;;323.2127389999987;None;324.3452879999986;324.63876809999965;324.63876809999965;324.65497419999883;324.65497419999883;324.6956143999996;324.6956143999996;None;None;0;324.6956143999996;None;326.19608100000005;None;"['7', '8']";"[0.0980598000005557, 1.2020928000001732]";326.19608100000005;None;;;;;;;;Emoconpilot043;2022_Jan_07_1453;BackwardMask;2020.2.8;120.04571340811813;
;f;040_y_f_s_a.jpg;sad;7;8;m;008_y_m_h_a.jpg;happy;incongruent;9;mismatch;;130;150;;2;175;block1_Pilot_2;40;s_h;s_h_weak;;;;;0;0;0;0;0;21;21;21;;;;;;;;;329.1972114;None;330.66240189999917;330.9554602999997;330.9554602999997;330.9718792999993;330.9718792999993;331.0126810999991;331.0126810999991;None;None;0;331.0126810999991;None;332.51288889999887;None;['9'];[2.0772226999997656];332.51288889999887;None;;;;;;;;Emoconpilot043;2022_Jan_07_1453;BackwardMask;2020.2.8;120.04571340811813;
;m;004_o_m_h_a.jpg;happy;9;40;f;040_y_f_s_a.jpg;sad;incongruent;7;mismatch;;120;160;;2;193;block1_Pilot_2;4;h_s;h_s_weak;;;;;0;0;0;0;0;22;22;22;;;;;;;;;335.5136361999994;None;337.1632811999989;337.45591669999885;337.45591669999885;337.4721094999986;337.4721094999986;337.5129879999986;337.5129879999986;None;9;0;337.5129879999986;None;339.01300319999973;None;None;;339.01300319999973;None;0.7970540999995137;;;;;;;Emoconpilot043;2022_Jan_07_1453;BackwardMask;2020.2.8;120.04571340811813;
;f;028_y_f_s_a.jpg;sad;7;13;m;013_y_m_n_a.jpg;neutral;incongruent;8;mismatch;;130;170;;2;126;block1_Pilot_2;28;s_n;s_n_weak;;;;;0;0;0;0;0;23;23;23;;;;;;;;;342.0133560999984;None;343.0747814999995;343.36408519999895;343.36408519999895;343.3803461999996;343.3803461999996;343.42137059999914;343.42137059999914;None;None;0;343.42137059999914;None;344.92156949999844;None;['9'];[0.5326238999987254];344.92156949999844;None;;;;;;;;Emoconpilot043;2022_Jan_07_1453;BackwardMask;2020.2.8;120.04571340811813;
;m;004_o_m_h_a.jpg;happy;9;40;f;040_y_f_n_a.jpg;neutral;incongruent;8;mismatch;;120;170;;3;146;block1_Pilot_2;4;h_n;h_n_strong;;;;;0;0;0;0;0;24;24;24;;;;;;;;;347.92167399999926;None;349.16042389999893;349.45627349999995;349.45627349999995;349.4804512999999;349.4804512999999;349.52152789999855;349.52152789999855;None;9;0;349.52152789999855;None;351.02167869999903;None;['7'];[1.3044492000008177];351.02167869999903;None;1.3726500000011583;;;;;;;Emoconpilot043;2022_Jan_07_1453;BackwardMask;2020.2.8;120.04571340811813;
;m;008_y_m_s_a.jpg;sad;7;30;f;030_o_f_n_a.jpg;neutral;incongruent;8;mismatch;;130;170;;3;132;block1_Pilot_2;8;s_n;s_n_strong;;;;;0;0;0;0;0;25;25;25;;;;;;;;;354.021670099999;None;355.1423156000001;355.4313026;355.4313026;355.45563389999916;355.45563389999916;355.49667989999944;355.49667989999944;None;7;0;355.49667989999944;None;356.99675189999834;None;['7'];[1.121458999999959];356.99675189999834;None;1.2694904999989376;;;;;;;Emoconpilot043;2022_Jan_07_1453;BackwardMask;2020.2.8;120.04571340811813;
;f;040_y_f_n_a.jpg;neutral;8;40;f;040_y_f_s_a.jpg;sad;incongruent;7;match;;140;160;;2;123;block1_Pilot_2;40;n_s;n_s_weak;;;;;0;0;0;0;0;26;26;26;;;;;;;;;359.9968027999985;None;361.04094039999836;361.3314545999983;361.3314545999983;361.3477692999986;361.3477692999986;361.3886186999989;361.3886186999989;None;None;0;361.3886186999989;None;362.8883350999986;None;"['8', '9']";"[0.14969030000065686, 2.221666200000982]";362.8883350999986;None;;;;;;;;Emoconpilot043;2022_Jan_07_1453;BackwardMask;2020.2.8;120.04571340811813;
;f;028_y_f_s_a.jpg;sad;7;27;m;027_o_m_s_a.jpg;sad;congruent;7;mismatch;;130;160;;3;159;block1_Pilot_2;28;s_s;s_s_weak;;;;;0;0;0;0;0;27;27;27;;;;;;;;;365.8896913999997;None;367.22486729999946;367.5146883999987;367.5146883999987;367.5394636000001;367.5394636000001;367.5802559999993;367.5802559999993;None;7;1;367.5802559999993;None;369.08091779999995;None;['7'];[0.8771896999987803];369.08091779999995;None;1.0978508999996848;;;;;;;Emoconpilot043;2022_Jan_07_1453;BackwardMask;2020.2.8;120.04571340811813;
;f;012_o_f_s_a.jpg;sad;7;27;m;027_o_m_s_a.jpg;sad;congruent;7;mismatch;;130;160;;18;166;block1_Pilot_2;12;s_s;s_s_weak;;;;;0;0;0;0;0;28;28;28;;;;;;;;;372.08116249999875;None;373.46950619999916;373.7646234999993;373.7646234999993;373.9144929999984;373.9144929999984;373.9553761999996;373.9553761999996;None;7;1;373.9553761999996;None;375.45567479999954;None;['7'];[1.206451999998535];375.45567479999954;None;0.8827593000005436;;;;;;;Emoconpilot043;2022_Jan_07_1453;BackwardMask;2020.2.8;120.04571340811813;
;f;028_y_f_n_a.jpg;neutral;8;28;f;028_y_f_h_a.jpg;happy;incongruent;9;match;;140;150;;2;186;block1_Pilot_2;28;n_h;n_h_weak;;;;;0;0;0;0;0;29;29;29;;;;;;;;;378.4569329999995;None;380.04759019999983;380.3400374999983;380.3400374999983;380.35645509999995;380.35645509999995;380.3971447999993;380.3971447999993;None;None;0;380.3971447999993;None;381.8971875999996;None;['9'];[1.068853599999784];381.8971875999996;None;;;;;;;;Emoconpilot043;2022_Jan_07_1453;BackwardMask;2020.2.8;120.04571340811813;
;m;027_o_m_n_a.jpg;neutral;8;16;m;016_y_m_n_a.jpg;neutral;congruent;8;match;;140;170;;2;188;block1_Pilot_2;27;n_n;n_n_weak;;;;;0;0;0;0;0;30;30;30;;;;;;;;;384.897993999999;None;386.4829439999994;386.7738109999991;386.7738109999991;386.7898647999991;386.7898647999991;386.83071219999874;386.83071219999874;None;None;0;386.83071219999874;None;388.330736599999;None;['9'];[0.8354619999990973];388.330736599999;None;;;;;;;;Emoconpilot043;2022_Jan_07_1453;BackwardMask;2020.2.8;120.04571340811813;
;f;012_o_f_s_a.jpg;sad;7;13;m;013_y_m_n_a.jpg;neutral;incongruent;8;mismatch;;130;170;;3;162;block1_Pilot_2;12;s_n;s_n_strong;;;;;0;0;0;0;0;31;31;31;;;;;;;;;391.3314812999997;None;392.6848850999995;392.9815949999993;392.9815949999993;393.0066489000001;393.0066489000001;393.04750519999834;393.04750519999834;None;None;0;393.04750519999834;None;394.5475975999998;None;['9'];[0.7144884999997885];394.5475975999998;None;;;;;;;;Emoconpilot043;2022_Jan_07_1453;BackwardMask;2020.2.8;120.04571340811813;
;f;012_o_f_s_a.jpg;sad;7;16;m;016_y_m_h_a.jpg;happy;incongruent;9;mismatch;;130;150;;1;238;block1_Pilot_2;12;s_h;s_h_strong;;;;;0;0;0;0;0;32;32;32;;;;;;;;;397.5485411999998;None;399.53341029999865;399.83180019999963;399.83180019999963;399.840075099999;399.840075099999;399.88090909999846;399.88090909999846;None;None;0;399.88090909999846;None;401.3808083999993;None;['9'];[0.7532882999985304];401.3808083999993;None;;;;;;;;Emoconpilot043;2022_Jan_07_1453;BackwardMask;2020.2.8;120.04571340811813;
;f;028_y_f_n_a.jpg;neutral;8;21;f;021_o_f_n_a.jpg;neutral;congruent;8;match;;140;170;;3;220;block1_Pilot_2;28;n_n;n_n_weak;;;;;0;0;0;0;0;33;33;33;;;;;;;;;404.381043899999;None;406.234681599999;406.52400229999876;406.52400229999876;406.54851959999905;406.54851959999905;406.58940919999986;406.58940919999986;None;8;1;406.58940919999986;None;408.0891079999983;None;['7'];[0.6690921999997954];408.0891079999983;None;1.2086598000005324;;;;;;;Emoconpilot043;2022_Jan_07_1453;BackwardMask;2020.2.8;120.04571340811813;
;f;040_y_f_h_a.jpg;happy;9;33;m;033_o_m_s_a.jpg;sad;incongruent;7;mismatch;;120;160;;2;194;block1_Pilot_2;40;h_s;h_s_weak;;;;;0;0;0;0;0;34;34;34;;;;;;;;;411.0902942999983;None;412.7143456999984;413.00717469999836;413.00717469999836;413.02368019999994;413.02368019999994;413.0645158999996;413.0645158999996;None;9;0;413.0645158999996;None;414.56456909999906;None;['7'];[0.7615423999995983];414.56456909999906;None;0.9574582000004739;;;;;;;Emoconpilot043;2022_Jan_07_1453;BackwardMask;2020.2.8;120.04571340811813;
;f;028_y_f_h_a.jpg;happy;9;8;m;008_y_m_n_a.jpg;neutral;incongruent;8;mismatch;;120;170;;3;162;block1_Pilot_2;28;h_n;h_n_weak;;;;;0;0;0;0;0;35;35;35;;;;;;;;;417.56567279999945;None;418.92484329999934;419.21564749999925;419.21564749999925;419.24047529999916;419.24047529999916;419.2814211999994;419.2814211999994;None;9;0;419.2814211999994;None;420.7813170999998;None;['7'];[0.7767557999995915];420.7813170999998;None;0.900572700000339;;;;;;;Emoconpilot043;2022_Jan_07_1453;BackwardMask;2020.2.8;120.04571340811813;
;m;013_y_m_n_a.jpg;neutral;8;27;m;027_o_m_n_a.jpg;neutral;congruent;8;match;;140;170;;2;126;block1_Pilot_2;13;n_n;n_n_strong;;;;;0;0;0;0;0;36;36;36;;;;;;;;;423.78305609999916;None;424.8855033;425.1745228999989;425.1745228999989;425.19049019999875;425.19049019999875;425.2314759000001;425.2314759000001;None;None;0;425.2314759000001;None;426.73151999999936;None;['9'];[0.9945325999997294];426.73151999999936;None;;;;;;;;Emoconpilot043;2022_Jan_07_1453;BackwardMask;2020.2.8;120.04571340811813;
;f;028_y_f_s_a.jpg;sad;7;19;f;019_m_f_n_a.jpg;neutral;incongruent;8;match;;130;170;;2;156;block1_Pilot_2;28;s_n;s_n_strong;;;;;0;0;0;0;0;37;37;37;;;;;;;;;429.732238999999;None;431.04215289999956;431.3324660999988;431.3324660999988;431.3490232999993;431.3490232999993;431.38988900000004;431.38988900000004;None;None;0;431.38988900000004;None;432.89005519999955;None;"['7', '7']";"[0.2599510999989434, 2.804017999998905]";432.89005519999955;None;;;;;;;;Emoconpilot043;2022_Jan_07_1453;BackwardMask;2020.2.8;120.04571340811813;
;m;016_y_m_s_a.jpg;sad;7;19;f;019_m_f_n_a.jpg;neutral;incongruent;8;mismatch;;130;170;;3;138;block1_Pilot_2;16;s_n;s_n_weak;;;;;0;0;0;0;0;38;38;38;;;;;;;;;435.8898780999989;None;437.0480826999992;437.3408837999996;437.3408837999996;437.36582719999933;437.36582719999933;437.4066899999998;437.4066899999998;None;7;0;437.4066899999998;None;438.9068000999996;None;['7'];[1.2353016000015486];438.9068000999996;None;1.2153890999998112;;;;;;;Emoconpilot043;2022_Jan_07_1453;BackwardMask;2020.2.8;120.04571340811813;
;m;033_o_m_s_a.jpg;sad;7;27;m;027_o_m_n_a.jpg;neutral;incongruent;8;match;;130;170;;3;120;block1_Pilot_2;33;s_n;s_n_strong;;;;;0;0;0;0;0;39;39;39;;;;;;;;;441.90763029999835;None;442.91475869999886;443.2080073999987;443.2080073999987;443.23265999999967;443.23265999999967;443.2734125999996;443.2734125999996;None;None;0;443.2734125999996;None;444.77340279999953;None;['9'];[1.3366819999992003];444.77340279999953;None;;;;;;;;Emoconpilot043;2022_Jan_07_1453;BackwardMask;2020.2.8;120.04571340811813;
;f;040_y_f_s_a.jpg;sad;7;33;m;033_o_m_n_a.jpg;neutral;incongruent;8;mismatch;;130;170;;1;238;block1_Pilot_2;40;s_n;s_n_weak;;;;;0;0;0;0;0;40;40;40;;;;;;;;;447.77448000000004;None;449.764464599999;450.0578913999998;450.0578913999998;450.0660046999983;450.0660046999983;450.10703189999913;450.10703189999913;None;None;0;450.10703189999913;None;451.6068878999995;None;['9'];[0.8551391999990301];451.6068878999995;None;;;;;;;;Emoconpilot043;2022_Jan_07_1453;BackwardMask;2020.2.8;120.04571340811813;
;f;021_o_f_n_a.jpg;neutral;8;19;f;019_m_f_s_a.jpg;sad;incongruent;7;match;;140;160;;1;238;block1_Pilot_2;21;n_s;n_s_strong;;;;;0;0;0;0;0;41;41;41;;;;;;;;;454.60792949999995;None;456.6120016999994;456.9085323999989;456.9085323999989;456.91603079999913;456.91603079999913;456.9571883999997;456.9571883999997;None;None;0;456.9571883999997;None;458.45721609999964;None;['9'];[0.5168565000003582];458.45721609999964;None;;;;;;;;Emoconpilot043;2022_Jan_07_1453;BackwardMask;2020.2.8;120.04571340811813;
;m;033_o_m_h_a.jpg;happy;9;27;m;027_o_m_h_a.jpg;happy;congruent;9;match;;120;150;;3;134;block1_Pilot_2;33;h_h;h_h_weak;;;;;0;0;0;0;0;42;42;42;;;;;;;;;461.45747129999836;None;462.58204099999966;462.8747736999994;462.8747736999994;462.8996836999995;462.8996836999995;462.94039599999996;462.94039599999996;None;9;1;462.94039599999996;None;464.4407395999988;None;['7'];[1.4532070999994176];464.4407395999988;None;1.321692500001518;;;;;;;Emoconpilot043;2022_Jan_07_1453;BackwardMask;2020.2.8;120.04571340811813;
;f;040_y_f_s_a.jpg;sad;7;4;m;004_o_m_h_a.jpg;happy;incongruent;9;mismatch;;130;150;;2;225;block1_Pilot_2;40;s_h;s_h_strong;;;;;0;0;0;0;0;43;43;43;;;;;;;;;467.4408543999998;None;469.32361909999963;469.6168267999983;469.6168267999983;469.63314179999907;469.63314179999907;469.6740504999998;469.6740504999998;None;8;0;469.6740504999998;None;471.1740659999996;None;['7'];[0.847936899999695];471.1740659999996;None;1.1881904000001668;;;;;;;Emoconpilot043;2022_Jan_07_1453;BackwardMask;2020.2.8;120.04571340811813;
;m;027_o_m_s_a.jpg;sad;7;21;f;021_o_f_n_a.jpg;neutral;incongruent;8;mismatch;;130;170;;18;238;block1_Pilot_2;27;s_n;s_n_weak;;;;;0;0;0;0;0;44;44;44;;;;;;;;;474.17499449999923;None;476.16539379999995;476.45843329999843;476.45843329999843;476.60823029999847;476.60823029999847;476.6491206999999;476.6491206999999;None;7;0;476.6491206999999;None;478.149193199999;None;['7'];[1.344785100000081];478.149193199999;None;0.8369605999996566;;;;;;;Emoconpilot043;2022_Jan_07_1453;BackwardMask;2020.2.8;120.04571340811813;
;m;016_y_m_h_a.jpg;happy;9;16;m;016_y_m_n_a.jpg;neutral;incongruent;8;match;;120;170;;3;202;block1_Pilot_2;16;h_n;h_n_weak;;;;;0;0;0;0;0;45;45;45;;;;;;;;;481.1498322999996;None;482.8408159999999;483.13339669999914;483.13339669999914;483.1584849999999;483.1584849999999;483.1992580999995;483.1992580999995;None;9;0;483.1992580999995;None;484.6991401999985;None;['7'];[0.9870115000012447];484.6991401999985;None;0.9267626000000746;;;;;;;Emoconpilot043;2022_Jan_07_1453;BackwardMask;2020.2.8;120.04571340811813;
;m;033_o_m_h_a.jpg;happy;9;13;m;013_y_m_n_a.jpg;neutral;incongruent;8;match;;120;170;;2;150;block1_Pilot_2;33;h_n;h_n_weak;;;;;0;0;0;0;0;46;46;46;;;;;;;;;487.7003675999986;None;488.9572515;489.2503878999996;489.2503878999996;489.2670068999996;489.2670068999996;489.3077459999986;489.3077459999986;None;None;0;489.3077459999986;None;490.80779789999906;None;['9'];[0.5742688999998791];490.80779789999906;None;;;;;;;;Emoconpilot043;2022_Jan_07_1453;BackwardMask;2020.2.8;120.04571340811813;
;f;012_o_f_n_a.jpg;neutral;8;16;m;016_y_m_n_a.jpg;neutral;congruent;8;mismatch;;140;170;;1;238;block1_Pilot_2;12;n_n;n_n_strong;;;;;0;0;0;0;0;47;47;47;;;;;;;;;493.80847059999905;None;495.81215299999894;496.10104109999884;496.10104109999884;496.1087703999983;496.1087703999983;496.1495572999993;496.1495572999993;None;None;0;496.1495572999993;None;497.6496286999991;None;['9'];[0.5724747000003845];497.6496286999991;None;;;;;;;;Emoconpilot043;2022_Jan_07_1453;BackwardMask;2020.2.8;120.04571340811813;
;f;040_y_f_n_a.jpg;neutral;8;30;f;030_o_f_h_a.jpg;happy;incongruent;9;match;;140;150;;2;194;block1_Pilot_2;40;n_h;n_h_strong;;;;;0;0;0;0;0;48;48;48;;;;;;;;;500.65035439999883;None;502.2852368999993;502.5761165999993;502.5761165999993;502.59222859999863;502.59222859999863;502.63291749999917;502.63291749999917;None;8;0;502.63291749999917;None;504.13292189999993;None;['7'];[0.7131160999997519];504.13292189999993;None;0.8931041000014375;;;;;;;Emoconpilot043;2022_Jan_07_1453;BackwardMask;2020.2.8;120.04571340811813;
;m;013_y_m_n_a.jpg;neutral;8;12;f;012_o_f_s_a.jpg;sad;incongruent;7;mismatch;;140;160;;18;238;block1_Pilot_2;13;n_s;n_s_weak;;;;;0;0;0;0;0;49;49;49;;;;;;;;;507.1340105999989;None;509.1358631999992;509.4261884999996;509.4261884999996;509.5756831999988;509.5756831999988;509.6164745999995;509.6164745999995;None;8;0;509.6164745999995;None;511.1164700999998;None;['7'];[0.865458000000217];511.1164700999998;None;0.9493987999994715;;;;;;;Emoconpilot043;2022_Jan_07_1453;BackwardMask;2020.2.8;120.04571340811813;
;f;012_o_f_h_a.jpg;happy;9;12;f;012_o_f_n_a.jpg;neutral;incongruent;8;match;;120;170;;2;125;block1_Pilot_2;12;h_n;h_n_strong;;;;;0;0;0;0;0;50;50;50;;;;;;;;;514.1164218999984;None;515.1660336999994;515.459208799999;515.459208799999;515.4756725999996;515.4756725999996;515.5166088999995;515.5166088999995;None;9;0;515.5166088999995;None;517.0165916999995;None;['7'];[0.45350299999881827];517.0165916999995;None;0.7612463000004936;;;;;;;Emoconpilot043;2022_Jan_07_1453;BackwardMask;2020.2.8;120.04571340811813;
;m;008_y_m_s_a.jpg;sad;7;19;f;019_m_f_s_a.jpg;sad;congruent;7;mismatch;;130;160;;2;202;block1_Pilot_2;8;s_s;s_s_strong;;;;;0;0;0;0;0;51;51;51;;;;;;;;;520.0168688999984;None;521.7446264999999;522.0348145999997;522.0348145999997;522.0508252999989;522.0508252999989;522.0917314999988;522.0917314999988;None;7;1;522.0917314999988;None;523.5919657999984;None;['7'];[0.7498272000011639];523.5919657999984;None;1.1703008000004047;;;;;;;Emoconpilot043;2022_Jan_07_1453;BackwardMask;2020.2.8;120.04571340811813;
;f;028_y_f_n_a.jpg;neutral;8;12;f;012_o_f_n_a.jpg;neutral;congruent;8;match;;140;170;;2;214;block1_Pilot_2;28;n_n;n_n_strong;;;;;0;0;0;0;0;52;52;52;;;;;;;;;526.5917947999988;None;528.3946942999992;528.684737399999;528.684737399999;528.7011003999996;528.7011003999996;528.7420215999991;528.7420215999991;None;8;1;528.7420215999991;None;530.2417584999985;None;['8'];[0.9321177000001626];530.2417584999985;None;1.3438145000000077;;;;;;;Emoconpilot043;2022_Jan_07_1453;BackwardMask;2020.2.8;120.04571340811813;
;m;027_o_m_h_a.jpg;happy;9;19;f;019_m_f_h_a.jpg;happy;congruent;9;mismatch;;120;150;;3;165;block1_Pilot_2;27;h_h;h_h_strong;;;;;0;0;0;0;0;53;53;53;;;;;;;;;533.2428882999993;None;534.6362155999996;534.9266566999995;534.9266566999995;534.9511090999986;534.9511090999986;534.992069599999;534.992069599999;None;9;1;534.992069599999;None;536.4918755999988;None;['7'];[0.698155099998985];536.4918755999988;None;0.9099163000009867;;;;;;;Emoconpilot043;2022_Jan_07_1453;BackwardMask;2020.2.8;120.04571340811813;
;m;008_y_m_s_a.jpg;sad;7;13;m;013_y_m_h_a.jpg;happy;incongruent;9;match;;130;150;;18;200;block1_Pilot_2;8;s_h;s_h_strong;;;;;0;0;0;0;0;54;54;54;;;;;;;;;539.4928041999992;None;541.1868723999996;541.4767625999993;541.4767625999993;541.6262009999991;541.6262009999991;541.6670304999989;541.6670304999989;None;7;0;541.6670304999989;None;543.1672365999984;None;['7'];[0.7506539000005432];543.1672365999984;None;0.7069788000007975;;;;;;;Emoconpilot043;2022_Jan_07_1453;BackwardMask;2020.2.8;120.04571340811813;
;f;030_o_f_n_a.jpg;neutral;8;28;f;028_y_f_s_a.jpg;sad;incongruent;7;match;;140;160;;18;238;block1_Pilot_2;30;n_s;n_s_weak;;;;;0;0;0;0;0;55;55;55;;;;;;;;;546.168065599999;None;548.1709070999987;548.4603293;548.4603293;548.6097105999997;548.6097105999997;548.6506227999998;548.6506227999998;None;7;1;548.6506227999998;None;550.1507401999988;None;['7'];[0.7432714000005944];550.1507401999988;None;0.6193777000007685;;;;;;;Emoconpilot043;2022_Jan_07_1453;BackwardMask;2020.2.8;120.04571340811813;
;f;019_m_f_h_a.jpg;happy;9;27;m;027_o_m_h_a.jpg;happy;congruent;9;mismatch;;120;150;;1;238;block1_Pilot_2;19;h_h;h_h_strong;;;;;0;0;0;0;0;56;56;56;;;;;;;;;553.150763399999;None;555.1422475999989;555.4350541999993;555.4350541999993;555.443235499999;555.443235499999;555.4840577999985;555.4840577999985;None;None;0;555.4840577999985;None;556.9842353999993;None;['9'];[0.3658469000001787];556.9842353999993;None;;;;;;;;Emoconpilot043;2022_Jan_07_1453;BackwardMask;2020.2.8;120.04571340811813;
;m;004_o_m_s_a.jpg;sad;7;4;m;004_o_m_h_a.jpg;happy;incongruent;9;match;;130;150;;18;155;block1_Pilot_2;4;s_h;s_h_weak;;;;;0;0;0;0;0;57;57;57;;;;;;;;;559.9851540999989;None;561.2825935000001;561.5769671999988;561.5769671999988;561.7266473999989;561.7266473999989;561.7673407999991;561.7673407999991;None;7;0;561.7673407999991;None;563.2681846999985;None;['7'];[1.8978099999985716];563.2681846999985;None;1.04679810000016;;;;;;;Emoconpilot043;2022_Jan_07_1453;BackwardMask;2020.2.8;120.04571340811813;
;f;021_o_f_s_a.jpg;sad;7;27;m;027_o_m_n_a.jpg;neutral;incongruent;8;mismatch;;130;170;;3;224;block1_Pilot_2;21;s_n;s_n_weak;;;;;0;0;0;0;0;58;58;58;;;;;;;;;566.2685612999994;None;568.1403701999989;568.4353697999995;568.4353697999995;568.4601773999984;568.4601773999984;568.5009381;568.5009381;None;None;0;568.5009381;None;570.0010752999988;None;['7'];[1.596878000000288];570.0010752999988;None;;;;;;;;Emoconpilot043;2022_Jan_07_1453;BackwardMask;2020.2.8;120.04571340811813;
;f;021_o_f_h_a.jpg;happy;9;27;m;027_o_m_n_a.jpg;neutral;incongruent;8;mismatch;;120;170;;2;147;block1_Pilot_2;21;h_n;h_n_strong;;;;;0;0;0;0;0;59;59;59;;;;;;;;;573.0018909999999;None;574.2481921999988;574.5441839999985;574.5441839999985;574.5602401999986;574.5602401999986;574.6011131999985;574.6011131999985;None;None;0;574.6011131999985;None;576.1013059999987;None;None;;576.1013059999987;None;;;;;;;;Emoconpilot043;2022_Jan_07_1453;BackwardMask;2020.2.8;120.04571340811813;
;f;040_y_f_n_a.jpg;neutral;8;13;m;013_y_m_h_a.jpg;happy;incongruent;9;mismatch;;140;150;;3;237;block1_Pilot_2;40;n_h;n_h_strong;;;;;0;0;0;0;0;60;60;60;;;;;;;;;579.1012668999992;None;581.0956176;581.3858323999993;581.3858323999993;581.410401699999;581.410401699999;581.451223;581.451223;None;8;0;581.451223;None;582.9513838999992;None;['7'];[1.1746932000005472];582.9513838999992;None;0.8105642999998963;;;;;;;Emoconpilot043;2022_Jan_07_1453;BackwardMask;2020.2.8;120.04571340811813;
;m;027_o_m_n_a.jpg;neutral;8;19;f;019_m_f_h_a.jpg;happy;incongruent;9;mismatch;;140;150;;3;199;block1_Pilot_2;27;n_h;n_h_strong;;;;;0;0;0;0;0;61;61;61;;;;;;;;;585.9519234999989;None;587.6291775999998;587.919518499999;587.919518499999;587.9440188999997;587.9440188999997;587.9846533999989;587.9846533999989;None;8;0;587.9846533999989;None;589.4846807999984;None;['7'];[0.6413234999999986];589.4846807999984;None;0.6131781999993109;;;;;;;Emoconpilot043;2022_Jan_07_1453;BackwardMask;2020.2.8;120.04571340811813;
;m;027_o_m_h_a.jpg;happy;9;21;f;021_o_f_s_a.jpg;sad;incongruent;7;mismatch;;120;160;;2;169;block1_Pilot_2;27;h_s;h_s_strong;;;;;0;0;0;0;0;62;62;62;;;;;;;;;592.4855857999992;None;593.9127527;594.2029605999996;594.2029605999996;594.2190300999991;594.2190300999991;594.2597724999996;594.2597724999996;None;9;0;594.2597724999996;None;595.7597251999996;None;['7'];[0.7421989999984362];595.7597251999996;None;0.690248499999143;;;;;;;Emoconpilot043;2022_Jan_07_1453;BackwardMask;2020.2.8;120.04571340811813;
;m;013_y_m_n_a.jpg;neutral;8;33;m;033_o_m_h_a.jpg;happy;incongruent;9;match;;140;150;;18;238;block1_Pilot_2;13;n_h;n_h_strong;;;;;0;0;0;0;0;63;63;63;;;;;;;;;598.7612765999984;None;600.7626781999988;601.0529764999992;601.0529764999992;601.2025739000001;601.2025739000001;601.2432777999984;601.2432777999984;None;8;0;601.2432777999984;None;602.7434590999983;None;['7'];[1.0865208000013808];602.7434590999983;None;0.47476929999902495;;;;;;;Emoconpilot043;2022_Jan_07_1453;BackwardMask;2020.2.8;120.04571340811813;
;m;033_o_m_n_a.jpg;neutral;8;30;f;030_o_f_s_a.jpg;sad;incongruent;7;mismatch;;140;160;;1;238;block1_Pilot_2;33;n_s;n_s_weak;;;;;0;0;0;0;0;64;64;64;;;;;;;;;605.7441973999994;None;607.7459733999985;608.0365797999984;608.0365797999984;608.0443945999996;608.0443945999996;608.0850866000001;608.0850866000001;None;None;0;608.0850866000001;None;609.585376699999;None;['9'];[0.4286452999986068];609.585376699999;None;;;;;;;;Emoconpilot043;2022_Jan_07_1453;BackwardMask;2020.2.8;120.04571340811813;
;m;033_o_m_s_a.jpg;sad;7;4;m;004_o_m_s_a.jpg;sad;congruent;7;match;;130;160;;18;146;block1_Pilot_2;33;s_s;s_s_weak;;;;;0;0;0;0;0;65;65;65;;;;;;;;;612.5860161;None;613.8102144999993;614.102943599999;614.102943599999;614.2527145999993;614.2527145999993;614.2935713999996;614.2935713999996;None;8;0;614.2935713999996;None;615.7935988999998;None;['7'];[1.452487000000474];615.7935988999998;None;1.472486000000572;;;;;;;Emoconpilot043;2022_Jan_07_1453;BackwardMask;2020.2.8;120.04571340811813;
;m;016_y_m_s_a.jpg;sad;7;28;f;028_y_f_h_a.jpg;happy;incongruent;9;mismatch;;130;150;;18;238;block1_Pilot_2;16;s_h;s_h_strong;;;;;0;0;0;0;0;66;66;66;;;;;;;;;618.795615699999;None;620.7852665999999;621.078121999999;621.078121999999;621.2278884999996;621.2278884999996;621.2686639999993;621.2686639999993;None;7;0;621.2686639999993;None;622.768724399999;None;['7'];[1.3012496000010287];622.768724399999;None;0.8813934000008885;;;;;;;Emoconpilot043;2022_Jan_07_1453;BackwardMask;2020.2.8;120.04571340811813;
;f;030_o_f_h_a.jpg;happy;9;28;f;028_y_f_h_a.jpg;happy;congruent;9;match;;120;150;;3;234;block1_Pilot_2;30;h_h;h_h_weak;;;;;0;0;0;0;0;67;67;67;;;;;;;;;625.7695387999993;None;627.7528317999986;628.0452326999985;628.0452326999985;628.0696749999988;628.0696749999988;628.1105790999991;628.1105790999991;None;9;1;628.1105790999991;None;629.6104357999993;None;['7'];[0.44332030000077793];629.6104357999993;None;0.687228499999037;;;;;;;Emoconpilot043;2022_Jan_07_1453;BackwardMask;2020.2.8;120.04571340811813;
;m;013_y_m_h_a.jpg;happy;9;4;m;004_o_m_h_a.jpg;happy;congruent;9;match;;120;150;;2;141;block1_Pilot_2;13;h_h;h_h_strong;;;;;0;0;0;0;0;68;68;68;;;;;;;;;632.6113980999999;None;633.8050625999986;634.0952288999997;634.0952288999997;634.1113219999988;634.1113219999988;634.1522655999997;634.1522655999997;None;9;1;634.1522655999997;None;635.6523089999991;None;['7'];[0.33750440000039816];635.6523089999991;None;0.7817498999993404;;;;;;;Emoconpilot043;2022_Jan_07_1453;BackwardMask;2020.2.8;120.04571340811813;
;f;028_y_f_s_a.jpg;sad;7;8;m;008_y_m_s_a.jpg;sad;congruent;7;mismatch;;130;160;;1;238;block1_Pilot_2;28;s_s;s_s_strong;;;;;0;0;0;0;0;69;69;69;;;;;;;;;638.6532789999983;None;640.6476432;640.9367690999989;640.9367690999989;640.9448616999998;640.9448616999998;640.9859715999992;640.9859715999992;None;None;0;640.9859715999992;None;642.4856729999992;None;['9'];[0.6562967000008939];642.4856729999992;None;;;;;;;;Emoconpilot043;2022_Jan_07_1453;BackwardMask;2020.2.8;120.04571340811813;
;f;028_y_f_s_a.jpg;sad;7;30;f;030_o_f_h_a.jpg;happy;incongruent;9;match;;130;150;;2;199;block1_Pilot_2;28;s_h;s_h_weak;;;;;0;0;0;0;0;70;70;70;;;;;;;;;645.4859734999991;None;647.1542814999993;647.4453045999999;647.4453045999999;647.4616915999995;647.4616915999995;647.5026803000001;647.5026803000001;None;None;0;647.5026803000001;None;649.0026417999998;None;['9'];[1.4673311999995349];649.0026417999998;None;;;;;;;;Emoconpilot043;2022_Jan_07_1453;BackwardMask;2020.2.8;120.04571340811813;
;m;008_y_m_h_a.jpg;happy;9;21;f;021_o_f_n_a.jpg;neutral;incongruent;8;mismatch;;120;170;;2;137;block1_Pilot_2;8;h_n;h_n_weak;;;;;0;0;0;0;0;71;71;71;;;;;;;;;652.0035251999998;None;653.1527338999986;653.4453591999991;653.4453591999991;653.4617798999989;653.4617798999989;653.5027675999991;653.5027675999991;None;9;0;653.5027675999991;None;655.0026189;None;['7'];[0.44338219999917783];655.0026189;None;0.8071670999997878;;;;;;;Emoconpilot043;2022_Jan_07_1453;BackwardMask;2020.2.8;120.04571340811813;
;f;012_o_f_n_a.jpg;neutral;8;8;m;008_y_m_s_a.jpg;sad;incongruent;7;mismatch;;140;160;;2;208;block1_Pilot_2;12;n_s;n_s_weak;;;;;0;0;0;0;0;72;72;72;;;;;;;;;658.0036247999997;None;659.7924379999986;660.0876555999985;660.0876555999985;660.1035400000001;660.1035400000001;660.1444870999985;660.1444870999985;None;None;0;660.1444870999985;None;661.6447064999993;None;['9'];[1.2013824000005116];661.6447064999993;None;;;;;;;;Emoconpilot043;2022_Jan_07_1453;BackwardMask;2020.2.8;120.04571340811813;
;m;016_y_m_n_a.jpg;neutral;8;8;m;008_y_m_n_a.jpg;neutral;congruent;8;match;;140;170;;3;211;block1_Pilot_2;16;n_n;n_n_strong;;;;;0;0;0;0;0;73;73;73;;;;;;;;;664.6445577999984;None;666.4223684999997;666.7126421999983;666.7126421999983;666.7371796999996;666.7371796999996;666.7779962999994;666.7779962999994;None;8;1;666.7779962999994;None;668.2778689999996;None;['7'];[0.44013819999963744];668.2778689999996;None;0.6998689000010927;;;;;;;Emoconpilot043;2022_Jan_07_1453;BackwardMask;2020.2.8;120.04571340811813;
;m;016_y_m_h_a.jpg;happy;9;13;m;013_y_m_s_a.jpg;sad;incongruent;7;match;;120;160;;3;138;block1_Pilot_2;16;h_s;h_s_weak;;;;;0;0;0;0;0;74;74;74;;;;;;;;;671.2790240999984;None;672.4363960999999;672.7289996;672.7289996;672.7540578999997;672.7540578999997;672.7948218999991;672.7948218999991;None;9;0;672.7948218999991;None;674.2947654;None;['7'];[0.471185800000967];674.2947654;None;0.7150395999997272;;;;;;;Emoconpilot043;2022_Jan_07_1453;BackwardMask;2020.2.8;120.04571340811813;
;m;016_y_m_n_a.jpg;neutral;8;19;f;019_m_f_s_a.jpg;sad;incongruent;7;mismatch;;140;160;;2;185;block1_Pilot_2;16;n_s;n_s_strong;;;;;0;0;0;0;0;75;75;75;;;;;;;;;677.2950340999996;None;678.8577192999983;679.1463596999984;679.1463596999984;679.1623677999996;679.1623677999996;679.2034398999986;679.2034398999986;None;8;0;679.2034398999986;None;680.7034085999985;None;['7'];[0.6703766000009637];680.7034085999985;None;0.9624758999998448;;;;;;;Emoconpilot043;2022_Jan_07_1453;BackwardMask;2020.2.8;120.04571340811813;
;m;027_o_m_s_a.jpg;sad;7;8;m;008_y_m_s_a.jpg;sad;congruent;7;match;;130;160;;1;238;block1_Pilot_2;27;s_s;s_s_strong;;;;;0;0;0;0;0;76;76;76;;;;;;;;;683.7042776999988;None;685.6946431999986;685.9875917999998;685.9875917999998;685.9958066999989;685.9958066999989;686.0367158999998;686.0367158999998;None;None;0;686.0367158999998;None;687.5367478999997;None;['9'];[0.42111669999940204];687.5367478999997;None;;;;;;;;Emoconpilot043;2022_Jan_07_1453;BackwardMask;2020.2.8;120.04571340811813;
;f;019_m_f_n_a.jpg;neutral;8;27;m;027_o_m_n_a.jpg;neutral;congruent;8;mismatch;;140;170;;3;186;block1_Pilot_2;19;n_n;n_n_strong;;;;;0;0;0;0;0;77;77;77;;;;;;;;;690.5373231999984;None;692.1128518999994;692.4048030999984;692.4048030999984;692.4292965999994;692.4292965999994;692.4699882999994;692.4699882999994;None;8;1;692.4699882999994;None;693.9705517999992;None;['7'];[1.411368400000356];693.9705517999992;None;0.6798813000004884;;;;;;;Emoconpilot043;2022_Jan_07_1453;BackwardMask;2020.2.8;120.04571340811813;
;m;004_o_m_s_a.jpg;sad;7;12;f;012_o_f_s_a.jpg;sad;congruent;7;mismatch;;130;160;;1;238;block1_Pilot_2;4;s_s;s_s_strong;;;;;0;0;0;0;0;78;78;78;;;;;;;;;696.9709998999988;None;698.9628525999997;699.2547031999984;699.2547031999984;699.2627825999989;699.2627825999989;699.3035805999989;699.3035805999989;None;None;0;699.3035805999989;None;700.8039312000001;None;['9'];[0.32994959999996354];700.8039312000001;None;;;;;;;;Emoconpilot043;2022_Jan_07_1453;BackwardMask;2020.2.8;120.04571340811813;
;f;019_m_f_n_a.jpg;neutral;8;13;m;013_y_m_s_a.jpg;sad;incongruent;7;mismatch;;140;160;;3;207;block1_Pilot_2;19;n_s;n_s_strong;;;;;0;0;0;0;0;79;79;79;;;;;;;;;703.8040870999994;None;705.5499920999991;705.8467739999996;705.8467739999996;705.8712889999988;705.8712889999988;705.9121742999996;705.9121742999996;None;8;0;705.9121742999996;None;707.4121029999988;None;['7'];[0.8255929999995715];707.4121029999988;None;0.8376300999989326;;;;;;;Emoconpilot043;2022_Jan_07_1453;BackwardMask;2020.2.8;120.04571340811813;
;m;027_o_m_h_a.jpg;happy;9;33;m;033_o_m_h_a.jpg;happy;congruent;9;match;;120;150;;1;238;block1_Pilot_2;27;h_h;h_h_strong;;;;;0;0;0;0;0;80;80;80;;;;;;;;;710.4127034999983;None;712.4148415999989;712.7053586999991;712.7053586999991;712.7130010000001;712.7130010000001;712.7538041999996;712.7538041999996;None;None;0;712.7538041999996;None;714.2540628999996;None;['8'];[2.5437313000002177];714.2540628999996;None;;;;;;;;Emoconpilot043;2022_Jan_07_1453;BackwardMask;2020.2.8;120.04571340811813;
;m;027_o_m_h_a.jpg;happy;9;21;f;021_o_f_s_a.jpg;sad;incongruent;7;mismatch;;120;160;;1;238;block1_Pilot_2;27;h_s;h_s_weak;;;;;0;0;0;0;0;81;81;81;;;;;;;;;717.2548629999983;None;719.2564878999983;719.5472802999993;719.5472802999993;719.554795;719.554795;719.5957948999985;719.5957948999985;None;None;0;719.5957948999985;None;721.0958457999986;None;"['8', '7']";"[0.12612190000072587, 1.4619526000005862]";721.0958457999986;None;;;;;;;;Emoconpilot043;2022_Jan_07_1453;BackwardMask;2020.2.8;120.04571340811813;
;m;033_o_m_s_a.jpg;sad;7;40;f;040_y_f_n_a.jpg;neutral;incongruent;8;mismatch;;130;170;;3;146;block1_Pilot_2;33;s_n;s_n_weak;;;;;0;0;0;0;0;82;82;82;;;;;;;;;724.0967301000001;None;725.3205914999999;725.6135383000001;725.6135383000001;725.6383902999987;725.6383902999987;725.6791298999997;725.6791298999997;None;8;1;725.6791298999997;None;727.1793021999983;None;['7'];[0.6584117000002152];727.1793021999983;None;1.3988750999997137;;;;;;;Emoconpilot043;2022_Jan_07_1453;BackwardMask;2020.2.8;120.04571340811813;
;m;008_y_m_h_a.jpg;happy;9;4;m;004_o_m_s_a.jpg;sad;incongruent;7;match;;120;160;;2;225;block1_Pilot_2;8;h_s;h_s_weak;;;;;0;0;0;0;0;83;83;83;;;;;;;;;730.1792584999985;None;732.0623872999986;732.3553290999989;732.3553290999989;732.3717295999995;732.3717295999995;732.4126081999984;732.4126081999984;None;None;0;732.4126081999984;None;733.9133128999983;None;['7'];[1.4606500000008964];733.9133128999983;None;;;;;;;;Emoconpilot043;2022_Jan_07_1453;BackwardMask;2020.2.8;120.04571340811813;
;f;012_o_f_n_a.jpg;neutral;8;4;m;004_o_m_s_a.jpg;sad;incongruent;7;mismatch;;140;160;;3;150;block1_Pilot_2;12;n_s;n_s_strong;;;;;0;0;0;0;0;84;84;84;;;;;;;;;736.913811299999;None;738.1834261999993;738.4725333999995;738.4725333999995;738.4969228999998;738.4969228999998;738.5376628999984;738.5376628999984;None;8;0;738.5376628999984;None;740.0376920999988;None;['7'];[2.6562240999992355];740.0376920999988;None;0.6042448000007425;;;;;;;Emoconpilot043;2022_Jan_07_1453;BackwardMask;2020.2.8;120.04571340811813;
;f;021_o_f_s_a.jpg;sad;7;40;f;040_y_f_n_a.jpg;neutral;incongruent;8;match;;130;170;;2;156;block1_Pilot_2;21;s_n;s_n_strong;;;;;0;0;0;0;0;85;85;85;;;;;;;;;743.0378509999991;None;744.3436020999998;744.6387079999986;744.6387079999986;744.6554446999999;744.6554446999999;744.6961948999997;744.6961948999997;None;None;0;744.6961948999997;None;746.196330499999;None;['7'];[1.4255131999998412];746.196330499999;None;;;;;;;;Emoconpilot043;2022_Jan_07_1453;BackwardMask;2020.2.8;120.04571340811813;
;m;004_o_m_n_a.jpg;neutral;8;13;m;013_y_m_n_a.jpg;neutral;congruent;8;match;;140;170;;2;225;block1_Pilot_2;4;n_n;n_n_strong;;;;;0;0;0;0;0;86;86;86;;;;;;;;;749.1962236999989;None;751.1041642;751.3978429999988;751.3978429999988;751.4137060999983;751.4137060999983;751.4546369;751.4546369;None;8;1;751.4546369;None;752.9546701999989;None;['7'];[1.0112613000001147];752.9546701999989;None;0.6632723000002443;;;;;;;Emoconpilot043;2022_Jan_07_1453;BackwardMask;2020.2.8;120.04571340811813;
;m;016_y_m_n_a.jpg;neutral;8;16;m;016_y_m_h_a.jpg;happy;incongruent;9;match;;140;150;;18;193;block1_Pilot_2;16;n_h;n_h_strong;;;;;0;0;0;0;0;87;87;87;;;;;;;;;755.9554253999995;None;757.5835741999999;757.8729681999994;757.8729681999994;758.0224417999998;758.0224417999998;758.0631795999998;758.0631795999998;None;8;0;758.0631795999998;None;759.5631638999985;None;['7'];[0.41059669999958714];759.5631638999985;None;0.8466554999995424;;;;;;;Emoconpilot043;2022_Jan_07_1453;BackwardMask;2020.2.8;120.04571340811813;
;m;033_o_m_h_a.jpg;happy;9;4;m;004_o_m_h_a.jpg;happy;congruent;9;match;;120;150;;2;195;block1_Pilot_2;33;h_h;h_h_strong;;;;;0;0;0;0;0;88;88;88;;;;;;;;;762.5633012999988;None;764.1966567999989;764.4891119999993;764.4891119999993;764.5057618999999;764.5057618999999;764.5464764999997;764.5464764999997;None;9;1;764.5464764999997;None;766.0467265999996;None;['7'];[0.3192704000011872];766.0467265999996;None;0.755382199999076;;;;;;;Emoconpilot043;2022_Jan_07_1453;BackwardMask;2020.2.8;120.04571340811813;
;m;027_o_m_h_a.jpg;happy;9;16;m;016_y_m_h_a.jpg;happy;congruent;9;match;;120;150;;3;209;block1_Pilot_2;27;h_h;h_h_weak;;;;;0;0;0;0;0;89;89;89;;;;;;;;;769.0467094999985;None;770.8097741999991;771.1065997999995;771.1065997999995;771.1309585999988;771.1309585999988;771.171764499999;771.171764499999;None;9;1;771.171764499999;None;772.6718210999989;None;['7'];[0.3340939999998227];772.6718210999989;None;0.84207029999925;;;;;;;Emoconpilot043;2022_Jan_07_1453;BackwardMask;2020.2.8;120.04571340811813;
;m;033_o_m_s_a.jpg;sad;7;16;m;016_y_m_s_a.jpg;sad;congruent;7;match;;130;160;;3;128;block1_Pilot_2;33;s_s;s_s_strong;;;;;0;0;0;0;0;90;90;90;;;;;;;;;775.6736735999984;None;776.7468289999997;777.0393313999994;777.0393313999994;777.0642371999984;777.0642371999984;777.1051804999988;777.1051804999988;None;8;0;777.1051804999988;None;778.605329;None;['7'];[0.3046742999995331];778.605329;None;0.9965136999999231;;;;;;;Emoconpilot043;2022_Jan_07_1453;BackwardMask;2020.2.8;120.04571340811813;
;f;021_o_f_s_a.jpg;sad;7;30;f;030_o_f_s_a.jpg;sad;congruent;7;match;;130;160;;1;238;block1_Pilot_2;21;s_s;s_s_strong;;;;;0;0;0;0;0;91;91;91;;;;;;;;;781.6062309999998;None;783.5950178999992;783.8895011999994;783.8895011999994;783.8977866999994;783.8977866999994;783.9388507999993;783.9388507999993;None;9;0;783.9388507999993;None;785.4392205999993;None;['7'];[0.6784164000000601];785.4392205999993;None;1.3150023999987752;;;;;;;Emoconpilot043;2022_Jan_07_1453;BackwardMask;2020.2.8;120.04571340811813;
;m;033_o_m_n_a.jpg;neutral;8;28;f;028_y_f_s_a.jpg;sad;incongruent;7;mismatch;;140;160;;18;166;block1_Pilot_2;33;n_s;n_s_strong;;;;;0;0;0;0;0;92;92;92;;;;;;;;;788.4405859999988;None;789.8487448999986;790.1401000999995;790.1401000999995;790.2895762999997;790.2895762999997;790.3304367000001;790.3304367000001;None;8;0;790.3304367000001;None;791.8317282999997;None;['7'];[0.35015000000021246];791.8317282999997;None;0.5554885000001377;;;;;;;Emoconpilot043;2022_Jan_07_1453;BackwardMask;2020.2.8;120.04571340811813;
;f;019_m_f_n_a.jpg;neutral;8;30;f;030_o_f_n_a.jpg;neutral;congruent;8;match;;140;170;;18;228;block1_Pilot_2;19;n_n;n_n_weak;;;;;0;0;0;0;0;93;93;93;;;;;;;;;794.8312252999986;None;796.7502815999997;797.0402098999984;797.0402098999984;797.1897212999993;797.1897212999993;797.2305558999997;797.2305558999997;None;8;1;797.2305558999997;None;798.7314161999984;None;['7'];[0.45056189999922935];798.7314161999984;None;0.6872103000005154;;;;;;;Emoconpilot043;2022_Jan_07_1453;BackwardMask;2020.2.8;120.04571340811813;
;m;008_y_m_s_a.jpg;sad;7;12;f;012_o_f_h_a.jpg;happy;incongruent;9;mismatch;;130;150;;3;130;block1_Pilot_2;8;s_h;s_h_weak;;;;;0;0;0;0;0;94;94;94;;;;;;;;;801.7317414999998;None;802.8334888999998;803.1238283999992;803.1238283999992;803.1481437999992;803.1481437999992;803.1890756999983;803.1890756999983;None;7;0;803.1890756999983;None;804.6889220999983;None;['7'];[0.4609605999994528];804.6889220999983;None;1.0567790999994031;;;;;;;Emoconpilot043;2022_Jan_07_1453;BackwardMask;2020.2.8;120.04571340811813;
;m;016_y_m_n_a.jpg;neutral;8;28;f;028_y_f_n_a.jpg;neutral;congruent;8;mismatch;;140;170;;18;189;block1_Pilot_2;16;n_n;n_n_strong;;;;;0;0;0;0;0;95;95;95;;;;;;;;;807.6904593999989;None;809.2828278999987;809.5738932999993;809.5738932999993;809.7232132999998;809.7232132999998;809.7641783999989;809.7641783999989;None;8;1;809.7641783999989;None;811.2641715999998;None;['7'];[0.32563480000135314];811.2641715999998;None;0.6736841000001732;;;;;;;Emoconpilot043;2022_Jan_07_1453;BackwardMask;2020.2.8;120.04571340811813;
;f;012_o_f_s_a.jpg;sad;7;16;m;016_y_m_h_a.jpg;happy;incongruent;9;mismatch;;130;150;;3;238;block1_Pilot_2;12;s_h;s_h_strong;;;;;0;0;0;0;0;96;96;96;;;;;;;;;814.2652453999999;None;816.2517628999994;816.5485501999992;816.5485501999992;816.5734982999984;816.5734982999984;816.6142424999998;816.6142424999998;None;7;0;816.6142424999998;None;818.1142513999985;None;['7'];[0.731474000000162];818.1142513999985;None;1.167566000000079;;;;;;;Emoconpilot043;2022_Jan_07_1453;BackwardMask;2020.2.8;120.04571340811813;
;m;013_y_m_h_a.jpg;happy;9;27;m;027_o_m_h_a.jpg;happy;congruent;9;match;;120;150;;18;238;block1_Pilot_2;13;h_h;h_h_strong;;;;;0;0;0;0;0;97;97;97;;;;;;;;;821.1155562999993;None;823.1185668999988;823.4074896999991;823.4074896999991;823.5569020999992;823.5569020999992;823.597733999999;823.597733999999;None;9;1;823.597733999999;None;825.0984700999998;None;['7'];[0.32346979999965697];825.0984700999998;None;0.6081513999997696;;;;;;;Emoconpilot043;2022_Jan_07_1453;BackwardMask;2020.2.8;120.04571340811813;
;m;016_y_m_s_a.jpg;sad;7;33;m;033_o_m_n_a.jpg;neutral;incongruent;8;match;;130;170;;1;238;block1_Pilot_2;16;s_n;s_n_weak;;;;;0;0;0;0;0;98;98;98;;;;;;;;;828.0986497999984;None;830.0894374999989;830.3822833999984;830.3822833999984;830.3903473999999;830.3903473999999;830.4313472999984;830.4313472999984;None;None;0;830.4313472999984;None;831.9311074999987;None;['8'];[1.2748324000003777];831.9311074999987;None;;;;;;;;Emoconpilot043;2022_Jan_07_1453;BackwardMask;2020.2.8;120.04571340811813;
;m;008_y_m_n_a.jpg;neutral;8;30;f;030_o_f_n_a.jpg;neutral;congruent;8;mismatch;;140;170;;1;238;block1_Pilot_2;8;n_n;n_n_weak;;;;;0;0;0;0;0;99;99;99;;;;;;;;;834.932374;None;836.9354651999984;837.2244032999988;837.2244032999988;837.2321355999993;837.2321355999993;837.2731264999984;837.2731264999984;None;None;0;837.2731264999984;None;838.7732638999987;None;['8'];[0.4964094999995723];838.7732638999987;None;;;;;;;;Emoconpilot043;2022_Jan_07_1453;BackwardMask;2020.2.8;120.04571340811813;
;m;008_y_m_s_a.jpg;sad;7;30;f;030_o_f_s_a.jpg;sad;congruent;7;mismatch;;130;160;;2;133;block1_Pilot_2;8;s_s;s_s_weak;;;;;0;0;0;0;0;100;100;100;;;;;;;;;841.7742194999992;None;842.9007225999994;843.1912596999991;843.1912596999991;843.2075427;843.2075427;843.2481012999997;843.2481012999997;None;7;1;843.2481012999997;None;844.7486716999992;None;['7'];[1.0412393999995402];844.7486716999992;None;1.3019157999988238;;;;;;;Emoconpilot043;2022_Jan_07_1453;BackwardMask;2020.2.8;120.04571340811813;
;f;040_y_f_n_a.jpg;neutral;8;30;f;030_o_f_s_a.jpg;sad;incongruent;7;match;;140;160;;3;197;block1_Pilot_2;40;n_s;n_s_strong;;;;;0;0;0;0;0;101;101;101;;;;;;;;;847.7483158999985;None;849.4089422999987;849.6997090999994;849.6997090999994;849.7243461999988;849.7243461999988;849.7648301999998;849.7648301999998;None;None;0;849.7648301999998;None;851.2649333999998;None;"['8', '7']";"[0.22893239999939397, 0.9488726999989012]";851.2649333999998;None;;;;;;;;Emoconpilot043;2022_Jan_07_1453;BackwardMask;2020.2.8;120.04571340811813;
;m;004_o_m_h_a.jpg;happy;9;30;f;030_o_f_s_a.jpg;sad;incongruent;7;mismatch;;120;160;;3;121;block1_Pilot_2;4;h_s;h_s_strong;;;;;0;0;0;0;0;102;102;102;;;;;;;;;854.2659481999999;None;855.2924063999999;855.5832503999991;855.5832503999991;855.6075851999994;855.6075851999994;855.6484980999994;855.6484980999994;None;9;0;855.6484980999994;None;857.1485224999997;None;['7'];[0.5053098999997019];857.1485224999997;None;0.9494371000000683;;;;;;;Emoconpilot043;2022_Jan_07_1453;BackwardMask;2020.2.8;120.04571340811813;
;f;040_y_f_h_a.jpg;happy;9;8;m;008_y_m_h_a.jpg;happy;congruent;9;mismatch;;120;150;;18;211;block1_Pilot_2;40;h_h;h_h_weak;;;;;0;0;0;0;0;103;103;103;;;;;;;;;860.1487149999994;None;861.9148671999992;862.2078124;862.2078124;862.3577436999985;862.3577436999985;862.3986532999988;862.3986532999988;None;None;0;862.3986532999988;None;863.8986888;None;"['9', '7']";"[0.3312134000007063, 1.507185100001152]";863.8986888;None;;;;;;;;Emoconpilot043;2022_Jan_07_1453;BackwardMask;2020.2.8;120.04571340811813;
;f;019_m_f_s_a.jpg;sad;7;16;m;016_y_m_n_a.jpg;neutral;incongruent;8;mismatch;;130;170;;2;198;block1_Pilot_2;19;s_n;s_n_strong;;;;;0;0;0;0;0;104;104;104;;;;;;;;;866.9005637999999;None;868.5909624999986;868.8834471999999;868.8834471999999;868.8995666999999;868.8995666999999;868.9404386999995;868.9404386999995;None;7;0;868.9404386999995;None;870.4404484999995;None;['7'];[1.0373127000002569];870.4404484999995;None;1.057440199998382;;;;;;;Emoconpilot043;2022_Jan_07_1453;BackwardMask;2020.2.8;120.04571340811813;
;f;040_y_f_s_a.jpg;sad;7;12;f;012_o_f_s_a.jpg;sad;congruent;7;match;;130;160;;18;240;block1_Pilot_2;40;s_s;s_s_strong;;;;;0;0;0;0;0;105;105;105;;;;;;;;;873.4407097999992;None;875.4483188999984;875.7415066999984;875.7415066999984;875.8911653999985;875.8911653999985;875.9321175999994;875.9321175999994;None;7;1;875.9321175999994;None;877.4321691999994;None;['7'];[0.9657512000012503];877.4321691999994;None;0.7936282000009669;;;;;;;Emoconpilot043;2022_Jan_07_1453;BackwardMask;2020.2.8;120.04571340811813;
;f;040_y_f_n_a.jpg;neutral;8;33;m;033_o_m_s_a.jpg;sad;incongruent;7;mismatch;;140;160;;3;188;block1_Pilot_2;40;n_s;n_s_weak;;;;;0;0;0;0;0;106;106;106;;;;;;;;;880.4325667999983;None;882.0515954999992;882.3419829999984;882.3419829999984;882.3664966999986;882.3664966999986;882.4073340999985;882.4073340999985;None;7;1;882.4073340999985;None;883.9075069999999;None;['8'];[1.9782008000001952];883.9075069999999;None;0.9584181999998691;;;;;;;Emoconpilot043;2022_Jan_07_1453;BackwardMask;2020.2.8;120.04571340811813;
;f;028_y_f_h_a.jpg;happy;9;21;f;021_o_f_s_a.jpg;sad;incongruent;7;match;;120;160;;3;193;block1_Pilot_2;28;h_s;h_s_strong;;;;;0;0;0;0;0;107;107;107;;;;;;;;;886.9074263999992;None;888.5268662999988;888.8169580999984;888.8169580999984;888.8415891999994;888.8415891999994;888.8824924;888.8824924;None;9;0;888.8824924;None;890.3823892;None;['7'];[0.3753785000008065];890.3823892;None;0.6354551000003994;;;;;;;Emoconpilot043;2022_Jan_07_1453;BackwardMask;2020.2.8;120.04571340811813;
;f;040_y_f_s_a.jpg;sad;7;13;m;013_y_m_n_a.jpg;neutral;incongruent;8;mismatch;;130;170;;2;198;block1_Pilot_2;40;s_n;s_n_strong;;;;;0;0;0;0;0;108;108;108;;;;;;;;;893.3834564999997;None;895.0415014999999;895.3334736999986;895.3334736999986;895.3500137999999;895.3500137999999;895.3908757999998;895.3908757999998;None;8;1;895.3908757999998;None;896.8909036999994;None;['7'];[0.4750220999994781];896.8909036999994;None;0.8069728000009491;;;;;;;Emoconpilot043;2022_Jan_07_1453;BackwardMask;2020.2.8;120.04571340811813;
;f;030_o_f_n_a.jpg;neutral;8;33;m;033_o_m_s_a.jpg;sad;incongruent;7;mismatch;;140;160;;1;238;block1_Pilot_2;30;n_s;n_s_strong;;;;;0;0;0;0;0;109;109;109;;;;;;;;;899.8917887999996;None;901.9059853999988;902.2008590999994;902.2008590999994;902.2085210999994;902.2085210999994;902.2491950999993;902.2491950999993;None;8;0;902.2491950999993;None;903.7502872999994;None;['8'];[0.727537000000666];903.7502872999994;None;0.7246965000013006;;;;;;;Emoconpilot043;2022_Jan_07_1453;BackwardMask;2020.2.8;120.04571340811813;
;f;021_o_f_h_a.jpg;happy;9;40;f;040_y_f_n_a.jpg;neutral;incongruent;8;match;;120;170;;2;125;block1_Pilot_2;21;h_n;h_n_weak;;;;;0;0;0;0;0;110;110;110;;;;;;;;;906.7494236999992;None;907.8116092;908.1007567999986;908.1007567999986;908.1169702999996;908.1169702999996;908.1578458999993;908.1578458999993;None;9;0;908.1578458999993;None;909.6578538999984;None;['7'];[0.4039090000005672];909.6578538999984;None;1.16804509999929;;;;;;;Emoconpilot043;2022_Jan_07_1453;BackwardMask;2020.2.8;120.04571340811813;
;f;021_o_f_h_a.jpg;happy;9;16;m;016_y_m_s_a.jpg;sad;incongruent;7;mismatch;;120;160;;1;238;block1_Pilot_2;21;h_s;h_s_strong;;;;;0;0;0;0;0;111;111;111;;;;;;;;;912.6589974999988;None;914.6618315999985;914.951070699999;914.951070699999;914.9586955999985;914.9586955999985;914.9996880999988;914.9996880999988;None;9;0;914.9996880999988;None;916.4996209000001;None;['7'];[0.7142423000004783];916.4996209000001;None;1.4539981999987504;;;;;;;Emoconpilot043;2022_Jan_07_1453;BackwardMask;2020.2.8;120.04571340811813;
;f;012_o_f_h_a.jpg;happy;9;8;m;008_y_m_s_a.jpg;sad;incongruent;7;mismatch;;120;160;;1;238;block1_Pilot_2;12;h_s;h_s_weak;;;;;0;0;0;0;0;112;112;112;;;;;;;;;919.5001692999995;None;921.4917204999983;921.7841624999983;921.7841624999983;921.7922105999987;921.7922105999987;921.8331027999993;921.8331027999993;None;9;0;921.8331027999993;None;923.3332043999999;None;['7'];[0.8406474000003072];923.3332043999999;None;0.8847533000007388;;;;;;;Emoconpilot043;2022_Jan_07_1453;BackwardMask;2020.2.8;120.04571340811813;
;m;013_y_m_h_a.jpg;happy;9;16;m;016_y_m_s_a.jpg;sad;incongruent;7;match;;120;160;;3;202;block1_Pilot_2;13;h_s;h_s_weak;;;;;0;0;0;0;0;113;113;113;;;;;;;;;926.3340849999986;None;928.0529470999991;928.3428293999987;928.3428293999987;928.3673494999985;928.3673494999985;928.4082193999984;928.4082193999984;None;9;0;928.4082193999984;None;929.9086394999995;None;['7'];[1.2092537999997148];929.9086394999995;None;1.0616334000005736;;;;;;;Emoconpilot043;2022_Jan_07_1453;BackwardMask;2020.2.8;120.04571340811813;
;f;019_m_f_s_a.jpg;sad;7;4;m;004_o_m_n_a.jpg;neutral;incongruent;8;mismatch;;130;170;;1;238;block1_Pilot_2;19;s_n;s_n_strong;;;;;0;0;0;0;0;114;114;114;;;;;;;;;932.9089840999986;None;934.9137174999996;935.2097578999983;935.2097578999983;935.2174992;935.2174992;935.2584139999999;935.2584139999999;None;9;0;935.2584139999999;None;936.7589663999988;None;['7'];[0.6468957000015507];936.7589663999988;None;1.2994486999996298;;;;;;;Emoconpilot043;2022_Jan_07_1453;BackwardMask;2020.2.8;120.04571340811813;
;f;028_y_f_n_a.jpg;neutral;8;27;m;027_o_m_s_a.jpg;sad;incongruent;7;mismatch;;140;160;;18;238;block1_Pilot_2;28;n_s;n_s_strong;;;;;0;0;0;0;0;115;115;115;;;;;;;;;939.7584459999998;None;941.7609376;942.051453099999;942.051453099999;942.2009953999986;942.2009953999986;942.2418392;942.2418392;None;8;0;942.2418392;None;943.7420256999994;None;['7'];[2.2638915999996243];943.7420256999994;None;0.6120348000004014;;;;;;;Emoconpilot043;2022_Jan_07_1453;BackwardMask;2020.2.8;120.04571340811813;
;m;013_y_m_s_a.jpg;sad;7;12;f;012_o_f_h_a.jpg;happy;incongruent;9;mismatch;;130;150;;1;238;block1_Pilot_2;13;s_h;s_h_strong;;;;;0;0;0;0;0;116;116;116;;;;;;;;;946.7420348999985;None;948.7330852999985;949.0262495999996;949.0262495999996;949.0345148999986;949.0345148999986;949.0752311999986;949.0752311999986;None;None;0;949.0752311999986;None;950.5753334000001;None;['7'];[0.9985283000005438];950.5753334000001;None;;;;;;;;Emoconpilot043;2022_Jan_07_1453;BackwardMask;2020.2.8;120.04571340811813;
;m;016_y_m_s_a.jpg;sad;7;19;f;019_m_f_h_a.jpg;happy;incongruent;9;mismatch;;130;150;;1;238;block1_Pilot_2;16;s_h;s_h_strong;;;;;0;0;0;0;0;117;117;117;;;;;;;;;953.5754020999993;None;955.5669249999992;955.8597140999991;955.8597140999991;955.8679217999997;955.8679217999997;955.9087352999995;955.9087352999995;None;None;0;955.9087352999995;None;957.4088458999995;None;['8'];[0.556979400000273];957.4088458999995;None;;;;;;;;Emoconpilot043;2022_Jan_07_1453;BackwardMask;2020.2.8;120.04571340811813;
;m;013_y_m_s_a.jpg;sad;7;21;f;021_o_f_h_a.jpg;happy;incongruent;9;mismatch;;130;150;;18;238;block1_Pilot_2;13;s_h;s_h_strong;;;;;0;0;0;0;0;118;118;118;;;;;;;;;960.4088967999996;None;962.3996989999996;962.6932084;962.6932084;962.8430722999983;962.8430722999983;962.8839341999992;962.8839341999992;None;8;0;962.8839341999992;None;964.3838587999999;None;['7'];[0.982015899999169];964.3838587999999;None;1.057820799998808;;;;;;;Emoconpilot043;2022_Jan_07_1453;BackwardMask;2020.2.8;120.04571340811813;
;f;012_o_f_s_a.jpg;sad;7;13;m;013_y_m_h_a.jpg;happy;incongruent;9;mismatch;;130;150;;3;235;block1_Pilot_2;12;s_h;s_h_weak;;;;;0;0;0;0;0;119;119;119;;;;;;;;;967.3840438999996;None;969.3472900999986;969.6431107999997;969.6431107999997;969.6680854999995;969.6680854999995;969.7089203999985;969.7089203999985;None;9;1;969.7089203999985;None;971.2091217999987;None;['7'];[0.24456680000002962];971.2091217999987;None;0.7529541999992944;;;;;;;Emoconpilot043;2022_Jan_07_1453;BackwardMask;2020.2.8;120.04571340811813;
;f;019_m_f_s_a.jpg;sad;7;30;f;030_o_f_h_a.jpg;happy;incongruent;9;match;;130;150;;3;235;block2_Pilot_2;19;s_h;s_h_strong;;;;;0;1;1;1;0;0;0;0;;;;;;;;;994.2385890999994;None;996.2064128999991;996.5026287000001;996.5026287000001;996.527146299999;996.527146299999;996.5680730999993;996.5680730999993;None;None;0;996.5680730999993;None;998.068710399999;None;None;;998.068710399999;None;;;;974.209644999999;None;;;Emoconpilot043;2022_Jan_07_1453;BackwardMask;2020.2.8;120.04571340811813;
;m;008_y_m_n_a.jpg;neutral;8;40;f;040_y_f_h_a.jpg;happy;incongruent;9;mismatch;;140;150;;2;121;block2_Pilot_2;8;n_h;n_h_strong;;;;;0;1;1;1;0;1;1;1;;;;;;;;;1001.0690399999985;None;1002.0965282999987;1002.3860735999988;1002.3860735999988;1002.402192399999;1002.402192399999;1002.4430543999988;1002.4430543999988;None;None;0;1002.4430543999988;None;1003.9431758999999;None;"['7', '7']";"[0.2784955999995873, 1.3506257999997615]";1003.9431758999999;None;;;;;;;;Emoconpilot043;2022_Jan_07_1453;BackwardMask;2020.2.8;120.04571340811813;
;f;012_o_f_h_a.jpg;happy;9;27;m;027_o_m_n_a.jpg;neutral;incongruent;8;mismatch;;120;170;;2;240;block2_Pilot_2;12;h_n;h_n_weak;;;;;0;1;1;1;0;2;2;2;;;;;;;;;1006.9439460999984;None;1008.9519251999991;1009.2443595999994;1009.2443595999994;1009.2607015999984;1009.2607015999984;1009.3013291999996;1009.3013291999996;None;9;0;1009.3013291999996;None;1010.801379999999;None;['7'];[0.7004181000011158];1010.801379999999;None;0.7043238999995083;;;;;;;Emoconpilot043;2022_Jan_07_1453;BackwardMask;2020.2.8;120.04571340811813;
;m;008_y_m_h_a.jpg;happy;9;40;f;040_y_f_h_a.jpg;happy;congruent;9;mismatch;;120;150;;18;195;block2_Pilot_2;8;h_h;h_h_strong;;;;;0;1;1;1;0;3;3;3;;;;;;;;;1013.8016628999994;None;1015.4346446;1015.7275120999984;1015.7275120999984;1015.8774719999983;1015.8774719999983;1015.918286099999;1015.918286099999;None;9;1;1015.918286099999;None;1017.4183157999996;None;['7'];[0.7555688999982522];1017.4183157999996;None;0.5673274000000674;;;;;;;Emoconpilot043;2022_Jan_07_1453;BackwardMask;2020.2.8;120.04571340811813;
;m;004_o_m_n_a.jpg;neutral;8;33;m;033_o_m_s_a.jpg;sad;incongruent;7;match;;140;160;;18;126;block2_Pilot_2;4;n_s;n_s_weak;;;;;0;1;1;1;0;4;4;4;;;;;;;;;1020.4184625999987;None;1021.5110864999988;1021.8030600999991;1021.8030600999991;1021.9525447999986;1021.9525447999986;1021.9936072;1021.9936072;None;8;0;1021.9936072;None;1023.4935128999987;None;None;;1023.4935128999987;None;0.628274099999544;;;;;;;Emoconpilot043;2022_Jan_07_1453;BackwardMask;2020.2.8;120.04571340811813;
;f;028_y_f_s_a.jpg;sad;7;27;m;027_o_m_n_a.jpg;neutral;incongruent;8;mismatch;;130;170;;18;225;block2_Pilot_2;28;s_n;s_n_strong;;;;;0;1;1;1;0;5;5;5;;;;;;;;;1026.4936687999998;None;1028.3796834999994;1028.6697096999997;1028.6697096999997;1028.8193364999988;1028.8193364999988;1028.8602684999987;1028.8602684999987;None;None;0;1028.8602684999987;None;1030.3603761999984;None;['7'];[1.2854523999994854];1030.3603761999984;None;;;;;;;;Emoconpilot043;2022_Jan_07_1453;BackwardMask;2020.2.8;120.04571340811813;
;m;027_o_m_s_a.jpg;sad;7;30;f;030_o_f_h_a.jpg;happy;incongruent;9;mismatch;;130;150;;18;238;block2_Pilot_2;27;s_h;s_h_weak;;;;;0;1;1;1;0;6;6;6;;;;;;;;;1033.3613620999986;None;1035.3526966999998;1035.6446383999992;1035.6446383999992;1035.7947699999986;1035.7947699999986;1035.835406099999;1035.835406099999;None;7;0;1035.835406099999;None;1037.3355254999988;None;['7'];[1.246216399998957];1037.3355254999988;None;1.0104511000008642;;;;;;;Emoconpilot043;2022_Jan_07_1453;BackwardMask;2020.2.8;120.04571340811813;
;m;033_o_m_h_a.jpg;happy;9;40;f;040_y_f_s_a.jpg;sad;incongruent;7;mismatch;;120;160;;1;238;block2_Pilot_2;33;h_s;h_s_strong;;;;;0;1;1;1;0;7;7;7;;;;;;;;;1040.3355267999996;None;1042.3269752999986;1042.6199014999984;1042.6199014999984;1042.627944599999;1042.627944599999;1042.6688820999989;1042.6688820999989;None;8;0;1042.6688820999989;None;1044.1691779999983;None;['8'];[2.5325811999991856];1044.1691779999983;None;0.9847442999998748;;;;;;;Emoconpilot043;2022_Jan_07_1453;BackwardMask;2020.2.8;120.04571340811813;
;f;012_o_f_n_a.jpg;neutral;8;12;f;012_o_f_h_a.jpg;happy;incongruent;9;match;;140;150;;2;200;block2_Pilot_2;12;n_h;n_h_weak;;;;;0;1;1;1;0;8;8;8;;;;;;;;;1047.1707499999993;None;1048.8866491999997;1049.1789347999984;1049.1789347999984;1049.1947252999998;1049.1947252999998;1049.2355896999998;1049.2355896999998;None;7;0;1049.2355896999998;None;1050.735803399999;None;['7'];[0.7419289999998];1050.735803399999;None;1.1700208000002021;;;;;;;Emoconpilot043;2022_Jan_07_1453;BackwardMask;2020.2.8;120.04571340811813;
;f;030_o_f_n_a.jpg;neutral;8;19;f;019_m_f_n_a.jpg;neutral;congruent;8;match;;140;170;;1;238;block2_Pilot_2;30;n_n;n_n_weak;;;;;0;1;1;1;0;9;9;9;;;;;;;;;1053.7365471999983;None;1055.7400846;1056.0288077999994;1056.0288077999994;1056.0364159;1056.0364159;1056.077335099999;1056.077335099999;None;8;1;1056.077335099999;None;1057.5776048999996;None;['7'];[1.1081696000001102];1057.5776048999996;None;0.9125266000010015;;;;;;;Emoconpilot043;2022_Jan_07_1453;BackwardMask;2020.2.8;120.04571340811813;
;m;013_y_m_h_a.jpg;happy;9;8;m;008_y_m_n_a.jpg;neutral;incongruent;8;match;;120;170;;1;238;block2_Pilot_2;13;h_n;h_n_strong;;;;;0;1;1;1;0;10;10;10;;;;;;;;;1060.5784905;None;1062.5809150999994;1062.8706138999987;1062.8706138999987;1062.8783273999998;1062.8783273999998;1062.9192409999996;1062.9192409999996;None;8;1;1062.9192409999996;None;1064.4192661999987;None;['7'];[0.8585007999990921];1064.4192661999987;None;0.6066228999989107;;;;;;;Emoconpilot043;2022_Jan_07_1453;BackwardMask;2020.2.8;120.04571340811813;
;f;040_y_f_h_a.jpg;happy;9;19;f;019_m_f_s_a.jpg;sad;incongruent;7;match;;120;160;;3;133;block2_Pilot_2;40;h_s;h_s_strong;;;;;0;1;1;1;0;11;11;11;;;;;;;;;1067.4201195999995;None;1068.5359757999995;1068.828610999999;1068.828610999999;1068.8535321999989;1068.8535321999989;1068.8943801999994;1068.8943801999994;None;9;0;1068.8943801999994;None;1070.3943857999984;None;['7'];[0.5313025000014022];1070.3943857999984;None;0.7353132999996888;;;;;;;Emoconpilot043;2022_Jan_07_1453;BackwardMask;2020.2.8;120.04571340811813;
;f;040_y_f_h_a.jpg;happy;9;13;m;013_y_m_s_a.jpg;sad;incongruent;7;mismatch;;120;160;;3;226;block2_Pilot_2;40;h_s;h_s_strong;;;;;0;1;1;1;0;12;12;12;;;;;;;;;1073.394616399999;None;1075.2854792999988;1075.5789313999994;1075.5789313999994;1075.6036630999988;1075.6036630999988;1075.6444730999992;1075.6444730999992;None;9;0;1075.6444730999992;None;1077.1445261999997;None;['8'];[2.397244800000408];1077.1445261999997;None;0.7372200000008888;;;;;;;Emoconpilot043;2022_Jan_07_1453;BackwardMask;2020.2.8;120.04571340811813;
;f;030_o_f_s_a.jpg;sad;7;27;m;027_o_m_h_a.jpg;happy;incongruent;9;mismatch;;130;150;;1;238;block2_Pilot_2;30;s_h;s_h_strong;;;;;0;1;1;1;0;13;13;13;;;;;;;;;1080.1455176;None;1082.1611811999992;1082.4544198999993;1082.4544198999993;1082.4621075999985;1082.4621075999985;1082.502930999999;1082.502930999999;None;9;1;1082.502930999999;None;1084.0029986999998;None;['7'];[0.33082330000070215];1084.0029986999998;None;0.9428134999998292;;;;;;;Emoconpilot043;2022_Jan_07_1453;BackwardMask;2020.2.8;120.04571340811813;
;m;033_o_m_h_a.jpg;happy;9;30;f;030_o_f_s_a.jpg;sad;incongruent;7;mismatch;;120;160;;1;238;block2_Pilot_2;33;h_s;h_s_weak;;;;;0;1;1;1;0;14;14;14;;;;;;;;;1087.0039635999983;None;1088.994345699999;1089.287656299999;1089.287656299999;1089.2954219999992;1089.2954219999992;1089.336364499999;1089.336364499999;None;None;0;1089.336364499999;None;1090.8364138999987;None;['8'];[0.8574439000003622];1090.8364138999987;None;;;;;;;;Emoconpilot043;2022_Jan_07_1453;BackwardMask;2020.2.8;120.04571340811813;
;f;030_o_f_s_a.jpg;sad;7;28;f;028_y_f_n_a.jpg;neutral;incongruent;8;match;;130;170;;3;198;block2_Pilot_2;30;s_n;s_n_weak;;;;;0;1;1;1;0;15;15;15;;;;;;;;;1093.8365753999988;None;1095.5276434999996;1095.8213424999994;1095.8213424999994;1095.8458427999994;1095.8458427999994;1095.8865386999987;1095.8865386999987;None;7;0;1095.8865386999987;None;1097.386691399999;None;['7'];[0.7471530000002531];1097.386691399999;None;1.0071938000000955;;;;;;;Emoconpilot043;2022_Jan_07_1453;BackwardMask;2020.2.8;120.04571340811813;
;f;030_o_f_s_a.jpg;sad;7;33;m;033_o_m_h_a.jpg;happy;incongruent;9;mismatch;;130;150;;3;175;block2_Pilot_2;30;s_h;s_h_weak;;;;;0;1;1;1;0;16;16;16;;;;;;;;;1100.3873199999998;None;1101.8664274999992;1102.1631830999995;1102.1631830999995;1102.1875164999983;1102.1875164999983;1102.2283055999997;1102.2283055999997;None;7;0;1102.2283055999997;None;1103.7284443999997;None;['7'];[0.949383699999089];1103.7284443999997;None;0.8092866000006325;;;;;;;Emoconpilot043;2022_Jan_07_1453;BackwardMask;2020.2.8;120.04571340811813;
;f;021_o_f_h_a.jpg;happy;9;30;f;030_o_f_h_a.jpg;happy;congruent;9;match;;120;150;;2;194;block2_Pilot_2;21;h_h;h_h_strong;;;;;0;1;1;1;0;17;17;17;;;;;;;;;1106.7291333999983;None;1108.3655253999987;1108.654881299999;1108.654881299999;1108.671014399999;1108.671014399999;1108.7118781999998;1108.7118781999998;None;9;1;1108.7118781999998;None;1110.2117619;None;['7'];[0.42597290000048815];1110.2117619;None;0.8457149999994726;;;;;;;Emoconpilot043;2022_Jan_07_1453;BackwardMask;2020.2.8;120.04571340811813;
;f;019_m_f_n_a.jpg;neutral;8;16;m;016_y_m_s_a.jpg;sad;incongruent;7;mismatch;;140;160;;18;163;block2_Pilot_2;19;n_s;n_s_weak;;;;;0;1;1;1;0;18;18;18;;;;;;;;;1113.2137088;None;1114.5897196999995;1114.8799211999994;1114.8799211999994;1115.0294489999997;1115.0294489999997;1115.0702830999999;1115.0702830999999;None;8;0;1115.0702830999999;None;1116.5702081;None;['7'];[0.3076192999997147];1116.5702081;None;0.6715658000011899;;;;;;;Emoconpilot043;2022_Jan_07_1453;BackwardMask;2020.2.8;120.04571340811813;
;m;033_o_m_n_a.jpg;neutral;8;13;m;013_y_m_n_a.jpg;neutral;congruent;8;match;;140;170;;2;217;block2_Pilot_2;33;n_n;n_n_strong;;;;;0;1;1;1;0;19;19;19;;;;;;;;;1119.5711459999984;None;1121.3979485;1121.688596599999;1121.688596599999;1121.7046961999986;1121.7046961999986;1121.7454201;1121.7454201;None;None;0;1121.7454201;None;1123.2454332999987;None;['8'];[0.36044349999974656];1123.2454332999987;None;;;;;;;;Emoconpilot043;2022_Jan_07_1453;BackwardMask;2020.2.8;120.04571340811813;
;m;033_o_m_h_a.jpg;happy;9;13;m;013_y_m_n_a.jpg;neutral;incongruent;8;match;;120;170;;2;227;block2_Pilot_2;33;h_n;h_n_weak;;;;;0;1;1;1;0;20;20;20;;;;;;;;;1126.2456016999986;None;1128.1455816999987;1128.4385494999988;1128.4385494999988;1128.4548335;1128.4548335;1128.495493299999;1128.495493299999;None;9;0;1128.495493299999;None;1129.9961107;None;['7'];[0.38571889999911946];1129.9961107;None;0.7102608000004693;;;;;;;Emoconpilot043;2022_Jan_07_1453;BackwardMask;2020.2.8;120.04571340811813;
;f;012_o_f_s_a.jpg;sad;7;16;m;016_y_m_n_a.jpg;neutral;incongruent;8;mismatch;;130;170;;1;238;block2_Pilot_2;12;s_n;s_n_weak;;;;;0;1;1;1;0;21;21;21;;;;;;;;;1132.9963622999985;None;1134.983261899999;1135.2799882999989;1135.2799882999989;1135.2881638999988;1135.2881638999988;1135.329105499999;1135.329105499999;None;None;0;1135.329105499999;None;1136.8289638999995;None;['8'];[0.29668280000078084];1136.8289638999995;None;;;;;;;;Emoconpilot043;2022_Jan_07_1453;BackwardMask;2020.2.8;120.04571340811813;
;f;028_y_f_n_a.jpg;neutral;8;21;f;021_o_f_h_a.jpg;happy;incongruent;9;match;;140;150;;18;202;block2_Pilot_2;28;n_h;n_h_strong;;;;;0;1;1;1;0;22;22;22;;;;;;;;;1139.8295638;None;1141.5337696999995;1141.8305576999992;1141.8305576999992;1141.9800176999997;1141.9800176999997;1142.020913799999;1142.020913799999;None;8;0;1142.020913799999;None;1143.5209381999994;None;['7'];[1.2129628000002413];1143.5209381999994;None;0.9846813999993174;;;;;;;Emoconpilot043;2022_Jan_07_1453;BackwardMask;2020.2.8;120.04571340811813;
;f;028_y_f_s_a.jpg;sad;7;30;f;030_o_f_n_a.jpg;neutral;incongruent;8;match;;130;170;;2;127;block2_Pilot_2;28;s_n;s_n_weak;;;;;0;1;1;1;0;23;23;23;;;;;;;;;1146.5210393999987;None;1147.5922515999991;1147.8886325999993;1147.8886325999993;1147.9051167999987;1147.9051167999987;1147.9459216999985;1147.9459216999985;None;8;1;1147.9459216999985;None;1149.4463320999985;None;['7'];[0.27126680000037595];1149.4463320999985;None;0.667765899999722;;;;;;;Emoconpilot043;2022_Jan_07_1453;BackwardMask;2020.2.8;120.04571340811813;
;m;004_o_m_n_a.jpg;neutral;8;40;f;040_y_f_n_a.jpg;neutral;congruent;8;mismatch;;140;170;;1;238;block2_Pilot_2;4;n_n;n_n_weak;;;;;0;1;1;1;0;24;24;24;;;;;;;;;1152.4460242999994;None;1154.4734147999989;1154.7640877999984;1154.7640877999984;1154.7718734999999;1154.7718734999999;1154.8128208999988;1154.8128208999988;None;8;1;1154.8128208999988;None;1156.3135174;None;['7'];[0.6441537000009703];1156.3135174;None;0.8248975000005885;;;;;;;Emoconpilot043;2022_Jan_07_1453;BackwardMask;2020.2.8;120.04571340811813;
;m;016_y_m_n_a.jpg;neutral;8;16;m;016_y_m_h_a.jpg;happy;incongruent;9;match;;140;150;;18;239;block2_Pilot_2;16;n_h;n_h_weak;;;;;0;1;1;1;0;25;25;25;;;;;;;;;1159.3140279999989;None;1161.3247491999991;1161.6141668;1161.6141668;1161.7638102;1161.7638102;1161.804563399999;1161.804563399999;None;8;0;1161.804563399999;None;1163.3046305999997;None;['7'];[0.5970904999994673];1163.3046305999997;None;1.2251512999991974;;;;;;;Emoconpilot043;2022_Jan_07_1453;BackwardMask;2020.2.8;120.04571340811813;
;f;012_o_f_n_a.jpg;neutral;8;33;m;033_o_m_n_a.jpg;neutral;congruent;8;mismatch;;140;170;;3;134;block2_Pilot_2;12;n_n;n_n_weak;;;;;0;1;1;1;0;26;26;26;;;;;;;;;1166.3046848999984;None;1167.4393720999997;1167.7311926999992;1167.7311926999992;1167.7555847999993;1167.7555847999993;1167.796358399999;1167.796358399999;None;None;0;1167.796358399999;None;1169.2963818999997;None;['8'];[0.4373663000005763];1169.2963818999997;None;;;;;;;;Emoconpilot043;2022_Jan_07_1453;BackwardMask;2020.2.8;120.04571340811813;
;m;013_y_m_h_a.jpg;happy;9;27;m;027_o_m_s_a.jpg;sad;incongruent;7;match;;120;160;;2;194;block2_Pilot_2;13;h_s;h_s_strong;;;;;0;1;1;1;0;27;27;27;;;;;;;;;1172.296496699999;None;1173.9321716999984;1174.2228526999988;1174.2228526999988;1174.2388889999984;1174.2388889999984;1174.2798313999992;1174.2798313999992;None;9;0;1174.2798313999992;None;1175.7796237999992;None;['7'];[0.4420307000000321];1175.7796237999992;None;0.6537376999986009;;;;;;;Emoconpilot043;2022_Jan_07_1453;BackwardMask;2020.2.8;120.04571340811813;
;m;013_y_m_n_a.jpg;neutral;8;28;f;028_y_f_n_a.jpg;neutral;congruent;8;mismatch;;140;170;;1;238;block2_Pilot_2;13;n_n;n_n_weak;;;;;0;1;1;1;0;28;28;28;;;;;;;;;1178.7804768999995;None;1180.7825632999993;1181.0730851999997;1181.0730851999997;1181.0807669999995;1181.0807669999995;1181.1217425999985;1181.1217425999985;None;None;0;1181.1217425999985;None;1182.622007;None;['8'];[0.31972229999882984];1182.622007;None;;;;;;;;Emoconpilot043;2022_Jan_07_1453;BackwardMask;2020.2.8;120.04571340811813;
;f;030_o_f_s_a.jpg;sad;7;33;m;033_o_m_h_a.jpg;happy;incongruent;9;mismatch;;130;150;;3;168;block2_Pilot_2;30;s_h;s_h_weak;;;;;0;1;1;1;0;29;29;29;;;;;;;;;1185.6218253999996;None;1187.0409364999996;1187.3315217999989;1187.3315217999989;1187.3559444999992;1187.3559444999992;1187.396761;1187.396761;None;None;0;1187.396761;None;1188.8967691999987;None;['7'];[1.1569402999994054];1188.8967691999987;None;;;;;;;;Emoconpilot043;2022_Jan_07_1453;BackwardMask;2020.2.8;120.04571340811813;
;m;008_y_m_n_a.jpg;neutral;8;12;f;012_o_f_n_a.jpg;neutral;congruent;8;mismatch;;140;170;;18;208;block2_Pilot_2;8;n_n;n_n_weak;;;;;0;1;1;1;0;30;30;30;;;;;;;;;1191.896949;None;1193.6496305;1193.9399465999995;1193.9399465999995;1194.0895856999996;1194.0895856999996;1194.1302632999996;1194.1302632999996;None;8;1;1194.1302632999996;None;1195.6302471999988;None;['7'];[0.5276008000000729];1195.6302471999988;None;0.6273348999984592;;;;;;;Emoconpilot043;2022_Jan_07_1453;BackwardMask;2020.2.8;120.04571340811813;
;m;008_y_m_s_a.jpg;sad;7;4;m;004_o_m_n_a.jpg;neutral;incongruent;8;match;;130;170;;2;231;block2_Pilot_2;8;s_n;s_n_weak;;;;;0;1;1;1;0;31;31;31;;;;;;;;;1198.6308489999992;None;1200.5744562;1200.8650769999986;1200.8650769999986;1200.8811584999985;1200.8811584999985;1200.9219217999998;1200.9219217999998;None;7;0;1200.9219217999998;None;1202.4221163999991;None;['7'];[0.42358469999999215];1202.4221163999991;None;0.9158246999995754;;;;;;;Emoconpilot043;2022_Jan_07_1453;BackwardMask;2020.2.8;120.04571340811813;
;m;016_y_m_n_a.jpg;neutral;8;28;f;028_y_f_n_a.jpg;neutral;congruent;8;mismatch;;140;170;;2;218;block2_Pilot_2;16;n_n;n_n_weak;;;;;0;1;1;1;0;32;32;32;;;;;;;;;1205.4228169999988;None;1207.2580142999996;1207.5486351;1207.5486351;1207.564642199999;1207.564642199999;1207.6056061;1207.6056061;None;8;1;1207.6056061;None;1209.1054478999995;None;['7'];[0.30023789999904693];1209.1054478999995;None;0.7681594000005134;;;;;;;Emoconpilot043;2022_Jan_07_1453;BackwardMask;2020.2.8;120.04571340811813;
;m;033_o_m_n_a.jpg;neutral;8;33;m;033_o_m_s_a.jpg;sad;incongruent;7;match;;140;160;;3;141;block2_Pilot_2;33;n_s;n_s_weak;;;;;0;1;1;1;0;33;33;33;;;;;;;;;1212.1064210999994;None;1213.3002997999993;1213.5902157;1213.5902157;1213.6147716999985;1213.6147716999985;1213.6554971999994;1213.6554971999994;None;8;0;1213.6554971999994;None;1215.1557888999996;None;['7'];[0.34575779999977385];1215.1557888999996;None;0.7261134000000311;;;;;;;Emoconpilot043;2022_Jan_07_1453;BackwardMask;2020.2.8;120.04571340811813;
;m;016_y_m_n_a.jpg;neutral;8;13;m;013_y_m_s_a.jpg;sad;incongruent;7;match;;140;160;;1;238;block2_Pilot_2;16;n_s;n_s_weak;;;;;0;1;1;1;0;34;34;34;;;;;;;;;1218.1564325;None;1220.158644699999;1220.4488212999986;1220.4488212999986;1220.4563079;1220.4563079;1220.4974452999995;1220.4974452999995;None;None;0;1220.4974452999995;None;1221.9974128999984;None;['8'];[0.24834480000026815];1221.9974128999984;None;;;;;;;;Emoconpilot043;2022_Jan_07_1453;BackwardMask;2020.2.8;120.04571340811813;
;f;030_o_f_h_a.jpg;happy;9;12;f;012_o_f_n_a.jpg;neutral;incongruent;8;match;;120;170;;3;190;block2_Pilot_2;30;h_n;h_n_weak;;;;;0;1;1;1;0;35;35;35;;;;;;;;;1224.9980163;None;1226.6078851999991;1226.8991394999994;1226.8991394999994;1226.9234321999993;1226.9234321999993;1226.9643505999993;1226.9643505999993;None;9;0;1226.9643505999993;None;1228.4647166999985;None;['7'];[0.3329720999990968];1228.4647166999985;None;0.6573011000000406;;;;;;;Emoconpilot043;2022_Jan_07_1453;BackwardMask;2020.2.8;120.04571340811813;
;f;030_o_f_s_a.jpg;sad;7;12;f;012_o_f_n_a.jpg;neutral;incongruent;8;match;;130;170;;3;197;block2_Pilot_2;30;s_n;s_n_strong;;;;;0;1;1;1;0;36;36;36;;;;;;;;;1231.4643930999991;None;1233.126225599999;1233.4156061999984;1233.4156061999984;1233.4403674999994;1233.4403674999994;1233.4810527999998;1233.4810527999998;None;7;0;1233.4810527999998;None;1234.9810265999986;None;['7'];[1.2727542000011454];1234.9810265999986;None;0.988641899999493;;;;;;;Emoconpilot043;2022_Jan_07_1453;BackwardMask;2020.2.8;120.04571340811813;
;m;004_o_m_s_a.jpg;sad;7;8;m;008_y_m_h_a.jpg;happy;incongruent;9;match;;130;150;;3;201;block2_Pilot_2;4;s_h;s_h_strong;;;;;0;1;1;1;0;37;37;37;;;;;;;;;1237.9814432999992;None;1239.6643227999994;1239.9570598999999;1239.9570598999999;1239.9819728999992;1239.9819728999992;1240.0229053999992;1240.0229053999992;None;8;0;1240.0229053999992;None;1241.522733599999;None;['7'];[0.619045699999333];1241.522733599999;None;1.1987281999990955;;;;;;;Emoconpilot043;2022_Jan_07_1453;BackwardMask;2020.2.8;120.04571340811813;
;f;040_y_f_n_a.jpg;neutral;8;16;m;016_y_m_n_a.jpg;neutral;congruent;8;mismatch;;140;170;;3;198;block2_Pilot_2;40;n_n;n_n_strong;;;;;0;1;1;1;0;38;38;38;;;;;;;;;1244.5238390999984;None;1246.1979056;1246.4909629999984;1246.4909629999984;1246.5154174999989;1246.5154174999989;1246.5560903999994;1246.5560903999994;None;8;1;1246.5560903999994;None;1248.0564428999987;None;['7'];[0.4613497999998799];1248.0564428999987;None;0.6576172999994014;;;;;;;Emoconpilot043;2022_Jan_07_1453;BackwardMask;2020.2.8;120.04571340811813;
;m;027_o_m_n_a.jpg;neutral;8;16;m;016_y_m_s_a.jpg;sad;incongruent;7;match;;140;160;;1;238;block2_Pilot_2;27;n_s;n_s_strong;;;;;0;1;1;1;0;39;39;39;;;;;;;;;1251.0571622999996;None;1253.0602014999986;1253.3495755999993;1253.3495755999993;1253.357358199999;1253.357358199999;1253.398264899999;1253.398264899999;None;8;0;1253.398264899999;None;1254.8981365;None;['7'];[0.5475724000007176];1254.8981365;None;0.8712568999999348;;;;;;;Emoconpilot043;2022_Jan_07_1453;BackwardMask;2020.2.8;120.04571340811813;
;m;033_o_m_n_a.jpg;neutral;8;40;f;040_y_f_h_a.jpg;happy;incongruent;9;mismatch;;140;150;;2;137;block2_Pilot_2;33;n_h;n_h_strong;;;;;0;1;1;1;0;40;40;40;;;;;;;;;1257.8989452999995;None;1259.0595593999988;1259.3495915999993;1259.3495915999993;1259.3656875999986;1259.3656875999986;1259.4066700999992;1259.4066700999992;None;8;0;1259.4066700999992;None;1260.9075286999996;None;['7'];[0.4821661000005406];1260.9075286999996;None;0.9990820000002714;;;;;;;Emoconpilot043;2022_Jan_07_1453;BackwardMask;2020.2.8;120.04571340811813;
;m;004_o_m_s_a.jpg;sad;7;8;m;008_y_m_h_a.jpg;happy;incongruent;9;match;;130;150;;18;193;block2_Pilot_2;4;s_h;s_h_strong;;;;;0;1;1;1;0;41;41;41;;;;;;;;;1263.9075282999984;None;1265.5231838;1265.8159927999986;1265.8159927999986;1265.9658264999998;1265.9658264999998;1266.0066374999988;1266.0066374999988;None;7;0;1266.0066374999988;None;1267.5074965999993;None;['7'];[0.5539549000004627];1267.5074965999993;None;0.8868698999995104;;;;;;;Emoconpilot043;2022_Jan_07_1453;BackwardMask;2020.2.8;120.04571340811813;
;f;012_o_f_h_a.jpg;happy;9;4;m;004_o_m_s_a.jpg;sad;incongruent;7;mismatch;;120;160;;3;198;block2_Pilot_2;12;h_s;h_s_weak;;;;;0;1;1;1;0;42;42;42;;;;;;;;;1270.508929399999;None;1272.1639579999992;1272.457829699999;1272.457829699999;1272.4825326999999;1272.4825326999999;1272.5234703999995;1272.5234703999995;None;9;0;1272.5234703999995;None;1274.0234459999992;None;['7'];[0.5582042000005458];1274.0234459999992;None;0.722011099998781;;;;;;;Emoconpilot043;2022_Jan_07_1453;BackwardMask;2020.2.8;120.04571340811813;
;f;012_o_f_n_a.jpg;neutral;8;8;m;008_y_m_s_a.jpg;sad;incongruent;7;mismatch;;140;160;;1;238;block2_Pilot_2;12;n_s;n_s_strong;;;;;0;1;1;1;0;43;43;43;;;;;;;;;1277.0248254999988;None;1279.0341961999984;1279.3249990999993;1279.3249990999993;1279.3326786999987;1279.3326786999987;1279.3737372999985;1279.3737372999985;None;None;0;1279.3737372999985;None;1280.8736208999999;None;['8'];[0.8038918000002013];1280.8736208999999;None;;;;;;;;Emoconpilot043;2022_Jan_07_1453;BackwardMask;2020.2.8;120.04571340811813;
;f;040_y_f_n_a.jpg;neutral;8;8;m;008_y_m_n_a.jpg;neutral;congruent;8;mismatch;;140;170;;3;165;block2_Pilot_2;40;n_n;n_n_weak;;;;;0;1;1;1;0;44;44;44;;;;;;;;;1283.8746177999983;None;1285.2700185999984;1285.566608699999;1285.566608699999;1285.591190199999;1285.591190199999;1285.6320745999983;1285.6320745999983;None;8;1;1285.6320745999983;None;1287.1321380999998;None;['7'];[0.4735445999995136];1287.1321380999998;None;0.7094980000001669;;;;;;;Emoconpilot043;2022_Jan_07_1453;BackwardMask;2020.2.8;120.04571340811813;
;f;028_y_f_h_a.jpg;happy;9;33;m;033_o_m_n_a.jpg;neutral;incongruent;8;mismatch;;120;170;;1;238;block2_Pilot_2;28;h_n;h_n_strong;;;;;0;1;1;1;0;45;45;45;;;;;;;;;1290.1329764999991;None;1292.1259495999984;1292.4166190999986;1292.4166190999986;1292.4246178999983;1292.4246178999983;1292.4655182999995;1292.4655182999995;None;None;0;1292.4655182999995;None;1293.9659058999987;None;['8'];[0.39976679999927];1293.9659058999987;None;;;;;;;;Emoconpilot043;2022_Jan_07_1453;BackwardMask;2020.2.8;120.04571340811813;
;m;027_o_m_s_a.jpg;sad;7;19;f;019_m_f_n_a.jpg;neutral;incongruent;8;mismatch;;130;170;;2;236;block2_Pilot_2;27;s_n;s_n_weak;;;;;0;1;1;1;0;46;46;46;;;;;;;;;1296.9665090999988;None;1298.9408735999987;1299.233379199999;1299.233379199999;1299.2496777999986;1299.2496777999986;1299.2906755999993;1299.2906755999993;None;8;1;1299.2906755999993;None;1300.7907130999993;None;['7'];[0.3990033999998559];1300.7907130999993;None;0.7708299000005354;;;;;;;Emoconpilot043;2022_Jan_07_1453;BackwardMask;2020.2.8;120.04571340811813;
;m;027_o_m_h_a.jpg;happy;9;19;f;019_m_f_s_a.jpg;sad;incongruent;7;mismatch;;120;160;;1;238;block2_Pilot_2;27;h_s;h_s_strong;;;;;0;1;1;1;0;47;47;47;;;;;;;;;1303.791777299999;None;1305.8204097999987;1306.117162999999;1306.117162999999;1306.1248350999995;1306.1248350999995;1306.1658540999997;1306.1658540999997;None;None;0;1306.1658540999997;None;1307.666072099999;None;['8'];[0.3236514999989595];1307.666072099999;None;;;;;;;;Emoconpilot043;2022_Jan_07_1453;BackwardMask;2020.2.8;120.04571340811813;
;m;016_y_m_h_a.jpg;happy;9;4;m;004_o_m_s_a.jpg;sad;incongruent;7;match;;120;160;;3;227;block2_Pilot_2;16;h_s;h_s_strong;;;;;0;1;1;1;0;48;48;48;;;;;;;;;1310.6669582999984;None;1312.566823699999;1312.8586020999992;1312.8586020999992;1312.8834021999992;1312.8834021999992;1312.9244033999985;1312.9244033999985;None;9;0;1312.9244033999985;None;1314.4243592999992;None;['7'];[0.4531230000011419];1314.4243592999992;None;0.6732246000010491;;;;;;;Emoconpilot043;2022_Jan_07_1453;BackwardMask;2020.2.8;120.04571340811813;
;f;040_y_f_h_a.jpg;happy;9;13;m;013_y_m_h_a.jpg;happy;congruent;9;mismatch;;120;150;;3;165;block2_Pilot_2;40;h_h;h_h_strong;;;;;0;1;1;1;0;49;49;49;;;;;;;;;1317.4261374999987;None;1318.807507899999;1319.1003372999985;1319.1003372999985;1319.125251899999;1319.125251899999;1319.1660013;1319.1660013;None;9;1;1319.1660013;None;1320.6659608999998;None;['7'];[0.5555562999998074];1320.6659608999998;None;0.8077246000011655;;;;;;;Emoconpilot043;2022_Jan_07_1453;BackwardMask;2020.2.8;120.04571340811813;
;m;033_o_m_s_a.jpg;sad;7;28;f;028_y_f_n_a.jpg;neutral;incongruent;8;mismatch;;130;170;;2;227;block2_Pilot_2;33;s_n;s_n_weak;;;;;0;1;1;1;0;50;50;50;;;;;;;;;1323.6663816;None;1325.5668908999996;1325.8589618999995;1325.8589618999995;1325.8756221999993;1325.8756221999993;1325.9163284999995;1325.9163284999995;None;8;1;1325.9163284999995;None;1327.4162963999988;None;['7'];[0.4294776000006095];1327.4162963999988;None;1.3773345999998128;;;;;;;Emoconpilot043;2022_Jan_07_1453;BackwardMask;2020.2.8;120.04571340811813;
;f;019_m_f_s_a.jpg;sad;7;27;m;027_o_m_h_a.jpg;happy;incongruent;9;mismatch;;130;150;;1;238;block2_Pilot_2;19;s_h;s_h_weak;;;;;0;1;1;1;0;51;51;51;;;;;;;;;1330.417227599999;None;1332.4227091999983;1332.7178460999985;1332.7178460999985;1332.7255306999996;1332.7255306999996;1332.7663514999986;1332.7663514999986;None;None;0;1332.7663514999986;None;1334.2663736999984;None;['8'];[0.35524960000111605];1334.2663736999984;None;;;;;;;;Emoconpilot043;2022_Jan_07_1453;BackwardMask;2020.2.8;120.04571340811813;
;m;016_y_m_h_a.jpg;happy;9;19;f;019_m_f_n_a.jpg;neutral;incongruent;8;mismatch;;120;170;;18;238;block2_Pilot_2;16;h_n;h_n_strong;;;;;0;1;1;1;0;52;52;52;;;;;;;;;1337.2666572999988;None;1339.257550799999;1339.5510157999997;1339.5510157999997;1339.7005347999984;1339.7005347999984;1339.7414974999992;1339.7414974999992;None;9;0;1339.7414974999992;None;1341.2415597999989;None;['7'];[2.828184699999838];1341.2415597999989;None;0.4240945000001375;;;;;;;Emoconpilot043;2022_Jan_07_1453;BackwardMask;2020.2.8;120.04571340811813;
;f;021_o_f_s_a.jpg;sad;7;8;m;008_y_m_n_a.jpg;neutral;incongruent;8;mismatch;;130;170;;1;238;block2_Pilot_2;21;s_n;s_n_strong;;;;;0;1;1;1;0;53;53;53;;;;;;;;;1344.2423165;None;1346.2310873999995;1346.5259542999993;1346.5259542999993;1346.5341173999986;1346.5341173999986;1346.5750042;1346.5750042;None;None;0;1346.5750042;None;1348.0748654999989;None;['8'];[0.28276180000102613];1348.0748654999989;None;;;;;;;;Emoconpilot043;2022_Jan_07_1453;BackwardMask;2020.2.8;120.04571340811813;
;f;012_o_f_s_a.jpg;sad;7;33;m;033_o_m_s_a.jpg;sad;congruent;7;mismatch;;130;160;;2;148;block2_Pilot_2;12;s_s;s_s_weak;;;;;0;1;1;1;0;54;54;54;;;;;;;;;1351.075287399999;None;1352.3120573999986;1352.6093825999997;1352.6093825999997;1352.6258545;1352.6258545;1352.6667957999998;1352.6667957999998;None;7;1;1352.6667957999998;None;1354.1668267999994;None;['7'];[0.478738699999667];1354.1668267999994;None;0.9068050999994739;;;;;;;Emoconpilot043;2022_Jan_07_1453;BackwardMask;2020.2.8;120.04571340811813;
;f;030_o_f_s_a.jpg;sad;7;40;f;040_y_f_s_a.jpg;sad;congruent;7;match;;130;160;;3;136;block2_Pilot_2;30;s_s;s_s_strong;;;;;0;1;1;1;0;55;55;55;;;;;;;;;1357.1679274999988;None;1358.3210503999999;1358.6100306999997;1358.6100306999997;1358.634347199999;1358.634347199999;1358.6753429;1358.6753429;None;7;1;1358.6753429;None;1360.1761130999985;None;['7'];[1.2055758999995305];1360.1761130999985;None;0.9143913999996585;;;;;;;Emoconpilot043;2022_Jan_07_1453;BackwardMask;2020.2.8;120.04571340811813;
;m;027_o_m_s_a.jpg;sad;7;28;f;028_y_f_h_a.jpg;happy;incongruent;9;mismatch;;130;150;;1;238;block2_Pilot_2;27;s_h;s_h_weak;;;;;0;1;1;1;0;56;56;56;;;;;;;;;1363.1765006999995;None;1365.1666075999983;1365.4596509999992;1365.4596509999992;1365.4677814999995;1365.4677814999995;1365.5087089999997;1365.5087089999997;None;7;0;1365.5087089999997;None;1367.0087977999992;None;['8'];[0.6209003999993001];1367.0087977999992;None;1.024971099999675;;;;;;;Emoconpilot043;2022_Jan_07_1453;BackwardMask;2020.2.8;120.04571340811813;
;m;004_o_m_n_a.jpg;neutral;8;8;m;008_y_m_s_a.jpg;sad;incongruent;7;match;;140;160;;3;225;block2_Pilot_2;4;n_s;n_s_strong;;;;;0;1;1;1;0;57;57;57;;;;;;;;;1370.0096501999997;None;1371.9048590999992;1372.1936854999985;1372.1936854999985;1372.2179319999996;1372.2179319999996;1372.2587928999983;1372.2587928999983;None;None;0;1372.2587928999983;None;1373.7596132999988;None;['7'];[0.5020882999997411];1373.7596132999988;None;;;;;;;;Emoconpilot043;2022_Jan_07_1453;BackwardMask;2020.2.8;120.04571340811813;
;f;012_o_f_s_a.jpg;sad;7;40;f;040_y_f_s_a.jpg;sad;congruent;7;match;;130;160;;1;238;block2_Pilot_2;12;s_s;s_s_strong;;;;;0;1;1;1;0;58;58;58;;;;;;;;;1376.7596766999995;None;1378.7461535999992;1379.0432241999988;1379.0432241999988;1379.0514306999994;1379.0514306999994;1379.0923122999993;1379.0923122999993;None;None;0;1379.0923122999993;None;1380.5923659;None;['8'];[0.3492233999986638];1380.5923659;None;;;;;;;;Emoconpilot043;2022_Jan_07_1453;BackwardMask;2020.2.8;120.04571340811813;
;f;021_o_f_h_a.jpg;happy;9;4;m;004_o_m_n_a.jpg;neutral;incongruent;8;mismatch;;120;170;;1;238;block2_Pilot_2;21;h_n;h_n_weak;;;;;0;1;1;1;0;59;59;59;;;;;;;;;1383.5941459999995;None;1385.5955867999983;1385.885464699999;1385.885464699999;1385.8931262999995;1385.8931262999995;1385.9341189999996;1385.9341189999996;None;None;0;1385.9341189999996;None;1387.4343704999992;None;['9'];[0.43534939999881317];1387.4343704999992;None;;;;;;;;Emoconpilot043;2022_Jan_07_1453;BackwardMask;2020.2.8;120.04571340811813;
;f;040_y_f_h_a.jpg;happy;9;16;m;016_y_m_n_a.jpg;neutral;incongruent;8;mismatch;;120;170;;2;154;block2_Pilot_2;40;h_n;h_n_weak;;;;;0;1;1;1;0;60;60;60;;;;;;;;;1390.4357650999991;None;1391.7256020999994;1392.0184498999988;1392.0184498999988;1392.0350077999992;1392.0350077999992;1392.0758584999985;1392.0758584999985;None;9;0;1392.0758584999985;None;1393.5758492999994;None;['7'];[0.3818929000008211];1393.5758492999994;None;0.8978972000004433;;;;;;;Emoconpilot043;2022_Jan_07_1453;BackwardMask;2020.2.8;120.04571340811813;
;m;008_y_m_n_a.jpg;neutral;8;4;m;004_o_m_s_a.jpg;sad;incongruent;7;match;;140;160;;18;145;block2_Pilot_2;8;n_s;n_s_strong;;;;;0;1;1;1;0;61;61;61;;;;;;;;;1396.5759934999987;None;1397.8094408999987;1398.1023304999999;1398.1023304999999;1398.251836899999;1398.251836899999;1398.2928579;1398.2928579;None;8;0;1398.2928579;None;1399.792798999999;None;['7'];[0.3167857999997068];1399.792798999999;None;0.6247330999995029;;;;;;;Emoconpilot043;2022_Jan_07_1453;BackwardMask;2020.2.8;120.04571340811813;
;f;021_o_f_s_a.jpg;sad;7;33;m;033_o_m_h_a.jpg;happy;incongruent;9;mismatch;;130;150;;1;238;block2_Pilot_2;21;s_h;s_h_strong;;;;;0;1;1;1;0;62;62;62;;;;;;;;;1402.7931961999984;None;1404.781946699999;1405.0771526999997;1405.0771526999997;1405.0853836999995;1405.0853836999995;1405.1262705999998;1405.1262705999998;None;None;0;1405.1262705999998;None;1406.6263337;None;['9'];[0.6991782000004605];1406.6263337;None;;;;;;;;Emoconpilot043;2022_Jan_07_1453;BackwardMask;2020.2.8;120.04571340811813;
;m;033_o_m_n_a.jpg;neutral;8;30;f;030_o_f_h_a.jpg;happy;incongruent;9;mismatch;;140;150;;18;171;block2_Pilot_2;33;n_h;n_h_weak;;;;;0;1;1;1;0;63;63;63;;;;;;;;;1409.6272669999998;None;1411.0733259999997;1411.3694056999993;1411.3694056999993;1411.518880399999;1411.518880399999;1411.5595704999996;1411.5595704999996;None;8;0;1411.5595704999996;None;1413.0603797999993;None;['7'];[0.3853200999983528];1413.0603797999993;None;0.933910100000503;;;;;;;Emoconpilot043;2022_Jan_07_1453;BackwardMask;2020.2.8;120.04571340811813;
;m;027_o_m_n_a.jpg;neutral;8;27;m;027_o_m_h_a.jpg;happy;incongruent;9;match;;140;150;;2;164;block2_Pilot_2;27;n_h;n_h_weak;;;;;0;1;1;1;0;64;64;64;;;;;;;;;1416.060875699999;None;1417.4465759999985;1417.7361987999993;1417.7361987999993;1417.7523248999987;1417.7523248999987;1417.7931222999996;1417.7931222999996;None;None;0;1417.7931222999996;None;1419.2933672;None;['9'];[1.0483444000001327];1419.2933672;None;;;;;;;;Emoconpilot043;2022_Jan_07_1453;BackwardMask;2020.2.8;120.04571340811813;
;m;008_y_m_n_a.jpg;neutral;8;40;f;040_y_f_n_a.jpg;neutral;congruent;8;mismatch;;140;170;;1;238;block2_Pilot_2;8;n_n;n_n_strong;;;;;0;1;1;1;0;65;65;65;;;;;;;;;1422.2946868999989;None;1424.2957668;1424.5861501;1424.5861501;1424.5940212999994;1424.5940212999994;1424.634828799999;1424.634828799999;None;None;0;1424.634828799999;None;1426.1348476999992;None;['8'];[0.5426969999989524];1426.1348476999992;None;;;;;;;;Emoconpilot043;2022_Jan_07_1453;BackwardMask;2020.2.8;120.04571340811813;
;f;040_y_f_h_a.jpg;happy;9;21;f;021_o_f_n_a.jpg;neutral;incongruent;8;match;;120;170;;18;239;block2_Pilot_2;40;h_n;h_n_strong;;;;;0;1;1;1;0;66;66;66;;;;;;;;;1429.1349617999986;None;1431.1356145999998;1431.4277014;1431.4277014;1431.5773775999987;1431.5773775999987;1431.6184372999996;1431.6184372999996;None;9;0;1431.6184372999996;None;1433.1185609999993;None;['7'];[0.5110449000003427];1433.1185609999993;None;0.6352016000000731;;;;;;;Emoconpilot043;2022_Jan_07_1453;BackwardMask;2020.2.8;120.04571340811813;
;f;021_o_f_s_a.jpg;sad;7;28;f;028_y_f_h_a.jpg;happy;incongruent;9;match;;130;150;;1;238;block2_Pilot_2;21;s_h;s_h_weak;;;;;0;1;1;1;0;67;67;67;;;;;;;;;1436.1185023999988;None;1438.1080173999999;1438.4027477;1438.4027477;1438.4108787999994;1438.4108787999994;1438.451700399999;1438.451700399999;None;None;0;1438.451700399999;None;1439.9520389999998;None;['9'];[0.3576377000008506];1439.9520389999998;None;;;;;;;;Emoconpilot043;2022_Jan_07_1453;BackwardMask;2020.2.8;120.04571340811813;
;f;021_o_f_n_a.jpg;neutral;8;30;f;030_o_f_n_a.jpg;neutral;congruent;8;match;;140;170;;2;209;block2_Pilot_2;21;n_n;n_n_strong;;;;;0;1;1;1;0;68;68;68;;;;;;;;;1442.9524712999992;None;1444.7438566;1445.0367044999985;1445.0367044999985;1445.0527106999998;1445.0527106999998;1445.0935729999983;1445.0935729999983;None;None;0;1445.0935729999983;None;1446.5937899;None;['9'];[0.5956723999988753];1446.5937899;None;;;;;;;;Emoconpilot043;2022_Jan_07_1453;BackwardMask;2020.2.8;120.04571340811813;
;f;040_y_f_s_a.jpg;sad;7;13;m;013_y_m_s_a.jpg;sad;congruent;7;mismatch;;130;160;;3;147;block2_Pilot_2;40;s_s;s_s_strong;;;;;0;1;1;1;0;69;69;69;;;;;;;;;1449.5950709999997;None;1450.8264980999993;1451.1197904;1451.1197904;1451.1445120999997;1451.1445120999997;1451.1854114999987;1451.1854114999987;None;7;1;1451.1854114999987;None;1452.6854533999995;None;['7'];[0.44022900000163645];1452.6854533999995;None;1.2521195999997872;;;;;;;Emoconpilot043;2022_Jan_07_1453;BackwardMask;2020.2.8;120.04571340811813;
;f;040_y_f_s_a.jpg;sad;7;21;f;021_o_f_h_a.jpg;happy;incongruent;9;match;;130;150;;3;172;block2_Pilot_2;40;s_h;s_h_strong;;;;;0;1;1;1;0;70;70;70;;;;;;;;;1455.6855198999983;None;1457.1272078999991;1457.4198914999997;1457.4198914999997;1457.4447161999997;1457.4447161999997;1457.4854856999991;1457.4854856999991;None;7;0;1457.4854856999991;None;1458.9854943999999;None;['7'];[0.3961317000012059];1458.9854943999999;None;0.7040894000001572;;;;;;;Emoconpilot043;2022_Jan_07_1453;BackwardMask;2020.2.8;120.04571340811813;
;m;013_y_m_s_a.jpg;sad;7;16;m;016_y_m_n_a.jpg;neutral;incongruent;8;match;;130;170;;1;238;block2_Pilot_2;13;s_n;s_n_strong;;;;;0;1;1;1;0;71;71;71;;;;;;;;;1461.9864239999988;None;1463.9772674999986;1464.2699727999989;1464.2699727999989;1464.2782315999993;1464.2782315999993;1464.3189143;1464.3189143;None;None;0;1464.3189143;None;1465.8192225999992;None;['9'];[1.3463303999997152];1465.8192225999992;None;;;;;;;;Emoconpilot043;2022_Jan_07_1453;BackwardMask;2020.2.8;120.04571340811813;
;m;008_y_m_s_a.jpg;sad;7;12;f;012_o_f_h_a.jpg;happy;incongruent;9;mismatch;;130;150;;18;238;block2_Pilot_2;8;s_h;s_h_weak;;;;;0;1;1;1;0;72;72;72;;;;;;;;;1468.8199570999986;None;1470.8235132999998;1471.1119822;1471.1119822;1471.2616247999995;1471.2616247999995;1471.3023295999992;1471.3023295999992;None;7;0;1471.3023295999992;None;1472.8032912999988;None;['7'];[0.38636140000016894];1472.8032912999988;None;0.6473108000009233;;;;;;;Emoconpilot043;2022_Jan_07_1453;BackwardMask;2020.2.8;120.04571340811813;
