Person;primeGender;prime;primeEmotion;corrAnsPrime;targetPerson;targetGender;target;targetEmotion;Cond;corrAnsTar;gender;condition;ID_primer;ID_target;PrimerTime;PrimerTime120;JitterTime;conditionsFile;primePerson;emotion_condition;Condition;example.thisRepN;example.thisTrialN;example.thisN;example.thisIndex;readinBlocks.thisRepN;readinBlocks.thisTrialN;readinBlocks.thisN;readinBlocks.thisIndex;trials.thisRepN;trials.thisTrialN;trials.thisN;trials.thisIndex;text_intro.started;text_intro.stopped;text_probe.started;text_probe.stopped;key_resp_2.keys;key_resp_2.rt;key_resp_2.started;key_resp_2.stopped;polygon_ISI.started;polygon_ISI.stopped;polygon.started;polygon.stopped;primerImage.started;primerImage.stopped;maskImage.started;maskImage.stopped;response.started;response.stopped;key_resp.keys;key_resp.corr;key_resp.started;key_resp.stopped;text.started;text.stopped;key_resp_Rating.keys;key_resp_Rating.rt;key_resp_Rating.started;key_resp_Rating.stopped;text_start.started;text_start.stopped;text_pause.started;text_pause.stopped;key_resp.rt;text_ende.started;text_ende.stopped;participant;date;expName;psychopyVersion;frameRate;
;;;;;;;;;;;;;;;;;;;;;;;;;;;;;;;;;;268.23731059999955;273.2049379;273.2049379;None;space;15.251176800000394;268.23731059999955;None;;;;;;;;;;;;;;;;;;;;;;;;;;;;Emoconpilot042;2022_Jan_07_1403;BackwardMask;2020.2.8;120.16183395838074;
2;f;1113_y_f_s_a.jpg;sad;7;1;m;1111_m_m_h_a.jpg;happy;incongruent;9;mix;s+h;130;150;1;2;148;;;;;0;0;0;0;;;;;;;;;;;;;;;;;283.5573870999997;None;284.80653470000107;285.1163979000012;285.1163979000012;285.13468680000005;285.13468680000005;285.1704891999998;285.1704891999998;None;None;0;285.1704891999998;None;286.67196090000107;None;['9'];[2.440659699999742];286.67196090000107;None;;;;;;;;Emoconpilot042;2022_Jan_07_1403;BackwardMask;2020.2.8;120.16183395838074;
2;f;1111_m_m_h_a.jpg;happy;9;3;f;1113_y_f_s_a.jpg;sad;incongruent;7;mix;h+s;120;160;9;18;195;;;;;0;1;1;1;;;;;;;;;;;;;;;;;289.6716913;None;291.31896100000085;291.61382760000015;291.61382760000015;291.76308340000105;291.76308340000105;291.80399800000123;291.80399800000123;None;None;0;291.80399800000123;None;293.3041279000008;None;['9'];[1.92014460000064];293.3041279000008;None;;;;;;;;Emoconpilot042;2022_Jan_07_1403;BackwardMask;2020.2.8;120.16183395838074;
2;f;1112_m_f_n_a.jpg;neutral;8;2;f;1112_m_f_n_a.jpg;neutral;congruent;8;match;n+n;140;170;9;18;134;;;;;0;2;2;2;;;;;;;;;;;;;;;;;296.3050084000006;None;297.4428970000008;297.73890140000003;297.73890140000003;297.8884242000004;297.8884242000004;297.92917880000095;297.92917880000095;None;None;0;297.92917880000095;None;299.429128400001;None;['9'];[1.795414599999276];299.429128400001;None;;;;;;;;Emoconpilot042;2022_Jan_07_1403;BackwardMask;2020.2.8;120.16183395838074;
;m;033_o_m_h_a.jpg;happy;9;30;f;030_o_f_n_a.jpg;neutral;incongruent;8;mismatch;;120;170;;18;238;block1_Pilot_2;33;h_n;h_n_strong;;;;;0;0;0;0;0;0;0;0;;;;;;;;;303.47095679999984;None;305.46373459999995;305.7553246999996;305.7553246999996;305.90522630000123;305.90522630000123;305.9458699000006;305.9458699000006;None;None;0;305.9458699000006;None;307.44699910000054;None;"['9', '7']";"[0.12950799999998708, 1.9374468000005436]";307.44699910000054;None;302.4297243000001;None;None;None;;;;Emoconpilot042;2022_Jan_07_1403;BackwardMask;2020.2.8;120.16183395838074;
;m;004_o_m_h_a.jpg;happy;9;12;f;012_o_f_h_a.jpg;happy;congruent;9;mismatch;;120;150;;2;218;block1_Pilot_2;4;h_h;h_h_weak;;;;;0;0;0;0;0;1;1;1;;;;;;;;;310.44770940000126;None;312.28687549999995;312.5807482;312.5807482;312.59696690000055;312.59696690000055;312.6379558999997;312.6379558999997;None;None;0;312.6379558999997;None;314.1377809000005;None;['9'];[1.1826636000005237];314.1377809000005;None;;;;;;;;Emoconpilot042;2022_Jan_07_1403;BackwardMask;2020.2.8;120.16183395838074;
;f;012_o_f_h_a.jpg;happy;9;33;m;033_o_m_h_a.jpg;happy;congruent;9;mismatch;;120;150;;2;140;block1_Pilot_2;12;h_h;h_h_weak;;;;;0;0;0;0;0;2;2;2;;;;;;;;;317.1381450000008;None;318.3196065000011;318.6138965000009;318.6138965000009;318.63038360000064;318.63038360000064;318.67148540000017;318.67148540000017;None;None;0;318.67148540000017;None;320.1713610000006;None;['9'];[0.5968983000002481];320.1713610000006;None;;;;;;;;Emoconpilot042;2022_Jan_07_1403;BackwardMask;2020.2.8;120.16183395838074;
;f;040_y_f_n_a.jpg;neutral;8;40;f;040_y_f_h_a.jpg;happy;incongruent;9;match;;140;150;;2;192;block1_Pilot_2;40;n_h;n_h_weak;;;;;0;0;0;0;0;3;3;3;;;;;;;;;323.1714071000006;None;324.7952234000004;325.08936820000054;325.08936820000054;325.10555320000094;325.10555320000094;325.1464410000008;325.1464410000008;None;None;0;325.1464410000008;None;326.6464252000005;None;['9'];[0.6098674999993818];326.6464252000005;None;;;;;;;;Emoconpilot042;2022_Jan_07_1403;BackwardMask;2020.2.8;120.16183395838074;
;m;013_y_m_s_a.jpg;sad;7;16;m;016_y_m_n_a.jpg;neutral;incongruent;8;match;;130;170;;3;155;block1_Pilot_2;13;s_n;s_n_weak;;;;;0;0;0;0;0;4;4;4;;;;;;;;;329.6465083000003;None;330.95811270000013;331.24759559999984;331.24759559999984;331.27225420000104;331.27225420000104;331.3131463999998;331.3131463999998;None;None;0;331.3131463999998;None;332.8131473000012;None;['9'];[0.6833058000011079];332.8131473000012;None;;;;;;;;Emoconpilot042;2022_Jan_07_1403;BackwardMask;2020.2.8;120.16183395838074;
;f;012_o_f_h_a.jpg;happy;9;21;f;021_o_f_h_a.jpg;happy;congruent;9;match;;120;150;;2;216;block1_Pilot_2;12;h_h;h_h_strong;;;;;0;0;0;0;0;5;5;5;;;;;;;;;335.81416960000024;None;337.6212570000007;337.9143624999997;337.9143624999997;337.93076400000064;337.93076400000064;337.9716189999999;337.9716189999999;None;None;0;337.9716189999999;None;339.4718154000002;None;['9'];[0.7526729999990494];339.4718154000002;None;;;;;;;;Emoconpilot042;2022_Jan_07_1403;BackwardMask;2020.2.8;120.16183395838074;
;f;040_y_f_s_a.jpg;sad;7;40;f;040_y_f_h_a.jpg;happy;incongruent;9;match;;130;150;;1;238;block1_Pilot_2;40;s_h;s_h_weak;;;;;0;0;0;0;0;6;6;6;;;;;;;;;342.471833900001;None;344.466713400001;344.7560489999996;344.7560489999996;344.76404209999964;344.76404209999964;344.80512799999997;344.80512799999997;None;None;0;344.80512799999997;None;346.3049952000001;None;['9'];[0.7194677000006777];346.3049952000001;None;;;;;;;;Emoconpilot042;2022_Jan_07_1403;BackwardMask;2020.2.8;120.16183395838074;
;m;033_o_m_n_a.jpg;neutral;8;27;m;027_o_m_n_a.jpg;neutral;congruent;8;match;;140;170;;18;238;block1_Pilot_2;33;n_n;n_n_weak;;;;;0;0;0;0;0;7;7;7;;;;;;;;;349.3056581000001;None;351.42129229999955;351.71497980000095;351.71497980000095;351.86412949999976;351.86412949999976;351.9049259000003;351.9049259000003;None;8;1;351.9049259000003;None;353.40654220000033;None;['7'];[0.8260290999987774];353.40654220000033;None;;;;;1.2473605999985011;;;Emoconpilot042;2022_Jan_07_1403;BackwardMask;2020.2.8;120.16183395838074;
;f;040_y_f_h_a.jpg;happy;9;19;f;019_m_f_n_a.jpg;neutral;incongruent;8;match;;120;170;;1;238;block1_Pilot_2;40;h_n;h_n_strong;;;;;0;0;0;0;0;8;8;8;;;;;;;;;356.40541870000015;None;358.4006212000004;358.6896321000004;358.6896321000004;358.69788400000107;358.69788400000107;358.7387279000013;358.7387279000013;None;None;0;358.7387279000013;None;360.2393466000012;None;['9'];[0.7051912999995693];360.2393466000012;None;;;;;;;;Emoconpilot042;2022_Jan_07_1403;BackwardMask;2020.2.8;120.16183395838074;
;m;013_y_m_h_a.jpg;happy;9;12;f;012_o_f_s_a.jpg;sad;incongruent;7;mismatch;;120;160;;3;198;block1_Pilot_2;13;h_s;h_s_weak;;;;;0;0;0;0;0;9;9;9;;;;;;;;;363.2387995000008;None;364.9138175999997;365.2066969000007;365.2066969000007;365.2313052999998;365.2313052999998;365.2720468999996;365.2720468999996;None;9;0;365.2720468999996;None;366.77215740000065;None;['7'];[0.6042311000001064];366.77215740000065;None;;;;;1.104278599999816;;;Emoconpilot042;2022_Jan_07_1403;BackwardMask;2020.2.8;120.16183395838074;
;m;008_y_m_h_a.jpg;happy;9;4;m;004_o_m_n_a.jpg;neutral;incongruent;8;match;;120;170;;18;150;block1_Pilot_2;8;h_n;h_n_strong;;;;;0;0;0;0;0;10;10;10;;;;;;;;;369.77333440000075;None;371.03407160000097;371.32327740000073;371.32327740000073;371.4729563000001;371.4729563000001;371.51399560000027;371.51399560000027;None;9;0;371.51399560000027;None;373.01404080000066;None;['7'];[1.618446500000573];373.01404080000066;None;;;;;1.3665065999994113;;;Emoconpilot042;2022_Jan_07_1403;BackwardMask;2020.2.8;120.16183395838074;
;f;019_m_f_h_a.jpg;happy;9;27;m;027_o_m_s_a.jpg;sad;incongruent;7;mismatch;;120;160;;1;238;block1_Pilot_2;19;h_s;h_s_weak;;;;;0;0;0;0;0;11;11;11;;;;;;;;;376.0150637000006;None;378.0082308000001;378.29841529999976;378.29841529999976;378.3067234000009;378.3067234000009;378.3474898000004;378.3474898000004;None;None;0;378.3474898000004;None;379.8474962;None;['9'];[0.48091759999988426];379.8474962;None;;;;;;;;Emoconpilot042;2022_Jan_07_1403;BackwardMask;2020.2.8;120.16183395838074;
;m;016_y_m_s_a.jpg;sad;7;4;m;004_o_m_s_a.jpg;sad;congruent;7;match;;130;160;;18;142;block1_Pilot_2;16;s_s;s_s_strong;;;;;0;0;0;0;0;12;12;12;;;;;;;;;382.8481601000003;None;384.04276740000023;384.3319423000012;384.3319423000012;384.4816533000012;384.4816533000012;384.5224936000013;384.5224936000013;None;7;1;384.5224936000013;None;386.0225054000002;None;['7'];[1.705850799999098];386.0225054000002;None;;;;;1.189962899999955;;;Emoconpilot042;2022_Jan_07_1403;BackwardMask;2020.2.8;120.16183395838074;
;f;021_o_f_n_a.jpg;neutral;8;21;f;021_o_f_h_a.jpg;happy;incongruent;9;match;;140;150;;3;171;block1_Pilot_2;21;n_h;n_h_weak;;;;;0;0;0;0;0;13;13;13;;;;;;;;;389.0235541000002;None;390.47438669999974;390.76578640000116;390.76578640000116;390.790222900001;390.790222900001;390.8310407000008;390.8310407000008;None;None;0;390.8310407000008;None;392.3311558000005;None;"['8', '8']";"[0.021287500001562876, 1.1412734000005003]";392.3311558000005;None;;;;;;;;Emoconpilot042;2022_Jan_07_1403;BackwardMask;2020.2.8;120.16183395838074;
;f;012_o_f_h_a.jpg;happy;9;13;m;013_y_m_h_a.jpg;happy;congruent;9;mismatch;;120;150;;3;213;block1_Pilot_2;12;h_h;h_h_weak;;;;;0;0;0;0;0;14;14;14;;;;;;;;;395.3319646;None;397.11445170000115;397.4073248000004;397.4073248000004;397.43197500000133;397.43197500000133;397.4727703999997;397.4727703999997;None;9;1;397.4727703999997;None;398.97297360000084;None;['8'];[0.8594358000009379];398.97297360000084;None;;;;;1.4077118999994127;;;Emoconpilot042;2022_Jan_07_1403;BackwardMask;2020.2.8;120.16183395838074;
;f;021_o_f_s_a.jpg;sad;7;27;m;027_o_m_n_a.jpg;neutral;incongruent;8;mismatch;;130;170;;3;174;block1_Pilot_2;21;s_n;s_n_weak;;;;;0;0;0;0;0;15;15;15;;;;;;;;;401.9738156000003;None;403.4348332999998;403.7239361000011;403.7239361000011;403.7487507000005;403.7487507000005;403.78948930000115;403.78948930000115;None;None;0;403.78948930000115;None;405.29041940000025;None;"['9', '8']";"[0.014032600000064122, 0.7100459000012052]";405.29041940000025;None;;;;;;;;Emoconpilot042;2022_Jan_07_1403;BackwardMask;2020.2.8;120.16183395838074;
;f;019_m_f_n_a.jpg;neutral;8;19;f;019_m_f_h_a.jpg;happy;incongruent;9;match;;140;150;;3;238;block1_Pilot_2;19;n_h;n_h_weak;;;;;0;0;0;0;0;16;16;16;;;;;;;;;408.29045080000105;None;410.3132053999998;410.60776910000095;410.60776910000095;410.6322517999997;410.6322517999997;410.6731036000001;410.6731036000001;None;8;0;410.6731036000001;None;412.1731553000009;None;['8'];[0.5393246000003273];412.1731553000009;None;;;;;1.0153477999992901;;;Emoconpilot042;2022_Jan_07_1403;BackwardMask;2020.2.8;120.16183395838074;
;f;028_y_f_n_a.jpg;neutral;8;30;f;030_o_f_s_a.jpg;sad;incongruent;7;match;;140;160;;18;219;block1_Pilot_2;28;n_s;n_s_weak;;;;;0;0;0;0;0;17;17;17;;;;;;;;;415.17420909999964;None;417.02151120000053;417.3163295000013;417.3163295000013;417.46564390000094;417.46564390000094;417.50654209999993;417.50654209999993;None;8;0;417.50654209999993;None;419.00647560000107;None;['7'];[1.1539150999997219];419.00647560000107;None;;;;;0.8858782999996038;;;Emoconpilot042;2022_Jan_07_1403;BackwardMask;2020.2.8;120.16183395838074;
;m;008_y_m_h_a.jpg;happy;9;8;m;008_y_m_s_a.jpg;sad;incongruent;7;match;;120;160;;3;176;block1_Pilot_2;8;h_s;h_s_weak;;;;;0;0;0;0;0;18;18;18;;;;;;;;;422.0075906000002;None;423.48176290000083;423.7744197000011;423.7744197000011;423.79920090000087;423.79920090000087;423.84001030000036;423.84001030000036;None;9;0;423.84001030000036;None;425.3399975000011;None;['8'];[0.7164668000004895];425.3399975000011;None;;;;;1.0964425000001938;;;Emoconpilot042;2022_Jan_07_1403;BackwardMask;2020.2.8;120.16183395838074;
;f;019_m_f_h_a.jpg;happy;9;33;m;033_o_m_n_a.jpg;neutral;incongruent;8;mismatch;;120;170;;18;136;block1_Pilot_2;19;h_n;h_n_weak;;;;;0;0;0;0;0;19;19;19;;;;;;;;;428.341112600001;None;429.48108390000016;429.7743205000006;429.7743205000006;429.92427230000067;429.92427230000067;429.9651752999998;429.9651752999998;None;9;0;429.9651752999998;None;431.4651878000004;None;['7'];[0.45511160000023665];431.4651878000004;None;;;;;1.1232085999999981;;;Emoconpilot042;2022_Jan_07_1403;BackwardMask;2020.2.8;120.16183395838074;
;m;013_y_m_n_a.jpg;neutral;8;12;f;012_o_f_s_a.jpg;sad;incongruent;7;mismatch;;140;160;;2;132;block1_Pilot_2;13;n_s;n_s_strong;;;;;0;0;0;0;0;20;20;20;;;;;;;;;434.46597570000085;None;435.6099226000006;435.9000735999998;435.9000735999998;435.91602740000053;435.91602740000053;435.95691389999956;435.95691389999956;None;None;0;435.95691389999956;None;437.45700729999953;None;['9'];[0.5354601999988517];437.45700729999953;None;;;;;;;;Emoconpilot042;2022_Jan_07_1403;BackwardMask;2020.2.8;120.16183395838074;
;f;040_y_f_s_a.jpg;sad;7;8;m;008_y_m_h_a.jpg;happy;incongruent;9;mismatch;;130;150;;2;175;block1_Pilot_2;40;s_h;s_h_weak;;;;;0;0;0;0;0;21;21;21;;;;;;;;;440.45706319999954;None;441.92324259999987;442.2164079000013;442.2164079000013;442.23285100000066;442.23285100000066;442.2736703999999;442.2736703999999;None;None;0;442.2736703999999;None;443.77359140000044;None;"['9', '8']";"[0.09889159999875119, 0.674773799999457]";443.77359140000044;None;;;;;;;;Emoconpilot042;2022_Jan_07_1403;BackwardMask;2020.2.8;120.16183395838074;
;m;004_o_m_h_a.jpg;happy;9;40;f;040_y_f_s_a.jpg;sad;incongruent;7;mismatch;;120;160;;2;193;block1_Pilot_2;4;h_s;h_s_weak;;;;;0;0;0;0;0;22;22;22;;;;;;;;;446.77485979999983;None;448.40922649999993;448.70026880000114;448.70026880000114;448.71630670000013;448.71630670000013;448.7571633000007;448.7571633000007;None;9;0;448.7571633000007;None;450.2575016999999;None;['8'];[0.41493850000006205];450.2575016999999;None;;;;;1.043310000000929;;;Emoconpilot042;2022_Jan_07_1403;BackwardMask;2020.2.8;120.16183395838074;
;f;028_y_f_s_a.jpg;sad;7;13;m;013_y_m_n_a.jpg;neutral;incongruent;8;mismatch;;130;170;;2;126;block1_Pilot_2;28;s_n;s_n_weak;;;;;0;0;0;0;0;23;23;23;;;;;;;;;453.2583059999997;None;454.3219473999998;454.6166505000001;454.6166505000001;454.63321560000077;454.63321560000077;454.67389580000054;454.67389580000054;None;9;0;454.67389580000054;None;456.17419300000074;None;['8'];[0.5222530999999435];456.17419300000074;None;;;;;1.4225495999999112;;;Emoconpilot042;2022_Jan_07_1403;BackwardMask;2020.2.8;120.16183395838074;
;m;004_o_m_h_a.jpg;happy;9;40;f;040_y_f_n_a.jpg;neutral;incongruent;8;mismatch;;120;170;;3;146;block1_Pilot_2;4;h_n;h_n_strong;;;;;0;0;0;0;0;24;24;24;;;;;;;;;459.1741103000004;None;460.4183544999996;460.7087736000012;460.7087736000012;460.73322870000084;460.73322870000084;460.774179;460.774179;None;9;0;460.774179;None;462.2741696000012;None;['8'];[0.5742687000001752];462.2741696000012;None;;;;;0.8262776999999915;;;Emoconpilot042;2022_Jan_07_1403;BackwardMask;2020.2.8;120.16183395838074;
;m;008_y_m_s_a.jpg;sad;7;30;f;030_o_f_n_a.jpg;neutral;incongruent;8;mismatch;;130;170;;3;132;block1_Pilot_2;8;s_n;s_n_strong;;;;;0;0;0;0;0;25;25;25;;;;;;;;;465.2749014000001;None;466.3980343000003;466.69201650000105;466.69201650000105;466.7164891000011;466.7164891000011;466.7572519000005;466.7572519000005;None;8;1;466.7572519000005;None;468.2574263000006;None;['8'];[0.5510589999994409];468.2574263000006;None;;;;;1.0591038999991724;;;Emoconpilot042;2022_Jan_07_1403;BackwardMask;2020.2.8;120.16183395838074;
;f;040_y_f_n_a.jpg;neutral;8;40;f;040_y_f_s_a.jpg;sad;incongruent;7;match;;140;160;;2;123;block1_Pilot_2;40;n_s;n_s_weak;;;;;0;0;0;0;0;26;26;26;;;;;;;;;471.2585020000006;None;472.3013234000009;472.59241830000065;472.59241830000065;472.6085485000003;472.6085485000003;472.64945500000067;472.64945500000067;None;None;0;472.64945500000067;None;474.1492011999999;None;['9'];[0.6192931000005046];474.1492011999999;None;;;;;;;;Emoconpilot042;2022_Jan_07_1403;BackwardMask;2020.2.8;120.16183395838074;
;f;028_y_f_s_a.jpg;sad;7;27;m;027_o_m_s_a.jpg;sad;congruent;7;mismatch;;130;160;;3;159;block1_Pilot_2;28;s_s;s_s_weak;;;;;0;0;0;0;0;27;27;27;;;;;;;;;477.15107660000103;None;478.4868391;478.77532770000107;478.77532770000107;478.80028669999956;478.80028669999956;478.8409926000004;478.8409926000004;None;None;0;478.8409926000004;None;480.3413192000007;None;['9'];[0.6031768000011652];480.3413192000007;None;;;;;;;;Emoconpilot042;2022_Jan_07_1403;BackwardMask;2020.2.8;120.16183395838074;
;f;012_o_f_s_a.jpg;sad;7;27;m;027_o_m_s_a.jpg;sad;congruent;7;mismatch;;130;160;;18;166;block1_Pilot_2;12;s_s;s_s_weak;;;;;0;0;0;0;0;28;28;28;;;;;;;;;483.3422726000008;None;484.7407488000008;485.0338088999997;485.0338088999997;485.1837078000008;485.1837078000008;485.22471080000105;485.22471080000105;None;7;1;485.22471080000105;None;486.72520260000056;None;['7'];[0.7391552000008232];486.72520260000056;None;;;;;1.2476557000009052;;;Emoconpilot042;2022_Jan_07_1403;BackwardMask;2020.2.8;120.16183395838074;
;f;028_y_f_n_a.jpg;neutral;8;28;f;028_y_f_h_a.jpg;happy;incongruent;9;match;;140;150;;2;186;block1_Pilot_2;28;n_h;n_h_weak;;;;;0;0;0;0;0;29;29;29;;;;;;;;;489.72477210000034;None;491.30893240000114;491.6010201000008;491.6010201000008;491.6172161000013;491.6172161000013;491.65801509999983;491.65801509999983;None;8;0;491.65801509999983;None;493.1581075000013;None;['7'];[0.9143401000001177];493.1581075000013;None;;;;;0.8785227999997005;;;Emoconpilot042;2022_Jan_07_1403;BackwardMask;2020.2.8;120.16183395838074;
;m;027_o_m_n_a.jpg;neutral;8;16;m;016_y_m_n_a.jpg;neutral;congruent;8;match;;140;170;;2;188;block1_Pilot_2;27;n_n;n_n_weak;;;;;0;0;0;0;0;30;30;30;;;;;;;;;496.15852280000036;None;497.75128010000117;498.04292329999953;498.04292329999953;498.05913710000095;498.05913710000095;498.10000200000104;498.10000200000104;None;None;0;498.10000200000104;None;499.59982780000064;None;['9'];[0.3445551000004343];499.59982780000064;None;;;;;;;;Emoconpilot042;2022_Jan_07_1403;BackwardMask;2020.2.8;120.16183395838074;
;f;012_o_f_s_a.jpg;sad;7;13;m;013_y_m_n_a.jpg;neutral;incongruent;8;mismatch;;130;170;;3;162;block1_Pilot_2;12;s_n;s_n_strong;;;;;0;0;0;0;0;31;31;31;;;;;;;;;502.6007798999999;None;503.95395550000103;504.2508120000002;504.2508120000002;504.2757609;504.2757609;504.3166653999997;504.3166653999997;None;None;0;504.3166653999997;None;505.81671350000033;None;['9'];[0.5517539000011311];505.81671350000033;None;;;;;;;;Emoconpilot042;2022_Jan_07_1403;BackwardMask;2020.2.8;120.16183395838074;
;f;012_o_f_s_a.jpg;sad;7;16;m;016_y_m_h_a.jpg;happy;incongruent;9;mismatch;;130;150;;1;238;block1_Pilot_2;12;s_h;s_h_strong;;;;;0;0;0;0;0;32;32;32;;;;;;;;;508.81777239999974;None;510.8034260000004;511.10099470000023;511.10099470000023;511.10938410000017;511.10938410000017;511.1503091000013;511.1503091000013;None;None;0;511.1503091000013;None;512.6505834;None;['9'];[1.4458905999999843];512.6505834;None;;;;;;;;Emoconpilot042;2022_Jan_07_1403;BackwardMask;2020.2.8;120.16183395838074;
;f;028_y_f_n_a.jpg;neutral;8;21;f;021_o_f_n_a.jpg;neutral;congruent;8;match;;140;170;;3;220;block1_Pilot_2;28;n_n;n_n_weak;;;;;0;0;0;0;0;33;33;33;;;;;;;;;515.650731400001;None;517.504361700001;517.7932796000005;517.7932796000005;517.8177156000002;517.8177156000002;517.8584848999999;517.8584848999999;None;8;1;517.8584848999999;None;519.3585829000003;None;['8'];[0.8898515000000771];519.3585829000003;None;;;;;1.1898421999994753;;;Emoconpilot042;2022_Jan_07_1403;BackwardMask;2020.2.8;120.16183395838074;
;f;040_y_f_h_a.jpg;happy;9;33;m;033_o_m_s_a.jpg;sad;incongruent;7;mismatch;;120;160;;2;194;block1_Pilot_2;40;h_s;h_s_weak;;;;;0;0;0;0;0;34;34;34;;;;;;;;;522.3595587;None;523.9834100000007;524.2763305999997;524.2763305999997;524.2928264000002;524.2928264000002;524.3336606000012;524.3336606000012;None;None;0;524.3336606000012;None;525.8338086000003;None;['9'];[1.2945761999999377];525.8338086000003;None;;;;;;;;Emoconpilot042;2022_Jan_07_1403;BackwardMask;2020.2.8;120.16183395838074;
;f;028_y_f_h_a.jpg;happy;9;8;m;008_y_m_n_a.jpg;neutral;incongruent;8;mismatch;;120;170;;3;162;block1_Pilot_2;28;h_n;h_n_weak;;;;;0;0;0;0;0;35;35;35;;;;;;;;;528.8340461000007;None;530.1987731000008;530.4931821999999;530.4931821999999;530.5178238999997;530.5178238999997;530.5588243000002;530.5588243000002;None;9;0;530.5588243000002;None;532.0589004000012;None;['8'];[1.2774915999998484];532.0589004000012;None;;;;;1.0735857999989094;;;Emoconpilot042;2022_Jan_07_1403;BackwardMask;2020.2.8;120.16183395838074;
;m;013_y_m_n_a.jpg;neutral;8;27;m;027_o_m_n_a.jpg;neutral;congruent;8;match;;140;170;;2;126;block1_Pilot_2;13;n_n;n_n_strong;;;;;0;0;0;0;0;36;36;36;;;;;;;;;535.0589106000007;None;536.1602574999997;536.4519748000002;536.4519748000002;536.4682231000006;536.4682231000006;536.5089495000011;536.5089495000011;None;8;1;536.5089495000011;None;538.0089377000004;None;['8'];[0.7914510999999038];538.0089377000004;None;;;;;1.2194400999997015;;;Emoconpilot042;2022_Jan_07_1403;BackwardMask;2020.2.8;120.16183395838074;
;f;028_y_f_s_a.jpg;sad;7;19;f;019_m_f_n_a.jpg;neutral;incongruent;8;match;;130;170;;2;156;block1_Pilot_2;28;s_n;s_n_strong;;;;;0;0;0;0;0;37;37;37;;;;;;;;;541.0098142999996;None;542.3201348000002;542.6102917999997;542.6102917999997;542.6263209999997;542.6263209999997;542.6674660999997;542.6674660999997;None;8;1;542.6674660999997;None;544.1675455000004;None;['8'];[0.5609416000006604];544.1675455000004;None;;;;;1.4288702000012563;;;Emoconpilot042;2022_Jan_07_1403;BackwardMask;2020.2.8;120.16183395838074;
;m;016_y_m_s_a.jpg;sad;7;19;f;019_m_f_n_a.jpg;neutral;incongruent;8;mismatch;;130;170;;3;138;block1_Pilot_2;16;s_n;s_n_weak;;;;;0;0;0;0;0;38;38;38;;;;;;;;;547.1681526000011;None;548.3248627000012;548.6184632000004;548.6184632000004;548.6434418000008;548.6434418000008;548.6841694000013;548.6841694000013;None;None;0;548.6841694000013;None;550.1846397000008;None;['9'];[1.055692399999316];550.1846397000008;None;;;;;;;;Emoconpilot042;2022_Jan_07_1403;BackwardMask;2020.2.8;120.16183395838074;
;m;033_o_m_s_a.jpg;sad;7;27;m;027_o_m_n_a.jpg;neutral;incongruent;8;match;;130;170;;3;120;block1_Pilot_2;33;s_n;s_n_strong;;;;;0;0;0;0;0;39;39;39;;;;;;;;;553.1856981000001;None;554.1964501000002;554.4853976000013;554.4853976000013;554.5101407000002;554.5101407000002;554.5509601000012;554.5509601000012;None;None;0;554.5509601000012;None;556.050913000001;None;"['8', '8']";"[0.18143899999995483, 0.6934600999993563]";556.050913000001;None;;;;;;;;Emoconpilot042;2022_Jan_07_1403;BackwardMask;2020.2.8;120.16183395838074;
;f;040_y_f_s_a.jpg;sad;7;33;m;033_o_m_n_a.jpg;neutral;incongruent;8;mismatch;;130;170;;1;238;block1_Pilot_2;40;s_n;s_n_weak;;;;;0;0;0;0;0;40;40;40;;;;;;;;;559.0518427000006;None;561.0423897000001;561.3354149000006;561.3354149000006;561.3435382000007;561.3435382000007;561.3843938000009;561.3843938000009;None;None;0;561.3843938000009;None;562.8843782000004;None;['9'];[0.41193030000067665];562.8843782000004;None;;;;;;;;Emoconpilot042;2022_Jan_07_1403;BackwardMask;2020.2.8;120.16183395838074;
;f;021_o_f_n_a.jpg;neutral;8;19;f;019_m_f_s_a.jpg;sad;incongruent;7;match;;140;160;;1;238;block1_Pilot_2;21;n_s;n_s_strong;;;;;0;0;0;0;0;41;41;41;;;;;;;;;565.8853130999996;None;567.8885631000012;568.1774635000002;568.1774635000002;568.1853575000005;568.1853575000005;568.2262343000002;568.2262343000002;None;None;0;568.2262343000002;None;569.7262162000006;None;['9'];[0.4341645000004064];569.7262162000006;None;;;;;;;;Emoconpilot042;2022_Jan_07_1403;BackwardMask;2020.2.8;120.16183395838074;
;m;033_o_m_h_a.jpg;happy;9;27;m;027_o_m_h_a.jpg;happy;congruent;9;match;;120;150;;3;134;block1_Pilot_2;33;h_h;h_h_weak;;;;;0;0;0;0;0;42;42;42;;;;;;;;;572.7269162000011;None;573.8511598000005;574.1440423000004;574.1440423000004;574.1689145;574.1689145;574.2097998000008;574.2097998000008;None;9;1;574.2097998000008;None;575.7098075000013;None;['8'];[1.0905062000001635];575.7098075000013;None;;;;;0.9424693000000843;;;Emoconpilot042;2022_Jan_07_1403;BackwardMask;2020.2.8;120.16183395838074;
;f;040_y_f_s_a.jpg;sad;7;4;m;004_o_m_h_a.jpg;happy;incongruent;9;mismatch;;130;150;;2;225;block1_Pilot_2;40;s_h;s_h_strong;;;;;0;0;0;0;0;43;43;43;;;;;;;;;578.7099252999997;None;580.592008900001;580.8857650999998;580.8857650999998;580.9022815999997;580.9022815999997;580.9432981999998;580.9432981999998;None;None;0;580.9432981999998;None;582.4431502000007;None;['9'];[1.0771411000005173];582.4431502000007;None;;;;;;;;Emoconpilot042;2022_Jan_07_1403;BackwardMask;2020.2.8;120.16183395838074;
;m;027_o_m_s_a.jpg;sad;7;21;f;021_o_f_n_a.jpg;neutral;incongruent;8;mismatch;;130;170;;18;238;block1_Pilot_2;27;s_n;s_n_weak;;;;;0;0;0;0;0;44;44;44;;;;;;;;;585.4441273000011;None;587.4376888000006;587.7275834000011;587.7275834000011;587.877418;587.877418;587.9183561000009;587.9183561000009;None;7;0;587.9183561000009;None;589.4183322999997;None;['7'];[0.917980100000932];589.4183322999997;None;;;;;1.2500987999992503;;;Emoconpilot042;2022_Jan_07_1403;BackwardMask;2020.2.8;120.16183395838074;
;m;016_y_m_h_a.jpg;happy;9;16;m;016_y_m_n_a.jpg;neutral;incongruent;8;match;;120;170;;3;202;block1_Pilot_2;16;h_n;h_n_weak;;;;;0;0;0;0;0;45;45;45;;;;;;;;;592.4194160000006;None;594.1147652;594.4109086000008;594.4109086000008;594.4358826999996;594.4358826999996;594.4766618000012;594.4766618000012;None;9;0;594.4766618000012;None;595.9768239000005;None;['7'];[0.9115332000001217];595.9768239000005;None;;;;;1.1238329999996495;;;Emoconpilot042;2022_Jan_07_1403;BackwardMask;2020.2.8;120.16183395838074;
;m;033_o_m_h_a.jpg;happy;9;13;m;013_y_m_n_a.jpg;neutral;incongruent;8;match;;120;170;;2;150;block1_Pilot_2;33;h_n;h_n_weak;;;;;0;0;0;0;0;46;46;46;;;;;;;;;598.9769166000005;None;600.2342339999996;600.5279246999999;600.5279246999999;600.5443642000009;600.5443642000009;600.5851538999996;600.5851538999996;None;None;0;600.5851538999996;None;602.0853057000004;None;['9'];[1.5469656999994186];602.0853057000004;None;;;;;;;;Emoconpilot042;2022_Jan_07_1403;BackwardMask;2020.2.8;120.16183395838074;
;f;012_o_f_n_a.jpg;neutral;8;16;m;016_y_m_n_a.jpg;neutral;congruent;8;mismatch;;140;170;;1;238;block1_Pilot_2;12;n_n;n_n_strong;;;;;0;0;0;0;0;47;47;47;;;;;;;;;605.0862032000005;None;607.1736383999996;607.4701327000002;607.4701327000002;607.4778380999996;607.4778380999996;607.518701500001;607.518701500001;None;9;0;607.518701500001;None;609.0187000000005;None;['8'];[0.6776279000005161];609.0187000000005;None;;;;;1.4576582999998209;;;Emoconpilot042;2022_Jan_07_1403;BackwardMask;2020.2.8;120.16183395838074;
;f;040_y_f_n_a.jpg;neutral;8;30;f;030_o_f_h_a.jpg;happy;incongruent;9;match;;140;150;;2;194;block1_Pilot_2;40;n_h;n_h_strong;;;;;0;0;0;0;0;48;48;48;;;;;;;;;612.0196252000005;None;613.6542635000005;613.9452043000001;613.9452043000001;613.9613261000013;613.9613261000013;614.0022525000004;614.0022525000004;None;9;1;614.0022525000004;None;615.5024118000001;None;['8'];[1.185993099999905];615.5024118000001;None;;;;;1.4460995000008552;;;Emoconpilot042;2022_Jan_07_1403;BackwardMask;2020.2.8;120.16183395838074;
;m;013_y_m_n_a.jpg;neutral;8;12;f;012_o_f_s_a.jpg;sad;incongruent;7;mismatch;;140;160;;18;238;block1_Pilot_2;13;n_s;n_s_weak;;;;;0;0;0;0;0;49;49;49;;;;;;;;;618.5027129999999;None;620.5050772000013;620.7954609999997;620.7954609999997;620.9448420000008;620.9448420000008;620.9856446000013;620.9856446000013;None;8;0;620.9856446000013;None;622.4857038999999;None;['7'];[1.2667027999996208];622.4857038999999;None;;;;;1.3906936999992467;;;Emoconpilot042;2022_Jan_07_1403;BackwardMask;2020.2.8;120.16183395838074;
;f;012_o_f_h_a.jpg;happy;9;12;f;012_o_f_n_a.jpg;neutral;incongruent;8;match;;120;170;;2;125;block1_Pilot_2;12;h_n;h_n_strong;;;;;0;0;0;0;0;50;50;50;;;;;;;;;625.4864858000001;None;626.5356941000009;626.8284646000011;626.8284646000011;626.8448716000003;626.8448716000003;626.8858144000005;626.8858144000005;None;9;0;626.8858144000005;None;628.3858278000007;None;['8'];[0.782571800000369];628.3858278000007;None;;;;;0.9545276999997441;;;Emoconpilot042;2022_Jan_07_1403;BackwardMask;2020.2.8;120.16183395838074;
;m;008_y_m_s_a.jpg;sad;7;19;f;019_m_f_s_a.jpg;sad;congruent;7;mismatch;;130;160;;2;202;block1_Pilot_2;8;s_s;s_s_strong;;;;;0;0;0;0;0;51;51;51;;;;;;;;;631.3860825000011;None;633.1061738999997;633.3956725000007;633.3956725000007;633.411693;633.411693;633.4526321000012;633.4526321000012;None;None;0;633.4526321000012;None;634.9525592000009;None;['9'];[0.6715413999991142];634.9525592000009;None;;;;;;;;Emoconpilot042;2022_Jan_07_1403;BackwardMask;2020.2.8;120.16183395838074;
;f;028_y_f_n_a.jpg;neutral;8;12;f;012_o_f_n_a.jpg;neutral;congruent;8;match;;140;170;;2;214;block1_Pilot_2;28;n_n;n_n_strong;;;;;0;0;0;0;0;52;52;52;;;;;;;;;637.9535512000002;None;639.7548457000012;640.045653000001;640.045653000001;640.0619967000002;640.0619967000002;640.1027199;640.1027199;None;8;1;640.1027199;None;641.6030690999996;None;['8'];[0.6771676000007574];641.6030690999996;None;;;;;0.7776982000013959;;;Emoconpilot042;2022_Jan_07_1403;BackwardMask;2020.2.8;120.16183395838074;
;m;027_o_m_h_a.jpg;happy;9;19;f;019_m_f_h_a.jpg;happy;congruent;9;mismatch;;120;150;;3;165;block1_Pilot_2;27;h_h;h_h_strong;;;;;0;0;0;0;0;53;53;53;;;;;;;;;644.6030277999998;None;646.0011317000008;646.2957888000001;646.2957888000001;646.3202708999997;646.3202708999997;646.3612990000001;646.3612990000001;None;9;1;646.3612990000001;None;647.8613082000011;None;['8'];[1.3230301000003237];647.8613082000011;None;;;;;0.7830164999995759;;;Emoconpilot042;2022_Jan_07_1403;BackwardMask;2020.2.8;120.16183395838074;
;m;008_y_m_s_a.jpg;sad;7;13;m;013_y_m_h_a.jpg;happy;incongruent;9;match;;130;150;;18;200;block1_Pilot_2;8;s_h;s_h_strong;;;;;0;0;0;0;0;54;54;54;;;;;;;;;650.8612431000001;None;652.5614172000005;652.8543411999999;652.8543411999999;653.0037493;653.0037493;653.0447244999996;653.0447244999996;None;7;0;653.0447244999996;None;654.5455103000004;None;['7'];[0.6227908999990177];654.5455103000004;None;;;;;1.1873860999985482;;;Emoconpilot042;2022_Jan_07_1403;BackwardMask;2020.2.8;120.16183395838074;
;f;030_o_f_n_a.jpg;neutral;8;28;f;028_y_f_s_a.jpg;sad;incongruent;7;match;;140;160;;18;238;block1_Pilot_2;30;n_s;n_s_weak;;;;;0;0;0;0;0;55;55;55;;;;;;;;;657.5461019000013;None;659.5572372000006;659.8461657000007;659.8461657000007;659.9956975000005;659.9956975000005;660.0365056999999;660.0365056999999;None;8;0;660.0365056999999;None;661.5363225000001;None;['7'];[1.2881833000010374];661.5363225000001;None;;;;;0.8759286000004067;;;Emoconpilot042;2022_Jan_07_1403;BackwardMask;2020.2.8;120.16183395838074;
;f;019_m_f_h_a.jpg;happy;9;27;m;027_o_m_h_a.jpg;happy;congruent;9;mismatch;;120;150;;1;238;block1_Pilot_2;19;h_h;h_h_strong;;;;;0;0;0;0;0;56;56;56;;;;;;;;;664.5370874;None;666.5281656000006;666.8210245000009;666.8210245000009;666.8290288000007;666.8290288000007;666.8699016999999;666.8699016999999;None;None;0;666.8699016999999;None;668.3701180999997;None;['9'];[0.5181837000000087];668.3701180999997;None;;;;;;;;Emoconpilot042;2022_Jan_07_1403;BackwardMask;2020.2.8;120.16183395838074;
;m;004_o_m_s_a.jpg;sad;7;4;m;004_o_m_h_a.jpg;happy;incongruent;9;match;;130;150;;18;155;block1_Pilot_2;4;s_h;s_h_weak;;;;;0;0;0;0;0;57;57;57;;;;;;;;;671.3708693000008;None;672.6739309000004;672.9626965999996;672.9626965999996;673.1125919000006;673.1125919000006;673.1535117000003;673.1535117000003;None;None;0;673.1535117000003;None;674.6535218999998;None;['7'];[1.2667985999996745];674.6535218999998;None;;;;;;;;Emoconpilot042;2022_Jan_07_1403;BackwardMask;2020.2.8;120.16183395838074;
;f;021_o_f_s_a.jpg;sad;7;27;m;027_o_m_n_a.jpg;neutral;incongruent;8;mismatch;;130;170;;3;224;block1_Pilot_2;21;s_n;s_n_weak;;;;;0;0;0;0;0;58;58;58;;;;;;;;;677.6545659000003;None;679.5280149000009;679.8210520000011;679.8210520000011;679.8459794000009;679.8459794000009;679.8867575000004;679.8867575000004;None;None;0;679.8867575000004;None;681.3867351999997;None;"['7', '7']";"[0.029670599999008118, 1.8214972999994643]";681.3867351999997;None;;;;;;;;Emoconpilot042;2022_Jan_07_1403;BackwardMask;2020.2.8;120.16183395838074;
;f;021_o_f_h_a.jpg;happy;9;27;m;027_o_m_n_a.jpg;neutral;incongruent;8;mismatch;;120;170;;2;147;block1_Pilot_2;21;h_n;h_n_strong;;;;;0;0;0;0;0;59;59;59;;;;;;;;;684.3875318999999;None;685.6789004000002;685.9717254000007;685.9717254000007;685.9876549;685.9876549;686.0287504000007;686.0287504000007;None;9;0;686.0287504000007;None;687.5286207000008;None;['8'];[0.4557064000000537];687.5286207000008;None;;;;;0.9475886000000173;;;Emoconpilot042;2022_Jan_07_1403;BackwardMask;2020.2.8;120.16183395838074;
;f;040_y_f_n_a.jpg;neutral;8;13;m;013_y_m_h_a.jpg;happy;incongruent;9;mismatch;;140;150;;3;237;block1_Pilot_2;40;n_h;n_h_strong;;;;;0;0;0;0;0;60;60;60;;;;;;;;;690.5295614999995;None;692.5235087000001;692.8133611000012;692.8133611000012;692.8379227000005;692.8379227000005;692.8787431000001;692.8787431000001;None;8;0;692.8787431000001;None;694.3787482999996;None;['7'];[0.8776004999999714];694.3787482999996;None;;;;;0.8976063999998587;;;Emoconpilot042;2022_Jan_07_1403;BackwardMask;2020.2.8;120.16183395838074;
;m;027_o_m_n_a.jpg;neutral;8;19;f;019_m_f_h_a.jpg;happy;incongruent;9;mismatch;;140;150;;3;199;block1_Pilot_2;27;n_h;n_h_strong;;;;;0;0;0;0;0;61;61;61;;;;;;;;;697.3792881999998;None;699.0565005000008;699.3469303000002;699.3469303000002;699.3714216999997;699.3714216999997;699.4123424999998;699.4123424999998;None;8;0;699.4123424999998;None;700.9122253000005;None;['8'];[0.6879140000000916];700.9122253000005;None;;;;;1.1240301999987423;;;Emoconpilot042;2022_Jan_07_1403;BackwardMask;2020.2.8;120.16183395838074;
;m;027_o_m_h_a.jpg;happy;9;21;f;021_o_f_s_a.jpg;sad;incongruent;7;mismatch;;120;160;;2;169;block1_Pilot_2;27;h_s;h_s_strong;;;;;0;0;0;0;0;62;62;62;;;;;;;;;703.913174700001;None;705.3457114000012;705.6387544000008;705.6387544000008;705.6546556000012;705.6546556000012;705.6957292999996;705.6957292999996;None;None;0;705.6957292999996;None;707.1960256000002;None;"['9', '8']";"[0.10827049999898009, 1.6840271999990364]";707.1960256000002;None;;;;;;;;Emoconpilot042;2022_Jan_07_1403;BackwardMask;2020.2.8;120.16183395838074;
;m;013_y_m_n_a.jpg;neutral;8;33;m;033_o_m_h_a.jpg;happy;incongruent;9;match;;140;150;;18;238;block1_Pilot_2;13;n_h;n_h_strong;;;;;0;0;0;0;0;63;63;63;;;;;;;;;710.1960541000008;None;712.1994774000013;712.4888816000002;712.4888816000002;712.6383095000001;712.6383095000001;712.6791935000001;712.6791935000001;None;8;0;712.6791935000001;None;714.1793092999997;None;['7'];[0.3570447999991302];714.1793092999997;None;;;;;0.9370324999999866;;;Emoconpilot042;2022_Jan_07_1403;BackwardMask;2020.2.8;120.16183395838074;
;m;033_o_m_n_a.jpg;neutral;8;30;f;030_o_f_s_a.jpg;sad;incongruent;7;mismatch;;140;160;;1;238;block1_Pilot_2;33;n_s;n_s_weak;;;;;0;0;0;0;0;64;64;64;;;;;;;;;717.1792974;None;719.1815652000005;719.4723281999995;719.4723281999995;719.4799956000006;719.4799956000006;719.5209642000009;719.5209642000009;None;None;0;719.5209642000009;None;721.0208290999999;None;None;;721.0208290999999;None;;;;;;;;Emoconpilot042;2022_Jan_07_1403;BackwardMask;2020.2.8;120.16183395838074;
;m;033_o_m_s_a.jpg;sad;7;4;m;004_o_m_s_a.jpg;sad;congruent;7;match;;130;160;;18;146;block1_Pilot_2;33;s_s;s_s_weak;;;;;0;0;0;0;0;65;65;65;;;;;;;;;724.0210583000007;None;725.2460958000011;725.5387878000001;725.5387878000001;725.6885557000005;725.6885557000005;725.7293834000011;725.7293834000011;None;None;0;725.7293834000011;None;727.2295138999998;None;"['7', '7']";"[0.15475830000104907, 1.5227282000014384]";727.2295138999998;None;;;;;;;;Emoconpilot042;2022_Jan_07_1403;BackwardMask;2020.2.8;120.16183395838074;
;m;016_y_m_s_a.jpg;sad;7;28;f;028_y_f_h_a.jpg;happy;incongruent;9;mismatch;;130;150;;18;238;block1_Pilot_2;16;s_h;s_h_strong;;;;;0;0;0;0;0;66;66;66;;;;;;;;;730.2304132000008;None;732.2206071;732.5140637000004;732.5140637000004;732.6637308999998;732.6637308999998;732.7045065000002;732.7045065000002;None;9;1;732.7045065000002;None;734.2052056000011;None;['7'];[1.5069980999996915];734.2052056000011;None;;;;;1.1037869000010687;;;Emoconpilot042;2022_Jan_07_1403;BackwardMask;2020.2.8;120.16183395838074;
;f;030_o_f_h_a.jpg;happy;9;28;f;028_y_f_h_a.jpg;happy;congruent;9;match;;120;150;;3;234;block1_Pilot_2;30;h_h;h_h_weak;;;;;0;0;0;0;0;67;67;67;;;;;;;;;737.2046901000012;None;739.1847574000003;739.481040300001;739.481040300001;739.5054871000011;739.5054871000011;739.5463245999999;739.5463245999999;None;9;1;739.5463245999999;None;741.046529700001;None;['7'];[0.7058133999998972];741.046529700001;None;;;;;1.24575250000089;;;Emoconpilot042;2022_Jan_07_1403;BackwardMask;2020.2.8;120.16183395838074;
;m;013_y_m_h_a.jpg;happy;9;4;m;004_o_m_h_a.jpg;happy;congruent;9;match;;120;150;;2;141;block1_Pilot_2;13;h_h;h_h_strong;;;;;0;0;0;0;0;68;68;68;;;;;;;;;744.0465034999997;None;745.2403516000013;745.5312173000002;745.5312173000002;745.5472988000001;745.5472988000001;745.5880034000002;745.5880034000002;None;None;0;745.5880034000002;None;747.0883773000005;None;['7'];[1.2319738999995025];747.0883773000005;None;;;;;;;;Emoconpilot042;2022_Jan_07_1403;BackwardMask;2020.2.8;120.16183395838074;
;f;028_y_f_s_a.jpg;sad;7;8;m;008_y_m_s_a.jpg;sad;congruent;7;mismatch;;130;160;;1;238;block1_Pilot_2;28;s_s;s_s_strong;;;;;0;0;0;0;0;69;69;69;;;;;;;;;750.0890553000008;None;752.0835674999998;752.3726769000004;752.3726769000004;752.3807835000007;752.3807835000007;752.4215654;752.4215654;None;None;0;752.4215654;None;753.9216451000011;None;['9'];[0.5186051999990013];753.9216451000011;None;;;;;;;;Emoconpilot042;2022_Jan_07_1403;BackwardMask;2020.2.8;120.16183395838074;
;f;028_y_f_s_a.jpg;sad;7;30;f;030_o_f_h_a.jpg;happy;incongruent;9;match;;130;150;;2;199;block1_Pilot_2;28;s_h;s_h_weak;;;;;0;0;0;0;0;70;70;70;;;;;;;;;756.9224800000011;None;758.5895360000013;758.8811748000007;758.8811748000007;758.8975499000007;758.8975499000007;758.938355100001;758.938355100001;None;9;1;758.938355100001;None;760.4389107999996;None;['7'];[1.1933531000013318];760.4389107999996;None;;;;;0.9899730000015552;;;Emoconpilot042;2022_Jan_07_1403;BackwardMask;2020.2.8;120.16183395838074;
;m;008_y_m_h_a.jpg;happy;9;21;f;021_o_f_n_a.jpg;neutral;incongruent;8;mismatch;;120;170;;2;137;block1_Pilot_2;8;h_n;h_n_weak;;;;;0;0;0;0;0;71;71;71;;;;;;;;;763.4400027000011;None;764.588718500001;764.8811518000002;764.8811518000002;764.8977013000003;764.8977013000003;764.9386288000005;764.9386288000005;None;9;0;764.9386288000005;None;766.4386143000011;None;['8'];[1.1773510000002716];766.4386143000011;None;;;;;1.0297261999985494;;;Emoconpilot042;2022_Jan_07_1403;BackwardMask;2020.2.8;120.16183395838074;
;f;012_o_f_n_a.jpg;neutral;8;8;m;008_y_m_s_a.jpg;sad;incongruent;7;mismatch;;140;160;;2;208;block1_Pilot_2;12;n_s;n_s_weak;;;;;0;0;0;0;0;72;72;72;;;;;;;;;769.4395212;None;771.232583500001;771.5235927000012;771.5235927000012;771.5396352999996;771.5396352999996;771.5804253000006;771.5804253000006;None;None;0;771.5804253000006;None;773.0803656000007;None;['9'];[1.0638193000013416];773.0803656000007;None;;;;;;;;Emoconpilot042;2022_Jan_07_1403;BackwardMask;2020.2.8;120.16183395838074;
;m;016_y_m_n_a.jpg;neutral;8;8;m;008_y_m_n_a.jpg;neutral;congruent;8;match;;140;170;;3;211;block1_Pilot_2;16;n_n;n_n_strong;;;;;0;0;0;0;0;73;73;73;;;;;;;;;776.0814979999996;None;777.865704400001;778.1567895999997;778.1567895999997;778.1813273000007;778.1813273000007;778.2220938999999;778.2220938999999;None;8;1;778.2220938999999;None;779.7222668000013;None;['8'];[0.4780637999992905];779.7222668000013;None;;;;;0.8101305999989563;;;Emoconpilot042;2022_Jan_07_1403;BackwardMask;2020.2.8;120.16183395838074;
;m;016_y_m_h_a.jpg;happy;9;13;m;013_y_m_s_a.jpg;sad;incongruent;7;match;;120;160;;3;138;block1_Pilot_2;16;h_s;h_s_weak;;;;;0;0;0;0;0;74;74;74;;;;;;;;;782.722528100001;None;783.8799715000005;784.1732327999998;784.1732327999998;784.1981634000003;784.1981634000003;784.2388397000013;784.2388397000013;None;9;0;784.2388397000013;None;785.7390355999996;None;['8'];[0.6451543999992282];785.7390355999996;None;;;;;0.8653557999987243;;;Emoconpilot042;2022_Jan_07_1403;BackwardMask;2020.2.8;120.16183395838074;
;m;016_y_m_n_a.jpg;neutral;8;19;f;019_m_f_s_a.jpg;sad;incongruent;7;mismatch;;140;160;;2;185;block1_Pilot_2;16;n_s;n_s_strong;;;;;0;0;0;0;0;75;75;75;;;;;;;;;788.7400850000013;None;790.306364;790.5986546000004;790.5986546000004;790.6150558999998;790.6150558999998;790.655827300001;790.655827300001;None;8;0;790.655827300001;None;792.1564458000012;None;['8'];[0.5718619999988732];792.1564458000012;None;;;;;0.840472800000498;;;Emoconpilot042;2022_Jan_07_1403;BackwardMask;2020.2.8;120.16183395838074;
;m;027_o_m_s_a.jpg;sad;7;8;m;008_y_m_s_a.jpg;sad;congruent;7;match;;130;160;;1;238;block1_Pilot_2;27;s_s;s_s_strong;;;;;0;0;0;0;0;76;76;76;;;;;;;;;795.1566070999997;None;797.1474431000006;797.440223900001;797.440223900001;797.4482477000001;797.4482477000001;797.4893955000007;797.4893955000007;None;None;0;797.4893955000007;None;798.989221400001;None;['9'];[0.6910700999997061];798.989221400001;None;;;;;;;;Emoconpilot042;2022_Jan_07_1403;BackwardMask;2020.2.8;120.16183395838074;
;f;019_m_f_n_a.jpg;neutral;8;27;m;027_o_m_n_a.jpg;neutral;congruent;8;mismatch;;140;170;;3;186;block1_Pilot_2;19;n_n;n_n_strong;;;;;0;0;0;0;0;77;77;77;;;;;;;;;801.9903047000007;None;803.6011964999998;803.8907294;803.8907294;803.9151729000005;803.9151729000005;803.9560820999995;803.9560820999995;None;8;1;803.9560820999995;None;805.4557170999997;None;['8'];[0.4405602999995608];805.4557170999997;None;;;;;1.1640500000012253;;;Emoconpilot042;2022_Jan_07_1403;BackwardMask;2020.2.8;120.16183395838074;
;m;004_o_m_s_a.jpg;sad;7;12;f;012_o_f_s_a.jpg;sad;congruent;7;mismatch;;130;160;;1;238;block1_Pilot_2;4;s_s;s_s_strong;;;;;0;0;0;0;0;78;78;78;;;;;;;;;808.4567590000006;None;810.4490461000005;810.7404184000006;810.7404184000006;810.7487008999997;810.7487008999997;810.7894745000012;810.7894745000012;None;None;0;810.7894745000012;None;812.2904183999999;None;['9'];[0.38168210000003455];812.2904183999999;None;;;;;;;;Emoconpilot042;2022_Jan_07_1403;BackwardMask;2020.2.8;120.16183395838074;
;f;019_m_f_n_a.jpg;neutral;8;13;m;013_y_m_s_a.jpg;sad;incongruent;7;mismatch;;140;160;;3;207;block1_Pilot_2;19;n_s;n_s_strong;;;;;0;0;0;0;0;79;79;79;;;;;;;;;815.2902835000004;None;817.0613970000013;817.357757400001;817.357757400001;817.3820286000009;817.3820286000009;817.4228686000006;817.4228686000006;None;8;0;817.4228686000006;None;818.9230635000004;None;['8'];[0.32520670000121754];818.9230635000004;None;;;;;0.8414669000012509;;;Emoconpilot042;2022_Jan_07_1403;BackwardMask;2020.2.8;120.16183395838074;
;m;027_o_m_h_a.jpg;happy;9;33;m;033_o_m_h_a.jpg;happy;congruent;9;match;;120;150;;1;238;block1_Pilot_2;27;h_h;h_h_strong;;;;;0;0;0;0;0;80;80;80;;;;;;;;;821.9232286000006;None;823.9285020999996;824.2246969999997;824.2246969999997;824.2320775000007;824.2320775000007;824.2731230999998;824.2731230999998;None;None;0;824.2731230999998;None;825.7731624000007;None;['9'];[0.5470774999994319];825.7731624000007;None;;;;;;;;Emoconpilot042;2022_Jan_07_1403;BackwardMask;2020.2.8;120.16183395838074;
;m;027_o_m_h_a.jpg;happy;9;21;f;021_o_f_s_a.jpg;sad;incongruent;7;mismatch;;120;160;;1;238;block1_Pilot_2;27;h_s;h_s_weak;;;;;0;0;0;0;0;81;81;81;;;;;;;;;828.7737608000007;None;830.8018530000008;831.0914730000004;831.0914730000004;831.0988515999998;831.0988515999998;831.1399461000001;831.1399461000001;None;None;0;831.1399461000001;None;832.6399101000006;None;['9'];[0.4403816000012739];832.6399101000006;None;;;;;;;;Emoconpilot042;2022_Jan_07_1403;BackwardMask;2020.2.8;120.16183395838074;
;m;033_o_m_s_a.jpg;sad;7;40;f;040_y_f_n_a.jpg;neutral;incongruent;8;mismatch;;130;170;;3;146;block1_Pilot_2;33;s_n;s_n_weak;;;;;0;0;0;0;0;82;82;82;;;;;;;;;835.6408683999998;None;836.8663071999999;837.1575921000003;837.1575921000003;837.1823268000007;837.1823268000007;837.2233147999996;837.2233147999996;None;8;1;837.2233147999996;None;838.7233207999998;None;['8'];[1.1730129000006855];838.7233207999998;None;;;;;1.273031800001263;;;Emoconpilot042;2022_Jan_07_1403;BackwardMask;2020.2.8;120.16183395838074;
;m;008_y_m_h_a.jpg;happy;9;4;m;004_o_m_s_a.jpg;sad;incongruent;7;match;;120;160;;2;225;block1_Pilot_2;8;h_s;h_s_weak;;;;;0;0;0;0;0;83;83;83;;;;;;;;;841.7245156000008;None;843.6066432999996;843.8995164999997;843.8995164999997;843.9159039000006;843.9159039000006;843.9567418999995;843.9567418999995;None;None;0;843.9567418999995;None;845.4569412000001;None;['9'];[0.751262300000235];845.4569412000001;None;;;;;;;;Emoconpilot042;2022_Jan_07_1403;BackwardMask;2020.2.8;120.16183395838074;
;f;012_o_f_n_a.jpg;neutral;8;4;m;004_o_m_s_a.jpg;sad;incongruent;7;mismatch;;140;160;;3;150;block1_Pilot_2;12;n_s;n_s_strong;;;;;0;0;0;0;0;84;84;84;;;;;;;;;848.4569528000011;None;849.7348891000001;850.0251131000005;850.0251131000005;850.0493841000007;850.0493841000007;850.0902664000005;850.0902664000005;None;8;0;850.0902664000005;None;851.5902409000009;None;['8'];[0.770049899998412];851.5902409000009;None;;;;;1.037774200000058;;;Emoconpilot042;2022_Jan_07_1403;BackwardMask;2020.2.8;120.16183395838074;
;f;021_o_f_s_a.jpg;sad;7;40;f;040_y_f_n_a.jpg;neutral;incongruent;8;match;;130;170;;2;156;block1_Pilot_2;21;s_n;s_n_strong;;;;;0;0;0;0;0;85;85;85;;;;;;;;;854.5905242000008;None;855.8964558000007;856.1913951999995;856.1913951999995;856.2078648000006;856.2078648000006;856.2486578000007;856.2486578000007;None;8;1;856.2486578000007;None;857.7487314000009;None;['8'];[1.1955687000008766];857.7487314000009;None;;;;;1.3276432999991812;;;Emoconpilot042;2022_Jan_07_1403;BackwardMask;2020.2.8;120.16183395838074;
;m;004_o_m_n_a.jpg;neutral;8;13;m;013_y_m_n_a.jpg;neutral;congruent;8;match;;140;170;;2;225;block1_Pilot_2;4;n_n;n_n_strong;;;;;0;0;0;0;0;86;86;86;;;;;;;;;860.7502237999997;None;862.6756124000003;862.966907;862.966907;862.982976700001;862.982976700001;863.0237033000012;863.0237033000012;None;None;0;863.0237033000012;None;864.523898200001;None;['9'];[0.5484481999992568];864.523898200001;None;;;;;;;;Emoconpilot042;2022_Jan_07_1403;BackwardMask;2020.2.8;120.16183395838074;
;m;016_y_m_n_a.jpg;neutral;8;16;m;016_y_m_h_a.jpg;happy;incongruent;9;match;;140;150;;18;193;block1_Pilot_2;16;n_h;n_h_strong;;;;;0;0;0;0;0;87;87;87;;;;;;;;;867.5237749999997;None;869.1530591999999;869.4420515000002;869.4420515000002;869.5915478999996;869.5915478999996;869.6323296999999;869.6323296999999;None;8;0;869.6323296999999;None;871.1324774000004;None;['7'];[0.3157933000002231];871.1324774000004;None;;;;;0.6238969000005454;;;Emoconpilot042;2022_Jan_07_1403;BackwardMask;2020.2.8;120.16183395838074;
;m;033_o_m_h_a.jpg;happy;9;4;m;004_o_m_h_a.jpg;happy;congruent;9;match;;120;150;;2;195;block1_Pilot_2;33;h_h;h_h_strong;;;;;0;0;0;0;0;88;88;88;;;;;;;;;874.1332413;None;875.7652682999997;876.0584935000006;876.0584935000006;876.0750298000003;876.0750298000003;876.1158020000003;876.1158020000003;None;None;0;876.1158020000003;None;877.6165254000007;None;['9'];[0.9838257000010344];877.6165254000007;None;;;;;;;;Emoconpilot042;2022_Jan_07_1403;BackwardMask;2020.2.8;120.16183395838074;
;m;027_o_m_h_a.jpg;happy;9;16;m;016_y_m_h_a.jpg;happy;congruent;9;match;;120;150;;3;209;block1_Pilot_2;27;h_h;h_h_weak;;;;;0;0;0;0;0;89;89;89;;;;;;;;;880.6159568000003;None;882.3848013999996;882.6757103;882.6757103;882.7000645999997;882.7000645999997;882.7409894000011;882.7409894000011;None;9;1;882.7409894000011;None;884.2410574000005;None;['8'];[0.5991427000008116];884.2410574000005;None;;;;;1.0991522000003897;;;Emoconpilot042;2022_Jan_07_1403;BackwardMask;2020.2.8;120.16183395838074;
;m;033_o_m_s_a.jpg;sad;7;16;m;016_y_m_s_a.jpg;sad;congruent;7;match;;130;160;;3;128;block1_Pilot_2;33;s_s;s_s_strong;;;;;0;0;0;0;0;90;90;90;;;;;;;;;887.2415239000002;None;888.3153264000011;888.6087463000003;888.6087463000003;888.6333016999997;888.6333016999997;888.6744181000013;888.6744181000013;None;8;0;888.6744181000013;None;890.1744262000011;None;['7'];[1.681771600000502];890.1744262000011;None;;;;;0.9737364000011439;;;Emoconpilot042;2022_Jan_07_1403;BackwardMask;2020.2.8;120.16183395838074;
;f;021_o_f_s_a.jpg;sad;7;30;f;030_o_f_s_a.jpg;sad;congruent;7;match;;130;160;;1;238;block1_Pilot_2;21;s_s;s_s_strong;;;;;0;0;0;0;0;91;91;91;;;;;;;;;893.1755133999995;None;895.1649808000002;895.4587661000005;895.4587661000005;895.4669298999997;895.4669298999997;895.5079065000009;895.5079065000009;None;None;0;895.5079065000009;None;897.0079967000001;None;['9'];[0.9681760999992548];897.0079967000001;None;;;;;;;;Emoconpilot042;2022_Jan_07_1403;BackwardMask;2020.2.8;120.16183395838074;
;m;033_o_m_n_a.jpg;neutral;8;28;f;028_y_f_s_a.jpg;sad;incongruent;7;mismatch;;140;160;;18;166;block1_Pilot_2;33;n_s;n_s_strong;;;;;0;0;0;0;0;92;92;92;;;;;;;;;900.008746200001;None;901.4561594000006;901.7511473000013;901.7511473000013;901.9006296999996;901.9006296999996;901.9412582000004;901.9412582000004;None;8;0;901.9412582000004;None;903.4414065000001;None;['8'];[1.1908452000006946];903.4414065000001;None;;;;;1.051056399999652;;;Emoconpilot042;2022_Jan_07_1403;BackwardMask;2020.2.8;120.16183395838074;
;f;019_m_f_n_a.jpg;neutral;8;30;f;030_o_f_n_a.jpg;neutral;congruent;8;match;;140;170;;18;228;block1_Pilot_2;19;n_n;n_n_weak;;;;;0;0;0;0;0;93;93;93;;;;;;;;;906.4417484000005;None;908.363586200001;908.6594908000006;908.6594908000006;908.809002;908.809002;908.8497955000003;908.8497955000003;None;None;0;908.8497955000003;None;910.350797000001;None;['9'];[1.0255200999999943];910.350797000001;None;;;;;;;;Emoconpilot042;2022_Jan_07_1403;BackwardMask;2020.2.8;120.16183395838074;
;m;008_y_m_s_a.jpg;sad;7;12;f;012_o_f_h_a.jpg;happy;incongruent;9;mismatch;;130;150;;3;130;block1_Pilot_2;8;s_h;s_h_weak;;;;;0;0;0;0;0;94;94;94;;;;;;;;;913.3506686000001;None;914.4535351000013;914.7430764000001;914.7430764000001;914.7673312000006;914.7673312000006;914.8081362000012;914.8081362000012;None;7;0;914.8081362000012;None;916.3085926000003;None;['8'];[1.3076569999993808];916.3085926000003;None;;;;;1.3518708999999944;;;Emoconpilot042;2022_Jan_07_1403;BackwardMask;2020.2.8;120.16183395838074;
;m;016_y_m_n_a.jpg;neutral;8;28;f;028_y_f_n_a.jpg;neutral;congruent;8;mismatch;;140;170;;18;189;block1_Pilot_2;16;n_n;n_n_strong;;;;;0;0;0;0;0;95;95;95;;;;;;;;;919.3095740999997;None;920.9392602000007;921.2347994000011;921.2347994000011;921.3841952000002;921.3841952000002;921.4248992000012;921.4248992000012;None;8;1;921.4248992000012;None;922.9250362000002;None;['7'];[0.475162900000214];922.9250362000002;None;;;;;1.0153388999988238;;;Emoconpilot042;2022_Jan_07_1403;BackwardMask;2020.2.8;120.16183395838074;
;f;012_o_f_s_a.jpg;sad;7;16;m;016_y_m_h_a.jpg;happy;incongruent;9;mismatch;;130;150;;3;238;block1_Pilot_2;12;s_h;s_h_strong;;;;;0;0;0;0;0;96;96;96;;;;;;;;;925.9253571999998;None;927.9122215000007;928.2093548000012;928.2093548000012;928.2342692000002;928.2342692000002;928.2752497000001;928.2752497000001;None;None;0;928.2752497000001;None;929.7751958000008;None;['9'];[0.5770095000007132];929.7751958000008;None;;;;;;;;Emoconpilot042;2022_Jan_07_1403;BackwardMask;2020.2.8;120.16183395838074;
;m;013_y_m_h_a.jpg;happy;9;27;m;027_o_m_h_a.jpg;happy;congruent;9;match;;120;150;;18;238;block1_Pilot_2;13;h_h;h_h_strong;;;;;0;0;0;0;0;97;97;97;;;;;;;;;932.7750862000012;None;934.8052752000003;935.1016306000001;935.1016306000001;935.2509011000002;935.2509011000002;935.2916060000007;935.2916060000007;None;9;1;935.2916060000007;None;936.7919148000001;None;['7'];[0.856103100000837];936.7919148000001;None;;;;;1.2683119000012084;;;Emoconpilot042;2022_Jan_07_1403;BackwardMask;2020.2.8;120.16183395838074;
;m;016_y_m_s_a.jpg;sad;7;33;m;033_o_m_n_a.jpg;neutral;incongruent;8;match;;130;170;;1;238;block1_Pilot_2;16;s_n;s_n_weak;;;;;0;0;0;0;0;98;98;98;;;;;;;;;939.7920591000002;None;941.7820878000002;942.0762104000005;942.0762104000005;942.0843397000008;942.0843397000008;942.1251173;942.1251173;None;None;0;942.1251173;None;943.6253839000001;None;['9'];[0.6547029000012117];943.6253839000001;None;;;;;;;;Emoconpilot042;2022_Jan_07_1403;BackwardMask;2020.2.8;120.16183395838074;
;m;008_y_m_n_a.jpg;neutral;8;30;f;030_o_f_n_a.jpg;neutral;congruent;8;mismatch;;140;170;;1;238;block1_Pilot_2;8;n_n;n_n_weak;;;;;0;0;0;0;0;99;99;99;;;;;;;;;946.6240942000004;None;948.6870049000008;948.9750882000008;948.9750882000008;948.9828976000008;948.9828976000008;949.0236880000011;949.0236880000011;None;None;0;949.0236880000011;None;950.5241087000013;None;['9'];[0.7478742000002967];950.5241087000013;None;;;;;;;;Emoconpilot042;2022_Jan_07_1403;BackwardMask;2020.2.8;120.16183395838074;
;m;008_y_m_s_a.jpg;sad;7;30;f;030_o_f_s_a.jpg;sad;congruent;7;mismatch;;130;160;;2;133;block1_Pilot_2;8;s_s;s_s_weak;;;;;0;0;0;0;0;100;100;100;;;;;;;;;953.5258524000001;None;954.6545414000011;954.9438088999996;954.9438088999996;954.9597364000001;954.9597364000001;955.0006047000006;955.0006047000006;None;None;0;955.0006047000006;None;956.5007855000003;None;['9'];[0.6993294999992941];956.5007855000003;None;;;;;;;;Emoconpilot042;2022_Jan_07_1403;BackwardMask;2020.2.8;120.16183395838074;
;f;040_y_f_n_a.jpg;neutral;8;30;f;030_o_f_s_a.jpg;sad;incongruent;7;match;;140;160;;3;197;block1_Pilot_2;40;n_s;n_s_strong;;;;;0;0;0;0;0;101;101;101;;;;;;;;;959.5012932000009;None;961.1638239000004;961.460507400001;961.460507400001;961.4849145999997;961.4849145999997;961.5255761999997;961.5255761999997;None;8;0;961.5255761999997;None;963.0259578000005;None;['8'];[0.9661847999996098];963.0259578000005;None;;;;;1.298497399999178;;;Emoconpilot042;2022_Jan_07_1403;BackwardMask;2020.2.8;120.16183395838074;
;m;004_o_m_h_a.jpg;happy;9;30;f;030_o_f_s_a.jpg;sad;incongruent;7;mismatch;;120;160;;3;121;block1_Pilot_2;4;h_s;h_s_strong;;;;;0;0;0;0;0;102;102;102;;;;;;;;;966.0269484;None;967.0562167999997;967.3524964999997;967.3524964999997;967.3768115000003;967.3768115000003;967.4174707000002;967.4174707000002;None;9;0;967.4174707000002;None;968.9175826999999;None;['8'];[0.49065410000002885];968.9175826999999;None;;;;;1.0066618000000744;;;Emoconpilot042;2022_Jan_07_1403;BackwardMask;2020.2.8;120.16183395838074;
;f;040_y_f_h_a.jpg;happy;9;8;m;008_y_m_h_a.jpg;happy;congruent;9;mismatch;;120;150;;18;211;block1_Pilot_2;40;h_h;h_h_weak;;;;;0;0;0;0;0;103;103;103;;;;;;;;;971.9179875999998;None;973.6843452000012;973.977185400001;973.977185400001;974.1270624000008;974.1270624000008;974.1678050999999;974.1678050999999;None;9;1;974.1678050999999;None;975.6679426999999;None;['7'];[1.1162084999996296];975.6679426999999;None;;;;;1.1041688999994221;;;Emoconpilot042;2022_Jan_07_1403;BackwardMask;2020.2.8;120.16183395838074;
;f;019_m_f_s_a.jpg;sad;7;16;m;016_y_m_n_a.jpg;neutral;incongruent;8;mismatch;;130;170;;2;198;block1_Pilot_2;19;s_n;s_n_strong;;;;;0;0;0;0;0;104;104;104;;;;;;;;;978.6680386999997;None;980.3430208000009;980.6358;980.6358;980.6523808000002;980.6523808000002;980.6928813000013;980.6928813000013;None;9;0;980.6928813000013;None;982.1928996999995;None;['8'];[2.1434540999998717];982.1928996999995;None;;;;;1.163188700000319;;;Emoconpilot042;2022_Jan_07_1403;BackwardMask;2020.2.8;120.16183395838074;
;f;040_y_f_s_a.jpg;sad;7;12;f;012_o_f_s_a.jpg;sad;congruent;7;match;;130;160;;18;240;block1_Pilot_2;40;s_s;s_s_strong;;;;;0;0;0;0;0;105;105;105;;;;;;;;;985.1932242000003;None;987.2009567000005;987.494085100001;987.494085100001;987.6438429999998;987.6438429999998;987.6847359000003;987.6847359000003;None;7;1;987.6847359000003;None;989.1847914999998;None;['7'];[0.49532369999906223];989.1847914999998;None;;;;;1.0915182999997342;;;Emoconpilot042;2022_Jan_07_1403;BackwardMask;2020.2.8;120.16183395838074;
;f;040_y_f_n_a.jpg;neutral;8;33;m;033_o_m_s_a.jpg;sad;incongruent;7;mismatch;;140;160;;3;188;block1_Pilot_2;40;n_s;n_s_weak;;;;;0;0;0;0;0;106;106;106;;;;;;;;;992.1851272000004;None;993.7831134999997;994.077884100001;994.077884100001;994.1022598;994.1022598;994.1432263000006;994.1432263000006;None;8;0;994.1432263000006;None;995.6431384000007;None;['7'];[1.6530567999998311];995.6431384000007;None;;;;;0.7849504999994679;;;Emoconpilot042;2022_Jan_07_1403;BackwardMask;2020.2.8;120.16183395838074;
;f;028_y_f_h_a.jpg;happy;9;21;f;021_o_f_s_a.jpg;sad;incongruent;7;match;;120;160;;3;193;block1_Pilot_2;28;h_s;h_s_strong;;;;;0;0;0;0;0;107;107;107;;;;;;;;;998.6442057000004;None;1000.2627183000004;1000.5528209000004;1000.5528209000004;1000.577241500001;1000.577241500001;1000.6183278999997;1000.6183278999997;None;9;0;1000.6183278999997;None;1002.118299400001;None;['7'];[0.529719500000283];1002.118299400001;None;;;;;0.7978431999999884;;;Emoconpilot042;2022_Jan_07_1403;BackwardMask;2020.2.8;120.16183395838074;
;f;040_y_f_s_a.jpg;sad;7;13;m;013_y_m_n_a.jpg;neutral;incongruent;8;mismatch;;130;170;;2;198;block1_Pilot_2;40;s_n;s_n_strong;;;;;0;0;0;0;0;108;108;108;;;;;;;;;1005.1193743000003;None;1006.7762884000003;1007.0694077000007;1007.0694077000007;1007.0856115999995;1007.0856115999995;1007.1268214000011;1007.1268214000011;None;None;0;1007.1268214000011;None;1008.6272047000002;None;"['8', '8']";"[0.044633599998633144, 0.5888799999993353]";1008.6272047000002;None;;;;;;;;Emoconpilot042;2022_Jan_07_1403;BackwardMask;2020.2.8;120.16183395838074;
;f;030_o_f_n_a.jpg;neutral;8;33;m;033_o_m_s_a.jpg;sad;incongruent;7;mismatch;;140;160;;1;238;block1_Pilot_2;30;n_s;n_s_strong;;;;;0;0;0;0;0;109;109;109;;;;;;;;;1011.6269657000012;None;1013.6539810000013;1013.9449624000008;1013.9449624000008;1013.9526848000005;1013.9526848000005;1013.9936237000002;1013.9936237000002;None;None;0;1013.9936237000002;None;1015.4936386000008;None;['9'];[0.46646999999939];1015.4936386000008;None;;;;;;;;Emoconpilot042;2022_Jan_07_1403;BackwardMask;2020.2.8;120.16183395838074;
;f;021_o_f_h_a.jpg;happy;9;40;f;040_y_f_n_a.jpg;neutral;incongruent;8;match;;120;170;;2;125;block1_Pilot_2;21;h_n;h_n_weak;;;;;0;0;0;0;0;110;110;110;;;;;;;;;1018.4943249000007;None;1019.5545275000004;1019.8451084000008;1019.8451084000008;1019.8611516000001;1019.8611516000001;1019.9022337000006;1019.9022337000006;None;9;0;1019.9022337000006;None;1021.4018649999998;None;['8'];[0.43816740000147547];1021.4018649999998;None;;;;;0.9139490999987174;;;Emoconpilot042;2022_Jan_07_1403;BackwardMask;2020.2.8;120.16183395838074;
;f;021_o_f_h_a.jpg;happy;9;16;m;016_y_m_s_a.jpg;sad;incongruent;7;mismatch;;120;160;;1;238;block1_Pilot_2;21;h_s;h_s_strong;;;;;0;0;0;0;0;111;111;111;;;;;;;;;1024.4026793000012;None;1026.4045317;1026.6954400000013;1026.6954400000013;1026.7028126000005;1026.7028126000005;1026.7437891000009;1026.7437891000009;None;None;0;1026.7437891000009;None;1028.2439785000006;None;['9'];[0.5082791999993788];1028.2439785000006;None;;;;;;;;Emoconpilot042;2022_Jan_07_1403;BackwardMask;2020.2.8;120.16183395838074;
;f;012_o_f_h_a.jpg;happy;9;8;m;008_y_m_s_a.jpg;sad;incongruent;7;mismatch;;120;160;;1;238;block1_Pilot_2;12;h_s;h_s_weak;;;;;0;0;0;0;0;112;112;112;;;;;;;;;1031.244436500001;None;1033.2351935999995;1033.5284193999996;1033.5284193999996;1033.5363909000007;1033.5363909000007;1033.5773258999998;1033.5773258999998;None;None;0;1033.5773258999998;None;1035.0773580000005;None;['9'];[0.45075489999908314];1035.0773580000005;None;;;;;;;;Emoconpilot042;2022_Jan_07_1403;BackwardMask;2020.2.8;120.16183395838074;
;m;013_y_m_h_a.jpg;happy;9;16;m;016_y_m_s_a.jpg;sad;incongruent;7;match;;120;160;;3;202;block1_Pilot_2;13;h_s;h_s_weak;;;;;0;0;0;0;0;113;113;113;;;;;;;;;1038.0782541999997;None;1039.7821442000004;1040.0787369000009;1040.0787369000009;1040.1032756000004;1040.1032756000004;1040.1439563000004;1040.1439563000004;None;9;0;1040.1439563000004;None;1041.6441341000009;None;['8'];[1.0120162999992317];1041.6441341000009;None;;;;;0.944309800001065;;;Emoconpilot042;2022_Jan_07_1403;BackwardMask;2020.2.8;120.16183395838074;
;f;019_m_f_s_a.jpg;sad;7;4;m;004_o_m_n_a.jpg;neutral;incongruent;8;mismatch;;130;170;;1;238;block1_Pilot_2;19;s_n;s_n_strong;;;;;0;0;0;0;0;114;114;114;;;;;;;;;1044.6442287999998;None;1046.6461643000002;1046.9373073000006;1046.9373073000006;1046.9450132000002;1046.9450132000002;1046.9860667000012;1046.9860667000012;None;None;0;1046.9860667000012;None;1048.4857553000002;None;['9'];[0.5302573999997549];1048.4857553000002;None;;;;;;;;Emoconpilot042;2022_Jan_07_1403;BackwardMask;2020.2.8;120.16183395838074;
;f;028_y_f_n_a.jpg;neutral;8;27;m;027_o_m_s_a.jpg;sad;incongruent;7;mismatch;;140;160;;18;238;block1_Pilot_2;28;n_s;n_s_strong;;;;;0;0;0;0;0;115;115;115;;;;;;;;;1051.4870807000007;None;1053.4886578000005;1053.7791357000006;1053.7791357000006;1053.9284669999997;1053.9284669999997;1053.9693114000002;1053.9693114000002;None;8;0;1053.9693114000002;None;1055.4693673000002;None;['7'];[1.3547269000009692];1055.4693673000002;None;;;;;0.9029905000006693;;;Emoconpilot042;2022_Jan_07_1403;BackwardMask;2020.2.8;120.16183395838074;
;m;013_y_m_s_a.jpg;sad;7;12;f;012_o_f_h_a.jpg;happy;incongruent;9;mismatch;;130;150;;1;238;block1_Pilot_2;13;s_h;s_h_strong;;;;;0;0;0;0;0;116;116;116;;;;;;;;;1058.4695795999996;None;1060.4612197000006;1060.7539149000004;1060.7539149000004;1060.7620289000006;1060.7620289000006;1060.8027781;1060.8027781;None;None;0;1060.8027781;None;1062.302830300001;None;['9'];[0.6893833000012819];1062.302830300001;None;;;;;;;;Emoconpilot042;2022_Jan_07_1403;BackwardMask;2020.2.8;120.16183395838074;
;m;016_y_m_s_a.jpg;sad;7;19;f;019_m_f_h_a.jpg;happy;incongruent;9;mismatch;;130;150;;1;238;block1_Pilot_2;16;s_h;s_h_strong;;;;;0;0;0;0;0;117;117;117;;;;;;;;;1065.3039796000012;None;1067.2942025000011;1067.5872462000007;1067.5872462000007;1067.5954211999997;1067.5954211999997;1067.6362461000008;1067.6362461000008;None;None;0;1067.6362461000008;None;1069.1362557000011;None;['9'];[0.6637884000010672];1069.1362557000011;None;;;;;;;;Emoconpilot042;2022_Jan_07_1403;BackwardMask;2020.2.8;120.16183395838074;
;m;013_y_m_s_a.jpg;sad;7;21;f;021_o_f_h_a.jpg;happy;incongruent;9;mismatch;;130;150;;18;238;block1_Pilot_2;13;s_h;s_h_strong;;;;;0;0;0;0;0;118;118;118;;;;;;;;;1072.1366608999997;None;1074.1281095000013;1074.4206567;1074.4206567;1074.5705949000003;1074.5705949000003;1074.6114987;1074.6114987;None;7;0;1074.6114987;None;1076.1120148999998;None;['7'];[0.4881120000009105];1076.1120148999998;None;;;;;1.076799000000392;;;Emoconpilot042;2022_Jan_07_1403;BackwardMask;2020.2.8;120.16183395838074;
;f;012_o_f_s_a.jpg;sad;7;13;m;013_y_m_h_a.jpg;happy;incongruent;9;mismatch;;130;150;;3;235;block1_Pilot_2;12;s_h;s_h_weak;;;;;0;0;0;0;0;119;119;119;;;;;;;;;1079.1124841;None;1081.0735701000012;1081.3707722;1081.3707722;1081.3956880000005;1081.3956880000005;1081.4365537000012;1081.4365537000012;None;7;0;1081.4365537000012;None;1082.9368365999999;None;['7'];[1.9753216999997676];1082.9368365999999;None;;;;;1.459560799999963;;;Emoconpilot042;2022_Jan_07_1403;BackwardMask;2020.2.8;120.16183395838074;
;f;019_m_f_s_a.jpg;sad;7;30;f;030_o_f_h_a.jpg;happy;incongruent;9;match;;130;150;;3;235;block2_Pilot_2;19;s_h;s_h_strong;;;;;0;1;1;1;0;0;0;0;;;;;;;;;1105.9711973000012;None;1107.9417328;1108.2386349000008;1108.2386349000008;1108.2627708;1108.2627708;1108.3038190999996;1108.3038190999996;None;None;0;1108.3038190999996;None;1109.8047160000006;None;['9'];[0.627203300000474];1109.8047160000006;None;;;1085.9369112000004;None;;;;Emoconpilot042;2022_Jan_07_1403;BackwardMask;2020.2.8;120.16183395838074;
;m;008_y_m_n_a.jpg;neutral;8;40;f;040_y_f_h_a.jpg;happy;incongruent;9;mismatch;;140;150;;2;121;block2_Pilot_2;8;n_h;n_h_strong;;;;;0;1;1;1;0;1;1;1;;;;;;;;;1112.8048092000008;None;1113.8311735999996;1114.1219426999996;1114.1219426999996;1114.137980200001;1114.137980200001;1114.178977900001;1114.178977900001;None;8;0;1114.178977900001;None;1115.6791209000003;None;['8'];[0.9130734999998822];1115.6791209000003;None;;;;;0.8851388000002771;;;Emoconpilot042;2022_Jan_07_1403;BackwardMask;2020.2.8;120.16183395838074;
;f;012_o_f_h_a.jpg;happy;9;27;m;027_o_m_n_a.jpg;neutral;incongruent;8;mismatch;;120;170;;2;240;block2_Pilot_2;12;h_n;h_n_weak;;;;;0;1;1;1;0;2;2;2;;;;;;;;;1118.6796812000011;None;1120.687326700001;1120.9801504000006;1120.9801504000006;1120.9965088000008;1120.9965088000008;1121.0374118;1121.0374118;None;None;0;1121.0374118;None;1122.537319500001;None;['9'];[0.4709316000007675];1122.537319500001;None;;;;;;;;Emoconpilot042;2022_Jan_07_1403;BackwardMask;2020.2.8;120.16183395838074;
;m;008_y_m_h_a.jpg;happy;9;40;f;040_y_f_h_a.jpg;happy;congruent;9;mismatch;;120;150;;18;195;block2_Pilot_2;8;h_h;h_h_strong;;;;;0;1;1;1;0;3;3;3;;;;;;;;;1125.5375088;None;1127.1707026000004;1127.4634733000003;1127.4634733000003;1127.6133378000013;1127.6133378000013;1127.6541159999997;1127.6541159999997;None;9;1;1127.6541159999997;None;1129.1543129000001;None;['7'];[0.749777199998789];1129.1543129000001;None;;;;;1.4497907000004489;;;Emoconpilot042;2022_Jan_07_1403;BackwardMask;2020.2.8;120.16183395838074;
;m;004_o_m_n_a.jpg;neutral;8;33;m;033_o_m_s_a.jpg;sad;incongruent;7;match;;140;160;;18;126;block2_Pilot_2;4;n_s;n_s_weak;;;;;0;1;1;1;0;4;4;4;;;;;;;;;1132.1543935999998;None;1133.2465369000001;1133.5391782999995;1133.5391782999995;1133.6884824000008;1133.6884824000008;1133.7293167999997;1133.7293167999997;None;8;0;1133.7293167999997;None;1135.2292753000002;None;['7'];[1.1309278999997332];1135.2292753000002;None;;;;;0.7347337000010157;;;Emoconpilot042;2022_Jan_07_1403;BackwardMask;2020.2.8;120.16183395838074;
;f;028_y_f_s_a.jpg;sad;7;27;m;027_o_m_n_a.jpg;neutral;incongruent;8;mismatch;;130;170;;18;225;block2_Pilot_2;28;s_n;s_n_strong;;;;;0;1;1;1;0;5;5;5;;;;;;;;;1138.229454800001;None;1140.1152167;1140.405437200001;1140.405437200001;1140.555794400001;1140.555794400001;1140.5961716000002;1140.5961716000002;None;7;0;1140.5961716000002;None;1142.0962563000012;None;['7'];[0.511830800000098];1142.0962563000012;None;;;;;0.9638977000013256;;;Emoconpilot042;2022_Jan_07_1403;BackwardMask;2020.2.8;120.16183395838074;
;m;027_o_m_s_a.jpg;sad;7;30;f;030_o_f_h_a.jpg;happy;incongruent;9;mismatch;;130;150;;18;238;block2_Pilot_2;27;s_h;s_h_weak;;;;;0;1;1;1;0;6;6;6;;;;;;;;;1145.0970911000004;None;1147.0874012000004;1147.3806935000011;1147.3806935000011;1147.5304480000013;1147.5304480000013;1147.5713374999996;1147.5713374999996;None;7;0;1147.5713374999996;None;1149.0713616000012;None;['7'];[0.9046249999992142];1149.0713616000012;None;;;;;1.0608897999991314;;;Emoconpilot042;2022_Jan_07_1403;BackwardMask;2020.2.8;120.16183395838074;
;m;033_o_m_h_a.jpg;happy;9;40;f;040_y_f_s_a.jpg;sad;incongruent;7;mismatch;;120;160;;1;238;block2_Pilot_2;33;h_s;h_s_strong;;;;;0;1;1;1;0;7;7;7;;;;;;;;;1152.0720793;None;1154.0626861;1154.3556977000007;1154.3556977000007;1154.3638434000004;1154.3638434000004;1154.4048373000005;1154.4048373000005;None;None;0;1154.4048373000005;None;1155.9047566000008;None;['9'];[0.46323819999997795];1155.9047566000008;None;;;;;;;;Emoconpilot042;2022_Jan_07_1403;BackwardMask;2020.2.8;120.16183395838074;
;f;012_o_f_n_a.jpg;neutral;8;12;f;012_o_f_h_a.jpg;happy;incongruent;9;match;;140;150;;2;200;block2_Pilot_2;12;n_h;n_h_weak;;;;;0;1;1;1;0;8;8;8;;;;;;;;;1158.9058249000009;None;1160.614138500001;1160.9061863999996;1160.9061863999996;1160.922304400001;1160.922304400001;1160.9632087999998;1160.9632087999998;None;8;0;1160.9632087999998;None;1162.4632863999996;None;['8'];[0.4167907999999443];1162.4632863999996;None;;;;;0.9409603999993124;;;Emoconpilot042;2022_Jan_07_1403;BackwardMask;2020.2.8;120.16183395838074;
;f;030_o_f_n_a.jpg;neutral;8;19;f;019_m_f_n_a.jpg;neutral;congruent;8;match;;140;170;;1;238;block2_Pilot_2;30;n_n;n_n_weak;;;;;0;1;1;1;0;9;9;9;;;;;;;;;1165.464058900001;None;1167.466847400001;1167.7565438000001;1167.7565438000001;1167.7640155999998;1167.7640155999998;1167.805066500001;1167.805066500001;None;None;0;1167.805066500001;None;1169.3051950000008;None;['9'];[0.3829545999997208];1169.3051950000008;None;;;;;;;;Emoconpilot042;2022_Jan_07_1403;BackwardMask;2020.2.8;120.16183395838074;
;m;013_y_m_h_a.jpg;happy;9;8;m;008_y_m_n_a.jpg;neutral;incongruent;8;match;;120;170;;1;238;block2_Pilot_2;13;h_n;h_n_strong;;;;;0;1;1;1;0;10;10;10;;;;;;;;;1172.306044500001;None;1174.3063952000011;1174.5981341999995;1174.5981341999995;1174.6058737000003;1174.6058737000003;1174.6467988000004;1174.6467988000004;None;None;0;1174.6467988000004;None;1176.146722200001;None;['9'];[0.4374353000002884];1176.146722200001;None;;;;;;;;Emoconpilot042;2022_Jan_07_1403;BackwardMask;2020.2.8;120.16183395838074;
;f;040_y_f_h_a.jpg;happy;9;19;f;019_m_f_s_a.jpg;sad;incongruent;7;match;;120;160;;3;133;block2_Pilot_2;40;h_s;h_s_strong;;;;;0;1;1;1;0;11;11;11;;;;;;;;;1179.1479720000007;None;1180.2631517999998;1180.5562213000012;1180.5562213000012;1180.5810502000004;1180.5810502000004;1180.6218399999998;1180.6218399999998;None;9;0;1180.6218399999998;None;1182.1218398;None;['8'];[0.5103285000004689];1182.1218398;None;;;;;1.23422009999922;;;Emoconpilot042;2022_Jan_07_1403;BackwardMask;2020.2.8;120.16183395838074;
;f;040_y_f_h_a.jpg;happy;9;13;m;013_y_m_s_a.jpg;sad;incongruent;7;mismatch;;120;160;;3;226;block2_Pilot_2;40;h_s;h_s_strong;;;;;0;1;1;1;0;12;12;12;;;;;;;;;1185.1226599000001;None;1187.0134830999996;1187.306603000001;1187.306603000001;1187.3311730000005;1187.3311730000005;1187.371987300001;1187.371987300001;None;None;0;1187.371987300001;None;1188.8720895000006;None;['8'];[0.5676987000006193];1188.8720895000006;None;;;;;;;;Emoconpilot042;2022_Jan_07_1403;BackwardMask;2020.2.8;120.16183395838074;
;f;030_o_f_s_a.jpg;sad;7;27;m;027_o_m_h_a.jpg;happy;incongruent;9;mismatch;;130;150;;1;238;block2_Pilot_2;30;s_h;s_h_strong;;;;;0;1;1;1;0;13;13;13;;;;;;;;;1191.8727642000013;None;1193.8801254999998;1194.173819900001;1194.173819900001;1194.1812486;1194.1812486;1194.2222457000007;1194.2222457000007;None;None;0;1194.2222457000007;None;1195.7223348999996;None;['9'];[0.5255988000008074];1195.7223348999996;None;;;;;;;;Emoconpilot042;2022_Jan_07_1403;BackwardMask;2020.2.8;120.16183395838074;
;m;033_o_m_h_a.jpg;happy;9;30;f;030_o_f_s_a.jpg;sad;incongruent;7;mismatch;;120;160;;1;238;block2_Pilot_2;33;h_s;h_s_weak;;;;;0;1;1;1;0;14;14;14;;;;;;;;;1198.7224373000008;None;1200.7136649000004;1201.0065489000008;1201.0065489000008;1201.0149137999997;1201.0149137999997;1201.0554630000006;1201.0554630000006;None;None;0;1201.0554630000006;None;1202.555564100001;None;['9'];[0.49243620000015653];1202.555564100001;None;;;;;;;;Emoconpilot042;2022_Jan_07_1403;BackwardMask;2020.2.8;120.16183395838074;
;f;030_o_f_s_a.jpg;sad;7;28;f;028_y_f_n_a.jpg;neutral;incongruent;8;match;;130;170;;3;198;block2_Pilot_2;30;s_n;s_n_weak;;;;;0;1;1;1;0;15;15;15;;;;;;;;;1205.5568425000001;None;1207.2494342999998;1207.5406721;1207.5406721;1207.5648717000004;1207.5648717000004;1207.605814300001;1207.605814300001;None;8;1;1207.605814300001;None;1209.1057247999997;None;['8'];[0.43014319999929285];1209.1057247999997;None;;;;;1.082248000000618;;;Emoconpilot042;2022_Jan_07_1403;BackwardMask;2020.2.8;120.16183395838074;
;f;030_o_f_s_a.jpg;sad;7;33;m;033_o_m_h_a.jpg;happy;incongruent;9;mismatch;;130;150;;3;175;block2_Pilot_2;30;s_h;s_h_weak;;;;;0;1;1;1;0;16;16;16;;;;;;;;;1212.1068453999997;None;1213.583729;1213.8740139000001;1213.8740139000001;1213.8985444999998;1213.8985444999998;1213.9392051000013;1213.9392051000013;None;None;0;1213.9392051000013;None;1215.4393247999997;None;['9'];[0.45681250000052387];1215.4393247999997;None;;;;;;;;Emoconpilot042;2022_Jan_07_1403;BackwardMask;2020.2.8;120.16183395838074;
;f;021_o_f_h_a.jpg;happy;9;30;f;030_o_f_h_a.jpg;happy;congruent;9;match;;120;150;;2;194;block2_Pilot_2;21;h_h;h_h_strong;;;;;0;1;1;1;0;17;17;17;;;;;;;;;1218.4399058;None;1220.0755432000005;1220.3657825999999;1220.3657825999999;1220.3820577999995;1220.3820577999995;1220.4226674000001;1220.4226674000001;None;9;1;1220.4226674000001;None;1221.922800100001;None;['8'];[0.7093697000000247];1221.922800100001;None;;;;;0.9293584000006376;;;Emoconpilot042;2022_Jan_07_1403;BackwardMask;2020.2.8;120.16183395838074;
;f;019_m_f_n_a.jpg;neutral;8;16;m;016_y_m_s_a.jpg;sad;incongruent;7;mismatch;;140;160;;18;163;block2_Pilot_2;19;n_s;n_s_weak;;;;;0;1;1;1;0;18;18;18;;;;;;;;;1224.9234902999997;None;1226.2997586000001;1226.5907699;1226.5907699;1226.740346300001;1226.740346300001;1226.7812179000011;1226.7812179000011;None;8;0;1226.7812179000011;None;1228.2811852000013;None;['7'];[0.46275880000030156];1228.2811852000013;None;;;;;0.7068932999991375;;;Emoconpilot042;2022_Jan_07_1403;BackwardMask;2020.2.8;120.16183395838074;
;m;033_o_m_n_a.jpg;neutral;8;13;m;013_y_m_n_a.jpg;neutral;congruent;8;match;;140;170;;2;217;block2_Pilot_2;33;n_n;n_n_strong;;;;;0;1;1;1;0;19;19;19;;;;;;;;;1231.2813502000008;None;1233.1095805000004;1233.399406300001;1233.399406300001;1233.4153545999998;1233.4153545999998;1233.4564298000005;1233.4564298000005;None;None;0;1233.4564298000005;None;1234.9563256000001;None;"['9', '9']";"[0.2756942000014533, 1.0917630000003555]";1234.9563256000001;None;;;;;;;;Emoconpilot042;2022_Jan_07_1403;BackwardMask;2020.2.8;120.16183395838074;
;m;033_o_m_h_a.jpg;happy;9;13;m;013_y_m_n_a.jpg;neutral;incongruent;8;match;;120;170;;2;227;block2_Pilot_2;33;h_n;h_n_weak;;;;;0;1;1;1;0;20;20;20;;;;;;;;;1237.957066500001;None;1239.8558130000001;1240.1491812000004;1240.1491812000004;1240.165618000001;1240.165618000001;1240.2066128000006;1240.2066128000006;None;9;0;1240.2066128000006;None;1241.706381600001;None;['8'];[0.4697037999994791];1241.706381600001;None;;;;;1.24942369999917;;;Emoconpilot042;2022_Jan_07_1403;BackwardMask;2020.2.8;120.16183395838074;
;f;012_o_f_s_a.jpg;sad;7;16;m;016_y_m_n_a.jpg;neutral;incongruent;8;mismatch;;130;170;;1;238;block2_Pilot_2;12;s_n;s_n_weak;;;;;0;1;1;1;0;21;21;21;;;;;;;;;1244.7064389999996;None;1246.6938573000007;1246.9907319000013;1246.9907319000013;1246.9991186999996;1246.9991186999996;1247.0399369000006;1247.0399369000006;None;None;0;1247.0399369000006;None;1248.5400169000004;None;['9'];[0.44404130000111763];1248.5400169000004;None;;;;;;;;Emoconpilot042;2022_Jan_07_1403;BackwardMask;2020.2.8;120.16183395838074;
;f;028_y_f_n_a.jpg;neutral;8;21;f;021_o_f_h_a.jpg;happy;incongruent;9;match;;140;150;;18;202;block2_Pilot_2;28;n_h;n_h_strong;;;;;0;1;1;1;0;22;22;22;;;;;;;;;1251.5399957999998;None;1253.2482717000003;1253.5415310999997;1253.5415310999997;1253.690978300001;1253.690978300001;1253.7318706000005;1253.7318706000005;None;8;0;1253.7318706000005;None;1255.2318171000006;None;['7'];[0.46427390000098967];1255.2318171000006;None;;;;;0.7161775999993552;;;Emoconpilot042;2022_Jan_07_1403;BackwardMask;2020.2.8;120.16183395838074;
;f;028_y_f_s_a.jpg;sad;7;30;f;030_o_f_n_a.jpg;neutral;incongruent;8;match;;130;170;;2;127;block2_Pilot_2;28;s_n;s_n_weak;;;;;0;1;1;1;0;23;23;23;;;;;;;;;1258.232612400001;None;1259.3021449999997;1259.5913873000009;1259.5913873000009;1259.6077779000007;1259.6077779000007;1259.648384600001;1259.648384600001;None;8;1;1259.648384600001;None;1261.148561600001;None;['8'];[0.49154710000038904];1261.148561600001;None;;;;;0.7996978999999556;;;Emoconpilot042;2022_Jan_07_1403;BackwardMask;2020.2.8;120.16183395838074;
;m;004_o_m_n_a.jpg;neutral;8;40;f;040_y_f_n_a.jpg;neutral;congruent;8;mismatch;;140;170;;1;238;block2_Pilot_2;4;n_n;n_n_weak;;;;;0;1;1;1;0;24;24;24;;;;;;;;;1264.1486627000013;None;1266.1540741999997;1266.450013400001;1266.450013400001;1266.4578679000006;1266.4578679000006;1266.498650200001;1266.498650200001;None;None;0;1266.498650200001;None;1267.9987559;None;['9'];[0.5294358000010106];1267.9987559;None;;;;;;;;Emoconpilot042;2022_Jan_07_1403;BackwardMask;2020.2.8;120.16183395838074;
;m;016_y_m_n_a.jpg;neutral;8;16;m;016_y_m_h_a.jpg;happy;incongruent;9;match;;140;150;;18;239;block2_Pilot_2;16;n_h;n_h_weak;;;;;0;1;1;1;0;25;25;25;;;;;;;;;1270.9995913000002;None;1273.0095060000003;1273.3001599;1273.3001599;1273.4495379;1273.4495379;1273.4902930000007;1273.4902930000007;None;8;0;1273.4902930000007;None;1274.9904470000001;None;['7'];[0.45755579999968177];1274.9904470000001;None;;;;;0.7497920000005251;;;Emoconpilot042;2022_Jan_07_1403;BackwardMask;2020.2.8;120.16183395838074;
;f;012_o_f_n_a.jpg;neutral;8;33;m;033_o_m_n_a.jpg;neutral;congruent;8;mismatch;;140;170;;3;134;block2_Pilot_2;12;n_n;n_n_weak;;;;;0;1;1;1;0;26;26;26;;;;;;;;;1277.9905866999998;None;1279.1265208000004;1279.4169665999998;1279.4169665999998;1279.4413624000008;1279.4413624000008;1279.482268400001;1279.482268400001;None;9;0;1279.482268400001;None;1280.9822285999999;None;['8'];[0.9858055999993667];1280.9822285999999;None;;;;;1.389814899999692;;;Emoconpilot042;2022_Jan_07_1403;BackwardMask;2020.2.8;120.16183395838074;
;m;013_y_m_h_a.jpg;happy;9;27;m;027_o_m_s_a.jpg;sad;incongruent;7;match;;120;160;;2;194;block2_Pilot_2;13;h_s;h_s_strong;;;;;0;1;1;1;0;27;27;27;;;;;;;;;1283.9826095000008;None;1285.6183809000013;1285.9087997999995;1285.9087997999995;1285.9248371000012;1285.9248371000012;1285.965741;1285.965741;None;9;0;1285.965741;None;1287.4656128999995;None;['8'];[0.3744158999998035];1287.4656128999995;None;;;;;0.8183637999991333;;;Emoconpilot042;2022_Jan_07_1403;BackwardMask;2020.2.8;120.16183395838074;
;m;013_y_m_n_a.jpg;neutral;8;28;f;028_y_f_n_a.jpg;neutral;congruent;8;mismatch;;140;170;;1;238;block2_Pilot_2;13;n_n;n_n_weak;;;;;0;1;1;1;0;28;28;28;;;;;;;;;1290.4657406000006;None;1292.468424300001;1292.7588909000006;1292.7588909000006;1292.7666931000003;1292.7666931000003;1292.807447700001;1292.807447700001;None;None;0;1292.807447700001;None;1294.3075544000003;None;['9'];[0.48447010000018054];1294.3075544000003;None;;;;;;;;Emoconpilot042;2022_Jan_07_1403;BackwardMask;2020.2.8;120.16183395838074;
;f;030_o_f_s_a.jpg;sad;7;33;m;033_o_m_h_a.jpg;happy;incongruent;9;mismatch;;130;150;;3;168;block2_Pilot_2;30;s_h;s_h_weak;;;;;0;1;1;1;0;29;29;29;;;;;;;;;1297.3083480000005;None;1298.7270757000006;1299.0174028000001;1299.0174028000001;1299.0417662;1299.0417662;1299.0825748000007;1299.0825748000007;None;7;0;1299.0825748000007;None;1300.5827312000001;None;['8'];[1.1373593000007531];1300.5827312000001;None;;;;;1.0854417999998986;;;Emoconpilot042;2022_Jan_07_1403;BackwardMask;2020.2.8;120.16183395838074;
;m;008_y_m_n_a.jpg;neutral;8;12;f;012_o_f_n_a.jpg;neutral;congruent;8;mismatch;;140;170;;18;208;block2_Pilot_2;8;n_n;n_n_weak;;;;;0;1;1;1;0;30;30;30;;;;;;;;;1303.5834223000002;None;1305.3358953999996;1305.6257454999995;1305.6257454999995;1305.7753868;1305.7753868;1305.8161665000007;1305.8161665000007;None;None;0;1305.8161665000007;None;1307.3164837000004;None;"['8', '7']";"[0.18733419999989565, 1.7396172999997361]";1307.3164837000004;None;;;;;;;;Emoconpilot042;2022_Jan_07_1403;BackwardMask;2020.2.8;120.16183395838074;
;m;008_y_m_s_a.jpg;sad;7;4;m;004_o_m_n_a.jpg;neutral;incongruent;8;match;;130;170;;2;231;block2_Pilot_2;8;s_n;s_n_weak;;;;;0;1;1;1;0;31;31;31;;;;;;;;;1310.3172481000001;None;1312.2609948999998;1312.5510460000005;1312.5510460000005;1312.5671112;1312.5671112;1312.6079262000003;1312.6079262000003;None;None;0;1312.6079262000003;None;1314.1080817000002;None;['9'];[0.49988000000121247];1314.1080817000002;None;;;;;;;;Emoconpilot042;2022_Jan_07_1403;BackwardMask;2020.2.8;120.16183395838074;
;m;016_y_m_n_a.jpg;neutral;8;28;f;028_y_f_n_a.jpg;neutral;congruent;8;mismatch;;140;170;;2;218;block2_Pilot_2;16;n_n;n_n_weak;;;;;0;1;1;1;0;32;32;32;;;;;;;;;1317.1082633000005;None;1318.9443767000012;1319.2343799999999;1319.2343799999999;1319.2505394;1319.2505394;1319.2913755999998;1319.2913755999998;None;None;0;1319.2913755999998;None;1320.7918241999996;None;['9'];[0.9762537000005977];1320.7918241999996;None;;;;;;;;Emoconpilot042;2022_Jan_07_1403;BackwardMask;2020.2.8;120.16183395838074;
;m;033_o_m_n_a.jpg;neutral;8;33;m;033_o_m_s_a.jpg;sad;incongruent;7;match;;140;160;;3;141;block2_Pilot_2;33;n_s;n_s_weak;;;;;0;1;1;1;0;33;33;33;;;;;;;;;1323.7921810000007;None;1324.9860605000013;1325.276360400001;1325.276360400001;1325.3005178000003;1325.3005178000003;1325.3414113;1325.3414113;None;8;0;1325.3414113;None;1326.8415471999997;None;['8'];[0.6622843999994075];1326.8415471999997;None;;;;;1.2826511000002938;;;Emoconpilot042;2022_Jan_07_1403;BackwardMask;2020.2.8;120.16183395838074;
;m;016_y_m_n_a.jpg;neutral;8;13;m;013_y_m_s_a.jpg;sad;incongruent;7;match;;140;160;;1;238;block2_Pilot_2;16;n_s;n_s_weak;;;;;0;1;1;1;0;34;34;34;;;;;;;;;1329.8418015000007;None;1331.8452799999995;1332.1345629999996;1332.1345629999996;1332.142360400001;1332.142360400001;1332.1832627000003;1332.1832627000003;None;None;0;1332.1832627000003;None;1333.6832888999998;None;['9'];[0.49283319999995];1333.6832888999998;None;;;;;;;;Emoconpilot042;2022_Jan_07_1403;BackwardMask;2020.2.8;120.16183395838074;
;f;030_o_f_h_a.jpg;happy;9;12;f;012_o_f_n_a.jpg;neutral;incongruent;8;match;;120;170;;3;190;block2_Pilot_2;30;h_n;h_n_weak;;;;;0;1;1;1;0;35;35;35;;;;;;;;;1336.6834534999998;None;1338.2938039;1338.5851731000002;1338.5851731000002;1338.6092227000008;1338.6092227000008;1338.6502208000002;1338.6502208000002;None;9;0;1338.6502208000002;None;1340.150151400001;None;['7'];[0.6258433000002697];1340.150151400001;None;;;;;0.8378226000004361;;;Emoconpilot042;2022_Jan_07_1403;BackwardMask;2020.2.8;120.16183395838074;
;f;030_o_f_s_a.jpg;sad;7;12;f;012_o_f_n_a.jpg;neutral;incongruent;8;match;;130;170;;3;197;block2_Pilot_2;30;s_n;s_n_strong;;;;;0;1;1;1;0;36;36;36;;;;;;;;;1343.1515084000002;None;1344.812274;1345.1016134000001;1345.1016134000001;1345.1260524000008;1345.1260524000008;1345.1668728000004;1345.1668728000004;None;8;1;1345.1668728000004;None;1346.6670460000005;None;['8'];[0.4209283999989566];1346.6670460000005;None;;;;;1.0811469000000216;;;Emoconpilot042;2022_Jan_07_1403;BackwardMask;2020.2.8;120.16183395838074;
;m;004_o_m_s_a.jpg;sad;7;8;m;008_y_m_h_a.jpg;happy;incongruent;9;match;;130;150;;3;201;block2_Pilot_2;4;s_h;s_h_strong;;;;;0;1;1;1;0;37;37;37;;;;;;;;;1349.6678978;None;1351.3494945000002;1351.6431701000001;1351.6431701000001;1351.6678146000013;1351.6678146000013;1351.708585800001;1351.708585800001;None;9;1;1351.708585800001;None;1353.2087067000011;None;['8'];[0.44736960000045656];1353.2087067000011;None;;;;;1.3473594000006415;;;Emoconpilot042;2022_Jan_07_1403;BackwardMask;2020.2.8;120.16183395838074;
;f;040_y_f_n_a.jpg;neutral;8;16;m;016_y_m_n_a.jpg;neutral;congruent;8;mismatch;;140;170;;3;198;block2_Pilot_2;40;n_n;n_n_strong;;;;;0;1;1;1;0;38;38;38;;;;;;;;;1356.2095915999998;None;1357.8824332000004;1358.1768341000006;1358.1768341000006;1358.2013736999997;1358.2013736999997;1358.2420754000013;1358.2420754000013;None;8;1;1358.2420754000013;None;1359.7423242000004;None;['8'];[1.233573499999693];1359.7423242000004;None;;;;;1.1018827999996574;;;Emoconpilot042;2022_Jan_07_1403;BackwardMask;2020.2.8;120.16183395838074;
;m;027_o_m_n_a.jpg;neutral;8;16;m;016_y_m_s_a.jpg;sad;incongruent;7;match;;140;160;;1;238;block2_Pilot_2;27;n_s;n_s_strong;;;;;0;1;1;1;0;39;39;39;;;;;;;;;1362.7430064;None;1364.7448913000007;1365.0353374000006;1365.0353374000006;1365.0433049000003;1365.0433049000003;1365.0837787;1365.0837787;None;None;0;1365.0837787;None;1366.5837594000004;None;['9'];[0.6002905999994255];1366.5837594000004;None;;;;;;;;Emoconpilot042;2022_Jan_07_1403;BackwardMask;2020.2.8;120.16183395838074;
;m;033_o_m_n_a.jpg;neutral;8;40;f;040_y_f_h_a.jpg;happy;incongruent;9;mismatch;;140;150;;2;137;block2_Pilot_2;33;n_h;n_h_strong;;;;;0;1;1;1;0;40;40;40;;;;;;;;;1369.5856156999998;None;1370.7451775999998;1371.0354265000005;1371.0354265000005;1371.0515359;1371.0515359;1371.0923853000004;1371.0923853000004;None;8;0;1371.0923853000004;None;1372.5924211000001;None;None;;1372.5924211000001;None;;;;;1.1236649999991641;;;Emoconpilot042;2022_Jan_07_1403;BackwardMask;2020.2.8;120.16183395838074;
;m;004_o_m_s_a.jpg;sad;7;8;m;008_y_m_h_a.jpg;happy;incongruent;9;match;;130;150;;18;193;block2_Pilot_2;4;s_h;s_h_strong;;;;;0;1;1;1;0;41;41;41;;;;;;;;;1375.5927509000012;None;1377.2090626000008;1377.5018634000007;1377.5018634000007;1377.6518319000006;1377.6518319000006;1377.6926081000001;1377.6926081000001;None;7;0;1377.6926081000001;None;1379.192669;None;['7'];[1.3913021999997];1379.192669;None;;;;;1.0753675000014482;;;Emoconpilot042;2022_Jan_07_1403;BackwardMask;2020.2.8;120.16183395838074;
;f;012_o_f_h_a.jpg;happy;9;4;m;004_o_m_s_a.jpg;sad;incongruent;7;mismatch;;120;160;;3;198;block2_Pilot_2;12;h_s;h_s_weak;;;;;0;1;1;1;0;42;42;42;;;;;;;;;1382.1926402000008;None;1383.8509849000002;1384.1436747000007;1384.1436747000007;1384.168479;1384.168479;1384.2093607000006;1384.2093607000006;None;9;0;1384.2093607000006;None;1385.7092833000006;None;['7'];[0.9544968999998673];1385.7092833000006;None;;;;;0.774633700000777;;;Emoconpilot042;2022_Jan_07_1403;BackwardMask;2020.2.8;120.16183395838074;
;f;012_o_f_n_a.jpg;neutral;8;8;m;008_y_m_s_a.jpg;sad;incongruent;7;mismatch;;140;160;;1;238;block2_Pilot_2;12;n_s;n_s_strong;;;;;0;1;1;1;0;43;43;43;;;;;;;;;1388.709449;None;1390.716151300001;1391.010909300001;1391.010909300001;1391.0186116000004;1391.0186116000004;1391.0595071999996;1391.0595071999996;None;None;0;1391.0595071999996;None;1392.559522900001;None;"['9', '9']";"[0.9923913999991782, 1.2245090999986132]";1392.559522900001;None;;;;;;;;Emoconpilot042;2022_Jan_07_1403;BackwardMask;2020.2.8;120.16183395838074;
;f;040_y_f_n_a.jpg;neutral;8;8;m;008_y_m_n_a.jpg;neutral;congruent;8;mismatch;;140;170;;3;165;block2_Pilot_2;40;n_n;n_n_weak;;;;;0;1;1;1;0;44;44;44;;;;;;;;;1395.5604186;None;1396.9539146000006;1397.244275500001;1397.244275500001;1397.2688122;1397.2688122;1397.3095703;1397.3095703;None;None;0;1397.3095703;None;1398.8096079999996;None;['8'];[0.5744037000004028];1398.8096079999996;None;;;;;;;;Emoconpilot042;2022_Jan_07_1403;BackwardMask;2020.2.8;120.16183395838074;
;f;028_y_f_h_a.jpg;happy;9;33;m;033_o_m_n_a.jpg;neutral;incongruent;8;mismatch;;120;170;;1;238;block2_Pilot_2;28;h_n;h_n_strong;;;;;0;1;1;1;0;45;45;45;;;;;;;;;1401.8109175999998;None;1403.8051097000007;1404.0943618000001;1404.0943618000001;1404.1023499000003;1404.1023499000003;1404.1432296000003;1404.1432296000003;None;None;0;1404.1432296000003;None;1405.6432762000004;None;['9'];[0.8846727999989525];1405.6432762000004;None;;;;;;;;Emoconpilot042;2022_Jan_07_1403;BackwardMask;2020.2.8;120.16183395838074;
;m;027_o_m_s_a.jpg;sad;7;19;f;019_m_f_n_a.jpg;neutral;incongruent;8;mismatch;;130;170;;2;236;block2_Pilot_2;27;s_n;s_n_weak;;;;;0;1;1;1;0;46;46;46;;;;;;;;;1408.6440104000012;None;1410.6181029;1410.9108432000012;1410.9108432000012;1410.9273525000008;1410.9273525000008;1410.9683246000004;1410.9683246000004;None;None;0;1410.9683246000004;None;1412.4690994000011;None;['9'];[0.9948463999990054];1412.4690994000011;None;;;;;;;;Emoconpilot042;2022_Jan_07_1403;BackwardMask;2020.2.8;120.16183395838074;
;m;027_o_m_h_a.jpg;happy;9;19;f;019_m_f_s_a.jpg;sad;incongruent;7;mismatch;;120;160;;1;238;block2_Pilot_2;27;h_s;h_s_strong;;;;;0;1;1;1;0;47;47;47;;;;;;;;;1415.4691696999998;None;1417.4810238999999;1417.7698063999997;1417.7698063999997;1417.7774151000012;1417.7774151000012;1417.8183316000013;1417.8183316000013;None;None;0;1417.8183316000013;None;1419.3184581000005;None;['9'];[0.4255019000011089];1419.3184581000005;None;;;;;;;;Emoconpilot042;2022_Jan_07_1403;BackwardMask;2020.2.8;120.16183395838074;
;m;016_y_m_h_a.jpg;happy;9;4;m;004_o_m_s_a.jpg;sad;incongruent;7;match;;120;160;;3;227;block2_Pilot_2;16;h_s;h_s_strong;;;;;0;1;1;1;0;48;48;48;;;;;;;;;1422.3202505000008;None;1424.2181234;1424.5111491999996;1424.5111491999996;1424.5358014000012;1424.5358014000012;1424.5769578;1424.5769578;None;9;0;1424.5769578;None;1426.0771112000002;None;['7'];[0.8909664000002522];1426.0771112000002;None;;;;;0.870918000000529;;;Emoconpilot042;2022_Jan_07_1403;BackwardMask;2020.2.8;120.16183395838074;
;f;040_y_f_h_a.jpg;happy;9;13;m;013_y_m_h_a.jpg;happy;congruent;9;mismatch;;120;150;;3;165;block2_Pilot_2;40;h_h;h_h_strong;;;;;0;1;1;1;0;49;49;49;;;;;;;;;1429.0768296000006;None;1430.4594152000009;1430.752900900001;1430.752900900001;1430.7777674000008;1430.7777674000008;1430.8186464999999;1430.8186464999999;None;9;1;1430.8186464999999;None;1432.3186721000002;None;['7'];[1.5613033999998152];1432.3186721000002;None;;;;;0.8212677000010444;;;Emoconpilot042;2022_Jan_07_1403;BackwardMask;2020.2.8;120.16183395838074;
;m;033_o_m_s_a.jpg;sad;7;28;f;028_y_f_n_a.jpg;neutral;incongruent;8;mismatch;;130;170;;2;227;block2_Pilot_2;33;s_n;s_n_weak;;;;;0;1;1;1;0;50;50;50;;;;;;;;;1435.3197799999998;None;1437.2172303999996;1437.5113641999997;1437.5113641999997;1437.5278498999996;1437.5278498999996;1437.5689027000008;1437.5689027000008;None;None;0;1437.5689027000008;None;1439.0689538000006;None;['9'];[0.5711420999996335];1439.0689538000006;None;;;;;;;;Emoconpilot042;2022_Jan_07_1403;BackwardMask;2020.2.8;120.16183395838074;
;f;019_m_f_s_a.jpg;sad;7;27;m;027_o_m_h_a.jpg;happy;incongruent;9;mismatch;;130;150;;1;238;block2_Pilot_2;19;s_h;s_h_weak;;;;;0;1;1;1;0;51;51;51;;;;;;;;;1442.069737400001;None;1444.074164900001;1444.3703499000003;1444.3703499000003;1444.3779274000008;1444.3779274000008;1444.4189087000013;1444.4189087000013;None;None;0;1444.4189087000013;None;1445.9189997000012;None;['9'];[1.753064099999392];1445.9189997000012;None;;;;;;;;Emoconpilot042;2022_Jan_07_1403;BackwardMask;2020.2.8;120.16183395838074;
;m;016_y_m_h_a.jpg;happy;9;19;f;019_m_f_n_a.jpg;neutral;incongruent;8;mismatch;;120;170;;18;238;block2_Pilot_2;16;h_n;h_n_strong;;;;;0;1;1;1;0;52;52;52;;;;;;;;;1448.9190746000004;None;1450.9104948000004;1451.2032928000008;1451.2032928000008;1451.3531710999996;1451.3531710999996;1451.3938519000003;1451.3938519000003;None;9;0;1451.3938519000003;None;1452.8941680999997;None;['7'];[0.6738552000006166];1452.8941680999997;None;;;;;1.0379069999999047;;;Emoconpilot042;2022_Jan_07_1403;BackwardMask;2020.2.8;120.16183395838074;
;f;021_o_f_s_a.jpg;sad;7;8;m;008_y_m_n_a.jpg;neutral;incongruent;8;mismatch;;130;170;;1;238;block2_Pilot_2;21;s_n;s_n_strong;;;;;0;1;1;1;0;53;53;53;;;;;;;;;1455.8947305000002;None;1457.883809500001;1458.1784726000005;1458.1784726000005;1458.1866649000003;1458.1866649000003;1458.2275452000013;1458.2275452000013;None;None;0;1458.2275452000013;None;1459.7275747000003;None;['9'];[0.8002175999990868];1459.7275747000003;None;;;;;;;;Emoconpilot042;2022_Jan_07_1403;BackwardMask;2020.2.8;120.16183395838074;
;f;012_o_f_s_a.jpg;sad;7;33;m;033_o_m_s_a.jpg;sad;congruent;7;mismatch;;130;160;;2;148;block2_Pilot_2;12;s_s;s_s_weak;;;;;0;1;1;1;0;54;54;54;;;;;;;;;1462.7287069000013;None;1463.964705800001;1464.2619860000013;1464.2619860000013;1464.2783046000004;1464.2783046000004;1464.3192801000005;1464.3192801000005;None;9;0;1464.3192801000005;None;1465.8193415000005;None;['8'];[0.38839870000083465];1465.8193415000005;None;;;;;0.880610299998807;;;Emoconpilot042;2022_Jan_07_1403;BackwardMask;2020.2.8;120.16183395838074;
;f;030_o_f_s_a.jpg;sad;7;40;f;040_y_f_s_a.jpg;sad;congruent;7;match;;130;160;;3;136;block2_Pilot_2;30;s_s;s_s_strong;;;;;0;1;1;1;0;55;55;55;;;;;;;;;1468.8195596000005;None;1469.973262200001;1470.262654;1470.262654;1470.2868847000009;1470.2868847000009;1470.3278843999997;1470.3278843999997;None;None;0;1470.3278843999997;None;1471.8277670999996;None;['9'];[1.4042820000013307];1471.8277670999996;None;;;;;;;;Emoconpilot042;2022_Jan_07_1403;BackwardMask;2020.2.8;120.16183395838074;
;m;027_o_m_s_a.jpg;sad;7;28;f;028_y_f_h_a.jpg;happy;incongruent;9;mismatch;;130;150;;1;238;block2_Pilot_2;27;s_h;s_h_weak;;;;;0;1;1;1;0;56;56;56;;;;;;;;;1474.8277901000001;None;1476.8191789000011;1477.1122685999999;1477.1122685999999;1477.1204763000005;1477.1204763000005;1477.1610981000013;1477.1610981000013;None;None;0;1477.1610981000013;None;1478.661187400001;None;['9'];[0.3788497000005009];1478.661187400001;None;;;;;;;;Emoconpilot042;2022_Jan_07_1403;BackwardMask;2020.2.8;120.16183395838074;
;m;004_o_m_n_a.jpg;neutral;8;8;m;008_y_m_s_a.jpg;sad;incongruent;7;match;;140;160;;3;225;block2_Pilot_2;4;n_s;n_s_strong;;;;;0;1;1;1;0;57;57;57;;;;;;;;;1481.6626092000006;None;1483.5695542000012;1483.8628307;1483.8628307;1483.8870881000003;1483.8870881000003;1483.9281150000006;1483.9281150000006;None;8;0;1483.9281150000006;None;1485.4280894000003;None;['8'];[0.41990609999993467];1485.4280894000003;None;;;;;0.943804700000328;;;Emoconpilot042;2022_Jan_07_1403;BackwardMask;2020.2.8;120.16183395838074;
;f;012_o_f_s_a.jpg;sad;7;40;f;040_y_f_s_a.jpg;sad;congruent;7;match;;130;160;;1;238;block2_Pilot_2;12;s_s;s_s_strong;;;;;0;1;1;1;0;58;58;58;;;;;;;;;1488.4290194000005;None;1490.4152484000006;1490.7124117000003;1490.7124117000003;1490.7204835000011;1490.7204835000011;1490.7614055000013;1490.7614055000013;None;None;0;1490.7614055000013;None;1492.2616290000005;None;['9'];[0.5462079999997513];1492.2616290000005;None;;;;;;;;Emoconpilot042;2022_Jan_07_1403;BackwardMask;2020.2.8;120.16183395838074;
;f;021_o_f_h_a.jpg;happy;9;4;m;004_o_m_n_a.jpg;neutral;incongruent;8;mismatch;;120;170;;1;238;block2_Pilot_2;21;h_n;h_n_weak;;;;;0;1;1;1;0;59;59;59;;;;;;;;;1495.2616881000013;None;1497.2662892999997;1497.5631372000007;1497.5631372000007;1497.570609100001;1497.570609100001;1497.6117781000012;1497.6117781000012;None;None;0;1497.6117781000012;None;1499.1115292000013;None;['9'];[0.5203736000003119];1499.1115292000013;None;;;;;;;;Emoconpilot042;2022_Jan_07_1403;BackwardMask;2020.2.8;120.16183395838074;
;f;040_y_f_h_a.jpg;happy;9;16;m;016_y_m_n_a.jpg;neutral;incongruent;8;mismatch;;120;170;;2;154;block2_Pilot_2;40;h_n;h_n_weak;;;;;0;1;1;1;0;60;60;60;;;;;;;;;1502.1125013;None;1503.4035132000008;1503.6961767000012;1503.6961767000012;1503.7123884000011;1503.7123884000011;1503.7534175;1503.7534175;None;9;0;1503.7534175;None;1505.2535576999999;None;['8'];[0.6344991000005393];1505.2535576999999;None;;;;;1.1504445000009582;;;Emoconpilot042;2022_Jan_07_1403;BackwardMask;2020.2.8;120.16183395838074;
;m;008_y_m_n_a.jpg;neutral;8;4;m;004_o_m_s_a.jpg;sad;incongruent;7;match;;140;160;;18;145;block2_Pilot_2;8;n_s;n_s_strong;;;;;0;1;1;1;0;61;61;61;;;;;;;;;1508.2535472;None;1509.4890670000004;1509.7798693000004;1509.7798693000004;1509.9292705999997;1509.9292705999997;1509.9702792999997;1509.9702792999997;None;8;0;1509.9702792999997;None;1511.470385300001;None;['7'];[0.6894828999993479];1511.470385300001;None;;;;;1.3657146000005014;;;Emoconpilot042;2022_Jan_07_1403;BackwardMask;2020.2.8;120.16183395838074;
;f;021_o_f_s_a.jpg;sad;7;33;m;033_o_m_h_a.jpg;happy;incongruent;9;mismatch;;130;150;;1;238;block2_Pilot_2;21;s_h;s_h_strong;;;;;0;1;1;1;0;62;62;62;;;;;;;;;1514.4712215;None;1516.4600922999998;1516.7546574000007;1516.7546574000007;1516.7629095000011;1516.7629095000011;1516.8038362999996;1516.8038362999996;None;None;0;1516.8038362999996;None;1518.3039286000003;None;['9'];[0.5280512999997882];1518.3039286000003;None;;;;;;;;Emoconpilot042;2022_Jan_07_1403;BackwardMask;2020.2.8;120.16183395838074;
;m;033_o_m_n_a.jpg;neutral;8;30;f;030_o_f_h_a.jpg;happy;incongruent;9;mismatch;;140;150;;18;171;block2_Pilot_2;33;n_h;n_h_weak;;;;;0;1;1;1;0;63;63;63;;;;;;;;;1521.3046066000006;None;1522.7503186000013;1523.046841700001;1523.046841700001;1523.196440900001;1523.196440900001;1523.2372401000011;1523.2372401000011;None;8;0;1523.2372401000011;None;1524.7376463;None;['7'];[1.2543663999986165];1524.7376463;None;;;;;0.9547293000014179;;;Emoconpilot042;2022_Jan_07_1403;BackwardMask;2020.2.8;120.16183395838074;
;m;027_o_m_n_a.jpg;neutral;8;27;m;027_o_m_h_a.jpg;happy;incongruent;9;match;;140;150;;2;164;block2_Pilot_2;27;n_h;n_h_weak;;;;;0;1;1;1;0;64;64;64;;;;;;;;;1527.7373177999998;None;1529.1233920000013;1529.4135955000002;1529.4135955000002;1529.4297392999997;1529.4297392999997;1529.4705493000001;1529.4705493000001;None;None;0;1529.4705493000001;None;1530.9707498999996;None;['9'];[0.8771692999998777];1530.9707498999996;None;;;;;;;;Emoconpilot042;2022_Jan_07_1403;BackwardMask;2020.2.8;120.16183395838074;
;m;008_y_m_n_a.jpg;neutral;8;40;f;040_y_f_n_a.jpg;neutral;congruent;8;mismatch;;140;170;;1;238;block2_Pilot_2;8;n_n;n_n_strong;;;;;0;1;1;1;0;65;65;65;;;;;;;;;1533.9722106000008;None;1535.9735806000008;1536.2636006000012;1536.2636006000012;1536.2715034000012;1536.2715034000012;1536.3122942999998;1536.3122942999998;None;None;0;1536.3122942999998;None;1537.8124320000006;None;['9'];[0.4275932999989891];1537.8124320000006;None;;;;;;;;Emoconpilot042;2022_Jan_07_1403;BackwardMask;2020.2.8;120.16183395838074;
;f;040_y_f_h_a.jpg;happy;9;21;f;021_o_f_n_a.jpg;neutral;incongruent;8;match;;120;170;;18;239;block2_Pilot_2;40;h_n;h_n_strong;;;;;0;1;1;1;0;66;66;66;;;;;;;;;1540.8131418000012;None;1542.8130201000004;1543.1052087999997;1543.1052087999997;1543.2550233000002;1543.2550233000002;1543.2959287000012;1543.2959287000012;None;9;0;1543.2959287000012;None;1544.7958386999999;None;['7'];[0.5481409000003623];1544.7958386999999;None;;;;;1.191983299999265;;;Emoconpilot042;2022_Jan_07_1403;BackwardMask;2020.2.8;120.16183395838074;
;f;021_o_f_s_a.jpg;sad;7;28;f;028_y_f_h_a.jpg;happy;incongruent;9;match;;130;150;;1;238;block2_Pilot_2;21;s_h;s_h_weak;;;;;0;1;1;1;0;67;67;67;;;;;;;;;1547.7967817000008;None;1549.7854949000011;1550.0802267;1550.0802267;1550.0884633000005;1550.0884633000005;1550.1294190000008;1550.1294190000008;None;None;0;1550.1294190000008;None;1551.629368400001;None;['9'];[0.690519999998287];1551.629368400001;None;;;;;;;;Emoconpilot042;2022_Jan_07_1403;BackwardMask;2020.2.8;120.16183395838074;
;f;021_o_f_n_a.jpg;neutral;8;30;f;030_o_f_n_a.jpg;neutral;congruent;8;match;;140;170;;2;209;block2_Pilot_2;21;n_n;n_n_strong;;;;;0;1;1;1;0;68;68;68;;;;;;;;;1554.629921400001;None;1556.4196403000005;1556.7141812999998;1556.7141812999998;1556.730336300001;1556.730336300001;1556.7710604000004;1556.7710604000004;None;9;0;1556.7710604000004;None;1558.272065700001;None;['7'];[1.1279654999998456];1558.272065700001;None;;;;;0.8209079999996902;;;Emoconpilot042;2022_Jan_07_1403;BackwardMask;2020.2.8;120.16183395838074;
;f;040_y_f_s_a.jpg;sad;7;13;m;013_y_m_s_a.jpg;sad;congruent;7;mismatch;;130;160;;3;147;block2_Pilot_2;40;s_s;s_s_strong;;;;;0;1;1;1;0;69;69;69;;;;;;;;;1561.2714907999998;None;1562.5041755000002;1562.7972249000013;1562.7972249000013;1562.8220462999998;1562.8220462999998;1562.8629156000006;1562.8629156000006;None;8;0;1562.8629156000006;None;1564.3632103;None;['7'];[1.5166465999991487];1564.3632103;None;;;;;0.8490593000005902;;;Emoconpilot042;2022_Jan_07_1403;BackwardMask;2020.2.8;120.16183395838074;
;f;040_y_f_s_a.jpg;sad;7;21;f;021_o_f_h_a.jpg;happy;incongruent;9;match;;130;150;;3;172;block2_Pilot_2;40;s_h;s_h_strong;;;;;0;1;1;1;0;70;70;70;;;;;;;;;1567.3641430000007;None;1568.8042665000012;1569.0973248999999;1569.0973248999999;1569.122206600001;1569.122206600001;1569.1630205000001;1569.1630205000001;None;8;0;1569.1630205000001;None;1570.6631923000004;None;['8'];[0.5447418000003381];1570.6631923000004;None;;;;;0.908796199999415;;;Emoconpilot042;2022_Jan_07_1403;BackwardMask;2020.2.8;120.16183395838074;
;m;013_y_m_s_a.jpg;sad;7;16;m;016_y_m_n_a.jpg;neutral;incongruent;8;match;;130;170;;1;238;block2_Pilot_2;13;s_n;s_n_strong;;;;;0;1;1;1;0;71;71;71;;;;;;;;;1573.664119000001;None;1575.6544224999998;1575.9476185000003;1575.9476185000003;1575.9558017;1575.9558017;1575.9964607000002;1575.9964607000002;None;None;0;1575.9964607000002;None;1577.4965625000004;None;['9'];[0.5113960999988194];1577.4965625000004;None;;;;;;;;Emoconpilot042;2022_Jan_07_1403;BackwardMask;2020.2.8;120.16183395838074;
;m;008_y_m_s_a.jpg;sad;7;12;f;012_o_f_h_a.jpg;happy;incongruent;9;mismatch;;130;150;;18;238;block2_Pilot_2;8;s_h;s_h_weak;;;;;0;1;1;1;0;72;72;72;;;;;;;;;1580.4966599;None;1582.5427321999996;1582.831411000001;1582.831411000001;1582.9807990000008;1582.9807990000008;1583.021696400001;1583.021696400001;None;7;0;1583.021696400001;None;1584.5216321000007;None;['7'];[1.0221849999998085];1584.5216321000007;None;;;;;1.0101962000007916;;;Emoconpilot042;2022_Jan_07_1403;BackwardMask;2020.2.8;120.16183395838074;
