Person;primeGender;prime;primeEmotion;corrAnsPrime;targetPerson;targetGender;target;targetEmotion;Cond;corrAnsTar;gender;condition;ID_primer;ID_target;PrimerTime;PrimerTime120;JitterTime;conditionsFile;primePerson;emotion_condition;Condition;example.thisRepN;example.thisTrialN;example.thisN;example.thisIndex;readinBlocks.thisRepN;readinBlocks.thisTrialN;readinBlocks.thisN;readinBlocks.thisIndex;trials.thisRepN;trials.thisTrialN;trials.thisN;trials.thisIndex;text_intro.started;text_intro.stopped;text_probe.started;text_probe.stopped;key_resp_2.keys;key_resp_2.rt;key_resp_2.started;key_resp_2.stopped;polygon_ISI.started;polygon_ISI.stopped;polygon.started;polygon.stopped;primerImage.started;primerImage.stopped;maskImage.started;maskImage.stopped;response.started;response.stopped;key_resp.keys;key_resp.corr;key_resp.rt;key_resp.started;key_resp.stopped;text.started;text.stopped;key_resp_Rating.keys;key_resp_Rating.rt;key_resp_Rating.started;key_resp_Rating.stopped;text_start.started;text_start.stopped;text_pause.started;text_pause.stopped;text_ende.started;text_ende.stopped;participant;date;expName;psychopyVersion;frameRate;
;;;;;;;;;;;;;;;;;;;;;;;;;;;;;;;;;;505.87592889973894;510.8465986000374;510.8465986000374;None;7;11.780790399760008;505.87592889973894;None;;;;;;;;;;;;;;;;;;;;;;;;;;;;Emoconpilot028;2021_Nov_24_1636;BackwardMask;2020.2.8;119.97787630223078;
2;f;1113_y_f_s_a.jpg;sad;7;1;m;1111_m_m_h_a.jpg;happy;incongruent;9;mix;s+h;130;150;1;2;148;;;;;0;0;0;0;;;;;;;;;;;;;;;;;517.7597452998161;None;519.086479799822;519.4039408997633;519.4039408997633;519.4305024999194;519.4305024999194;519.4647512999363;519.4647512999363;None;7;0;1.3119256999343634;519.4647512999363;None;520.9631449999288;None;['7'];[2.045387600082904];520.9631449999288;None;;;;;;;Emoconpilot028;2021_Nov_24_1636;BackwardMask;2020.2.8;119.97787630223078;
2;f;1111_m_m_h_a.jpg;happy;9;3;f;1113_y_f_s_a.jpg;sad;incongruent;7;mix;h+s;120;160;9;18;195;;;;;0;1;1;1;;;;;;;;;;;;;;;;;523.9631051998585;None;525.6160042998381;525.9058276000433;525.9058276000433;526.055033700075;526.055033700075;526.0958320000209;526.0958320000209;None;9;0;0.8647075998596847;526.0958320000209;None;527.5959724998102;None;['7'];[0.3807439999654889];527.5959724998102;None;;;;;;;Emoconpilot028;2021_Nov_24_1636;BackwardMask;2020.2.8;119.97787630223078;
2;f;1112_m_f_n_a.jpg;neutral;8;2;f;1112_m_f_n_a.jpg;neutral;congruent;8;match;n+n;140;170;9;18;134;;;;;0;2;2;2;;;;;;;;;;;;;;;;;530.5959671000019;None;531.7383694997989;532.0308894999325;532.0308894999325;532.180183599703;532.180183599703;532.2208356000483;532.2208356000483;None;8;1;0.6838181000202894;532.2208356000483;None;533.7221317999065;None;['7'];[0.38247219985350966];533.7221317999065;None;;;;;;;Emoconpilot028;2021_Nov_24_1636;BackwardMask;2020.2.8;119.97787630223078;
;m;033_o_m_h_a.jpg;happy;9;30;f;030_o_f_n_a.jpg;neutral;incongruent;8;mismatch;;120;170;;18;238;block1_Pilot_2;33;h_n;h_n_strong;;;;;0;0;0;0;0;0;0;0;;;;;;;;;537.765917699784;None;539.7590127000585;540.0475490000099;540.0475490000099;540.1973410998471;540.1973410998471;540.2383369999006;540.2383369999006;None;9;0;0.698463199660182;540.2383369999006;None;541.7388689001091;None;['7'];[0.46976189967244864];541.7388689001091;None;536.721067499835;None;None;None;;;Emoconpilot028;2021_Nov_24_1636;BackwardMask;2020.2.8;119.97787630223078;
;m;004_o_m_h_a.jpg;happy;9;12;f;012_o_f_h_a.jpg;happy;congruent;9;mismatch;;120;150;;2;218;block1_Pilot_2;4;h_h;h_h_weak;;;;;0;0;0;0;0;1;1;1;;;;;;;;;544.7393264998682;None;546.6109381997958;546.9064584998414;546.9064584998414;546.9224716997705;546.9224716997705;546.9632782000117;546.9632782000117;None;9;1;0.8695399998687208;546.9632782000117;None;548.4634277001023;None;['7'];[0.3373573999851942];548.4634277001023;None;;;;;;;Emoconpilot028;2021_Nov_24_1636;BackwardMask;2020.2.8;119.97787630223078;
;f;012_o_f_h_a.jpg;happy;9;33;m;033_o_m_h_a.jpg;happy;congruent;9;mismatch;;120;150;;2;140;block1_Pilot_2;12;h_h;h_h_weak;;;;;0;0;0;0;0;2;2;2;;;;;;;;;551.4641803000122;None;552.6448222999461;552.9394340999424;552.9394340999424;552.9558799997903;552.9558799997903;552.996710000094;552.996710000094;None;9;1;1.236035999841988;552.996710000094;None;554.4967362000607;None;['7'];[0.4562808000482619];554.4967362000607;None;;;;;;;Emoconpilot028;2021_Nov_24_1636;BackwardMask;2020.2.8;119.97787630223078;
;f;040_y_f_n_a.jpg;neutral;8;40;f;040_y_f_h_a.jpg;happy;incongruent;9;match;;140;150;;2;192;block1_Pilot_2;40;n_h;n_h_weak;;;;;0;0;0;0;0;3;3;3;;;;;;;;;557.4974703998305;None;559.1423029997386;559.4316694997251;559.4316694997251;559.4476768998429;559.4476768998429;559.4885436999612;559.4885436999612;None;8;0;0.6000604000873864;559.4885436999612;None;560.9886509999633;None;['7'];[0.3481251001358032];560.9886509999633;None;;;;;;;Emoconpilot028;2021_Nov_24_1636;BackwardMask;2020.2.8;119.97787630223078;
;m;013_y_m_s_a.jpg;sad;7;16;m;016_y_m_n_a.jpg;neutral;incongruent;8;match;;130;170;;3;155;block1_Pilot_2;13;s_n;s_n_weak;;;;;0;0;0;0;0;4;4;4;;;;;;;;;563.9894685000181;None;565.2952060997486;565.5896197999828;565.5896197999828;565.6145668998361;565.6145668998361;565.6553658000194;565.6553658000194;None;8;1;0.7053805999457836;565.6553658000194;None;567.1555109000765;None;None;;567.1555109000765;None;;;;;;;Emoconpilot028;2021_Nov_24_1636;BackwardMask;2020.2.8;119.97787630223078;
;f;012_o_f_h_a.jpg;happy;9;21;f;021_o_f_h_a.jpg;happy;congruent;9;match;;120;150;;2;216;block1_Pilot_2;12;h_h;h_h_strong;;;;;0;0;0;0;0;5;5;5;;;;;;;;;570.1556195998564;None;571.9643628001213;572.2564668999985;572.2564668999985;572.2728965999559;572.2728965999559;572.3139444999397;572.3139444999397;None;9;1;0.6069012000225484;572.3139444999397;None;573.8140179999173;None;['7'];[0.32266150042414665];573.8140179999173;None;;;;;;;Emoconpilot028;2021_Nov_24_1636;BackwardMask;2020.2.8;119.97787630223078;
;f;040_y_f_s_a.jpg;sad;7;40;f;040_y_f_h_a.jpg;happy;incongruent;9;match;;130;150;;1;238;block1_Pilot_2;40;s_h;s_h_weak;;;;;0;0;0;0;0;6;6;6;;;;;;;;;576.8143012998626;None;578.8137574000284;579.1066660000943;579.1066660000943;579.1147746997885;579.1147746997885;579.1555841998197;579.1555841998197;None;None;0;;579.1555841998197;None;580.6557046999224;None;['9'];[1.369019000325352];580.6557046999224;None;;;;;;;Emoconpilot028;2021_Nov_24_1636;BackwardMask;2020.2.8;119.97787630223078;
;m;033_o_m_n_a.jpg;neutral;8;27;m;027_o_m_n_a.jpg;neutral;congruent;8;match;;140;170;;18;238;block1_Pilot_2;33;n_n;n_n_weak;;;;;0;0;0;0;0;7;7;7;;;;;;;;;583.6557952999137;None;585.6713235997595;585.9655566001311;585.9655566001311;586.1148659000173;586.1148659000173;586.1557764997706;586.1557764997706;None;8;1;0.4689823999069631;586.1557764997706;None;587.6567572997883;None;['7'];[0.43187550036236644];587.6567572997883;None;;;;;;;Emoconpilot028;2021_Nov_24_1636;BackwardMask;2020.2.8;119.97787630223078;
;f;040_y_f_h_a.jpg;happy;9;19;f;019_m_f_n_a.jpg;neutral;incongruent;8;match;;120;170;;1;238;block1_Pilot_2;40;h_n;h_n_strong;;;;;0;0;0;0;0;8;8;8;;;;;;;;;590.6568574998528;None;592.6557988999411;592.948638800066;592.948638800066;592.9567354000174;592.9567354000174;592.9975946000777;592.9975946000777;None;8;1;1.4751156000420451;592.9975946000777;None;594.4976488999091;None;['9'];[0.8550561000593007];594.4976488999091;None;;;;;;;Emoconpilot028;2021_Nov_24_1636;BackwardMask;2020.2.8;119.97787630223078;
;m;013_y_m_h_a.jpg;happy;9;12;f;012_o_f_s_a.jpg;sad;incongruent;7;mismatch;;120;160;;3;198;block1_Pilot_2;13;h_s;h_s_weak;;;;;0;0;0;0;0;9;9;9;;;;;;;;;597.4987081997097;None;599.1911844001152;599.482408599928;599.482408599928;599.5067183999345;599.5067183999345;599.5477693998255;599.5477693998255;None;9;0;0.7810443001799285;599.5477693998255;None;601.0477085998282;None;['7'];[0.2810612004250288];601.0477085998282;None;;;;;;;Emoconpilot028;2021_Nov_24_1636;BackwardMask;2020.2.8;119.97787630223078;
;m;008_y_m_h_a.jpg;happy;9;4;m;004_o_m_n_a.jpg;neutral;incongruent;8;match;;120;170;;18;150;block1_Pilot_2;8;h_n;h_n_strong;;;;;0;0;0;0;0;10;10;10;;;;;;;;;604.0479065999389;None;605.313309899997;605.6072680000216;605.6072680000216;605.7568179997616;605.7568179997616;605.7978912000544;605.7978912000544;None;9;0;0.45091979997232556;605.7978912000544;None;607.2977189999074;None;['7'];[0.2710875002667308];607.2977189999074;None;;;;;;;Emoconpilot028;2021_Nov_24_1636;BackwardMask;2020.2.8;119.97787630223078;
;f;019_m_f_h_a.jpg;happy;9;27;m;027_o_m_s_a.jpg;sad;incongruent;7;mismatch;;120;160;;1;238;block1_Pilot_2;19;h_s;h_s_weak;;;;;0;0;0;0;0;11;11;11;;;;;;;;;610.298497099895;None;612.2955434001051;612.5905601996928;612.5905601996928;612.5987514997832;612.5987514997832;612.6397529998794;612.6397529998794;None;8;0;0.7930956999771297;612.6397529998794;None;614.1395336999558;None;['9'];[0.7333000996150076];614.1395336999558;None;;;;;;;Emoconpilot028;2021_Nov_24_1636;BackwardMask;2020.2.8;119.97787630223078;
;m;016_y_m_s_a.jpg;sad;7;4;m;004_o_m_s_a.jpg;sad;congruent;7;match;;130;160;;18;142;block1_Pilot_2;16;s_s;s_s_strong;;;;;0;0;0;0;0;12;12;12;;;;;;;;;617.1396858999506;None;618.3404844999313;618.632463300135;618.632463300135;618.7823123000562;618.7823123000562;618.8230355000123;618.8230355000123;None;7;1;0.7376687997020781;618.8230355000123;None;620.3240843000822;None;['7'];[0.4047356001101434];620.3240843000822;None;;;;;;;Emoconpilot028;2021_Nov_24_1636;BackwardMask;2020.2.8;119.97787630223078;
;f;021_o_f_n_a.jpg;neutral;8;21;f;021_o_f_h_a.jpg;happy;incongruent;9;match;;140;150;;3;171;block1_Pilot_2;21;n_h;n_h_weak;;;;;0;0;0;0;0;13;13;13;;;;;;;;;623.3241408998147;None;624.7771751997061;625.0662400997244;625.0662400997244;625.0909782000817;625.0909782000817;625.1316084000282;625.1316084000282;None;8;0;0.6370442002080381;625.1316084000282;None;626.6315713999793;None;['7'];[0.36928349966183305];626.6315713999793;None;;;;;;;Emoconpilot028;2021_Nov_24_1636;BackwardMask;2020.2.8;119.97787630223078;
;f;012_o_f_h_a.jpg;happy;9;13;m;013_y_m_h_a.jpg;happy;congruent;9;mismatch;;120;150;;3;213;block1_Pilot_2;12;h_h;h_h_weak;;;;;0;0;0;0;0;14;14;14;;;;;;;;;629.6327927000821;None;631.4149476997554;631.7076979000121;631.7076979000121;631.7323515000753;631.7323515000753;631.7734571998008;631.7734571998008;None;9;1;0.6511606997810304;631.7734571998008;None;633.2732681999914;None;['7'];[0.2955479002557695];633.2732681999914;None;;;;;;;Emoconpilot028;2021_Nov_24_1636;BackwardMask;2020.2.8;119.97787630223078;
;f;021_o_f_s_a.jpg;sad;7;27;m;027_o_m_n_a.jpg;neutral;incongruent;8;mismatch;;130;170;;3;174;block1_Pilot_2;21;s_n;s_n_weak;;;;;0;0;0;0;0;15;15;15;;;;;;;;;636.2736021000892;None;637.7379284999333;638.0327940997668;638.0327940997668;638.0577337997966;638.0577337997966;638.0985081000254;638.0985081000254;None;9;0;1.2862710999324918;638.0985081000254;None;639.5986552997492;None;['7'];[0.3941890001296997];639.5986552997492;None;;;;;;;Emoconpilot028;2021_Nov_24_1636;BackwardMask;2020.2.8;119.97787630223078;
;f;019_m_f_n_a.jpg;neutral;8;19;f;019_m_f_h_a.jpg;happy;incongruent;9;match;;140;150;;3;238;block1_Pilot_2;19;n_h;n_h_weak;;;;;0;0;0;0;0;16;16;16;;;;;;;;;642.5987539999187;None;644.6306765996851;644.9252590998076;644.9252590998076;644.9495037999004;644.9495037999004;644.9903194000944;644.9903194000944;None;8;0;0.5945141999982297;644.9903194000944;None;646.4910407997668;None;['7'];[0.3258007997646928];646.4910407997668;None;;;;;;;Emoconpilot028;2021_Nov_24_1636;BackwardMask;2020.2.8;119.97787630223078;
;f;028_y_f_n_a.jpg;neutral;8;30;f;030_o_f_s_a.jpg;sad;incongruent;7;match;;140;160;;18;219;block1_Pilot_2;28;n_s;n_s_weak;;;;;0;0;0;0;0;17;17;17;;;;;;;;;649.4910288997926;None;651.3435341999866;651.6334220999852;651.6334220999852;651.7829116000794;651.7829116000794;651.82396159973;651.82396159973;None;8;0;0.4328015996143222;651.82396159973;None;653.3239724999294;None;['7'];[0.3168494002893567];653.3239724999294;None;;;;;;;Emoconpilot028;2021_Nov_24_1636;BackwardMask;2020.2.8;119.97787630223078;
;m;008_y_m_h_a.jpg;happy;9;8;m;008_y_m_s_a.jpg;sad;incongruent;7;match;;120;160;;3;176;block1_Pilot_2;8;h_s;h_s_weak;;;;;0;0;0;0;0;18;18;18;;;;;;;;;656.3240109998733;None;657.7980967997573;658.0916411001235;658.0916411001235;658.1163906999864;658.1163906999864;658.1573197999969;658.1573197999969;None;9;0;0.6833624998107553;658.1573197999969;None;659.6573955998756;None;['7'];[0.31135790003463626];659.6573955998756;None;;;;;;;Emoconpilot028;2021_Nov_24_1636;BackwardMask;2020.2.8;119.97787630223078;
;f;019_m_f_h_a.jpg;happy;9;33;m;033_o_m_n_a.jpg;neutral;incongruent;8;mismatch;;120;170;;18;136;block1_Pilot_2;19;h_n;h_n_weak;;;;;0;0;0;0;0;19;19;19;;;;;;;;;662.6574746998958;None;663.7987484000623;664.0915172998793;664.0915172998793;664.2414695997722;664.2414695997722;664.2823667000048;664.2823667000048;None;9;0;0.45423899963498116;664.2823667000048;None;665.7823978997767;None;['7'];[0.32249430008232594];665.7823978997767;None;;;;;;;Emoconpilot028;2021_Nov_24_1636;BackwardMask;2020.2.8;119.97787630223078;
;m;013_y_m_n_a.jpg;neutral;8;12;f;012_o_f_s_a.jpg;sad;incongruent;7;mismatch;;140;160;;2;132;block1_Pilot_2;13;n_s;n_s_strong;;;;;0;0;0;0;0;20;20;20;;;;;;;;;668.7834111000411;None;669.9156740996987;670.2088684998453;670.2088684998453;670.2249807999469;670.2249807999469;670.2657007998787;670.2657007998787;None;8;0;0.5590568003244698;670.2657007998787;None;671.7659573997371;None;['7'];[0.31482949992641807];671.7659573997371;None;;;;;;;Emoconpilot028;2021_Nov_24_1636;BackwardMask;2020.2.8;119.97787630223078;
;f;040_y_f_s_a.jpg;sad;7;8;m;008_y_m_h_a.jpg;happy;incongruent;9;mismatch;;130;150;;2;175;block1_Pilot_2;40;s_h;s_h_weak;;;;;0;0;0;0;0;21;21;21;;;;;;;;;674.7667605997995;None;676.2323678997345;676.52529089991;676.52529089991;676.5415608999319;676.5415608999319;676.5824857996777;676.5824857996777;None;8;0;0.7384247998706996;676.5824857996777;None;678.0827899998985;None;['7'];[0.2699456000700593];678.0827899998985;None;;;;;;;Emoconpilot028;2021_Nov_24_1636;BackwardMask;2020.2.8;119.97787630223078;
;m;004_o_m_h_a.jpg;happy;9;40;f;040_y_f_s_a.jpg;sad;incongruent;7;mismatch;;120;160;;2;193;block1_Pilot_2;4;h_s;h_s_weak;;;;;0;0;0;0;0;22;22;22;;;;;;;;;681.0828084996901;None;682.7385732000694;683.0342866997235;683.0342866997235;683.0502376998775;683.0502376998775;683.091012599878;683.091012599878;None;9;0;0.8136545000597835;683.091012599878;None;684.591265599709;None;['7'];[0.5135197001509368];684.591265599709;None;;;;;;;Emoconpilot028;2021_Nov_24_1636;BackwardMask;2020.2.8;119.97787630223078;
;f;028_y_f_s_a.jpg;sad;7;13;m;013_y_m_n_a.jpg;neutral;incongruent;8;mismatch;;130;170;;2;126;block1_Pilot_2;28;s_n;s_n_weak;;;;;0;0;0;0;0;23;23;23;;;;;;;;;687.5916752996854;None;688.6598749998957;688.9507821998559;688.9507821998559;688.9671009997837;688.9671009997837;689.0079610999674;689.0079610999674;None;8;1;0.7529150997288525;689.0079610999674;None;690.5080951997079;None;['7'];[0.30066379997879267];690.5080951997079;None;;;;;;;Emoconpilot028;2021_Nov_24_1636;BackwardMask;2020.2.8;119.97787630223078;
;m;004_o_m_h_a.jpg;happy;9;40;f;040_y_f_n_a.jpg;neutral;incongruent;8;mismatch;;120;170;;3;146;block1_Pilot_2;4;h_n;h_n_strong;;;;;0;0;0;0;0;24;24;24;;;;;;;;;693.5087767997757;None;694.7455775998533;695.0345224998891;695.0345224998891;695.0588183999062;695.0588183999062;695.0996415996924;695.0996415996924;None;9;0;0.604912799783051;695.0996415996924;None;696.5997089999728;None;['7'];[0.34500200022011995];696.5997089999728;None;;;;;;;Emoconpilot028;2021_Nov_24_1636;BackwardMask;2020.2.8;119.97787630223078;
;m;008_y_m_s_a.jpg;sad;7;30;f;030_o_f_n_a.jpg;neutral;incongruent;8;mismatch;;130;170;;3;132;block1_Pilot_2;8;s_n;s_n_strong;;;;;0;0;0;0;0;25;25;25;;;;;;;;;699.6005863999017;None;700.725842199754;701.0178438001312;701.0178438001312;701.0422598998994;701.0422598998994;701.0831885999069;701.0831885999069;None;7;0;0.6934684999287128;701.0831885999069;None;702.5833882000297;None;['7'];[0.3614742998033762];702.5833882000297;None;;;;;;;Emoconpilot028;2021_Nov_24_1636;BackwardMask;2020.2.8;119.97787630223078;
;f;040_y_f_n_a.jpg;neutral;8;40;f;040_y_f_s_a.jpg;sad;incongruent;7;match;;140;160;;2;123;block1_Pilot_2;40;n_s;n_s_weak;;;;;0;0;0;0;0;26;26;26;;;;;;;;;705.5843495000154;None;706.6273185000755;706.917987300083;706.917987300083;706.9339589998126;706.9339589998126;706.974792599678;706.974792599678;None;8;0;0.5699753002263606;706.974792599678;None;708.4759113998152;None;['7'];[0.2929447996430099];708.4759113998152;None;;;;;;;Emoconpilot028;2021_Nov_24_1636;BackwardMask;2020.2.8;119.97787630223078;
;f;028_y_f_s_a.jpg;sad;7;27;m;027_o_m_s_a.jpg;sad;congruent;7;mismatch;;130;160;;3;159;block1_Pilot_2;28;s_s;s_s_weak;;;;;0;0;0;0;0;27;27;27;;;;;;;;;711.4750998998061;None;712.811324799899;713.1010400997475;713.1010400997475;713.1259559998289;713.1259559998289;713.1667788000777;713.1667788000777;None;8;0;0.62596599990502;713.1667788000777;None;714.6672586998902;None;['7'];[0.3895548000000417];714.6672586998902;None;;;;;;;Emoconpilot028;2021_Nov_24_1636;BackwardMask;2020.2.8;119.97787630223078;
;f;012_o_f_s_a.jpg;sad;7;27;m;027_o_m_s_a.jpg;sad;congruent;7;mismatch;;130;160;;18;166;block1_Pilot_2;12;s_s;s_s_weak;;;;;0;0;0;0;0;28;28;28;;;;;;;;;717.6668487996794;None;719.062604600098;719.3510961998254;719.3510961998254;719.501044199802;719.501044199802;719.5418511000462;719.5418511000462;None;7;1;0.5068763000890613;719.5418511000462;None;721.0418270998634;None;['7'];[0.38298070011660457];721.0418270998634;None;;;;;;;Emoconpilot028;2021_Nov_24_1636;BackwardMask;2020.2.8;119.97787630223078;
;f;028_y_f_n_a.jpg;neutral;8;28;f;028_y_f_h_a.jpg;happy;incongruent;9;match;;140;150;;2;186;block1_Pilot_2;28;n_h;n_h_weak;;;;;0;0;0;0;0;29;29;29;;;;;;;;;724.0418301997706;None;725.6260827998631;725.9182174997404;725.9182174997404;725.9344792999327;725.9344792999327;725.9754359000362;725.9754359000362;None;8;0;0.6093405997380614;725.9754359000362;None;727.4752580998465;None;['7'];[0.373573100194335];727.4752580998465;None;;;;;;;Emoconpilot028;2021_Nov_24_1636;BackwardMask;2020.2.8;119.97787630223078;
;m;027_o_m_n_a.jpg;neutral;8;16;m;016_y_m_n_a.jpg;neutral;congruent;8;match;;140;170;;2;188;block1_Pilot_2;27;n_n;n_n_weak;;;;;0;0;0;0;0;30;30;30;;;;;;;;;730.4763909000903;None;732.0713840001263;732.3602899997495;732.3602899997495;732.3763560000807;732.3763560000807;732.4172137998976;732.4172137998976;None;8;1;0.5995895001105964;732.4172137998976;None;733.9171050000004;None;['7'];[0.26771669974550605];733.9171050000004;None;;;;;;;Emoconpilot028;2021_Nov_24_1636;BackwardMask;2020.2.8;119.97787630223078;
;f;012_o_f_s_a.jpg;sad;7;13;m;013_y_m_n_a.jpg;neutral;incongruent;8;mismatch;;130;170;;3;162;block1_Pilot_2;12;s_n;s_n_strong;;;;;0;0;0;0;0;31;31;31;;;;;;;;;736.9171806001104;None;738.2713429997675;738.5681460998021;738.5681460998021;738.592929800041;738.592929800041;738.6338677997701;738.6338677997701;None;9;0;1.086888900026679;738.6338677997701;None;740.1341098998673;None;['7'];[0.49092340003699064];740.1341098998673;None;;;;;;;Emoconpilot028;2021_Nov_24_1636;BackwardMask;2020.2.8;119.97787630223078;
;f;012_o_f_s_a.jpg;sad;7;16;m;016_y_m_h_a.jpg;happy;incongruent;9;mismatch;;130;150;;1;238;block1_Pilot_2;12;s_h;s_h_strong;;;;;0;0;0;0;0;32;32;32;;;;;;;;;743.1343557001092;None;745.1198085998185;745.4181703999639;745.4181703999639;745.4265898996964;745.4265898996964;745.4673929000273;745.4673929000273;None;None;0;;745.4673929000273;None;746.9674416999333;None;['9'];[0.9131966000422835];746.9674416999333;None;;;;;;;Emoconpilot028;2021_Nov_24_1636;BackwardMask;2020.2.8;119.97787630223078;
;f;028_y_f_n_a.jpg;neutral;8;21;f;021_o_f_n_a.jpg;neutral;congruent;8;match;;140;170;;3;220;block1_Pilot_2;28;n_n;n_n_weak;;;;;0;0;0;0;0;33;33;33;;;;;;;;;749.9675881997682;None;751.8218499999493;752.1104039000347;752.1104039000347;752.1349813998677;752.1349813998677;752.1756897997111;752.1756897997111;None;8;1;0.7931643002666533;752.1756897997111;None;753.6759883998893;None;['7'];[0.2689449996687472];753.6759883998893;None;;;;;;;Emoconpilot028;2021_Nov_24_1636;BackwardMask;2020.2.8;119.97787630223078;
;f;040_y_f_h_a.jpg;happy;9;33;m;033_o_m_s_a.jpg;sad;incongruent;7;mismatch;;120;160;;2;194;block1_Pilot_2;40;h_s;h_s_weak;;;;;0;0;0;0;0;34;34;34;;;;;;;;;756.6770188999362;None;758.3009337997064;758.5936966999434;758.5936966999434;758.6102482001297;758.6102482001297;758.6510095000267;758.6510095000267;None;9;0;0.6138301002793014;758.6510095000267;None;760.1510970997624;None;['7'];[0.28168970020487905];760.1510970997624;None;;;;;;;Emoconpilot028;2021_Nov_24_1636;BackwardMask;2020.2.8;119.97787630223078;
;f;028_y_f_h_a.jpg;happy;9;8;m;008_y_m_n_a.jpg;neutral;incongruent;8;mismatch;;120;170;;3;162;block1_Pilot_2;28;h_n;h_n_weak;;;;;0;0;0;0;0;35;35;35;;;;;;;;;763.1520539997146;None;764.5192213999107;764.8105951999314;764.8105951999314;764.8353435001336;764.8353435001336;764.8762996001169;764.8762996001169;None;9;0;0.5563952997326851;764.8762996001169;None;766.3761530998163;None;['7'];[0.25662950007244945];766.3761530998163;None;;;;;;;Emoconpilot028;2021_Nov_24_1636;BackwardMask;2020.2.8;119.97787630223078;
;m;013_y_m_n_a.jpg;neutral;8;27;m;027_o_m_n_a.jpg;neutral;congruent;8;match;;140;170;;2;126;block1_Pilot_2;13;n_n;n_n_strong;;;;;0;0;0;0;0;36;36;36;;;;;;;;;769.3771655000746;None;770.4728997997008;770.7691529998556;770.7691529998556;770.7854335000739;770.7854335000739;770.8261971999891;770.8261971999891;None;8;1;0.598583500366658;770.8261971999891;None;772.3263119999319;None;['7'];[0.2423688000999391];772.3263119999319;None;;;;;;;Emoconpilot028;2021_Nov_24_1636;BackwardMask;2020.2.8;119.97787630223078;
;f;028_y_f_s_a.jpg;sad;7;19;f;019_m_f_n_a.jpg;neutral;incongruent;8;match;;130;170;;2;156;block1_Pilot_2;28;s_n;s_n_strong;;;;;0;0;0;0;0;37;37;37;;;;;;;;;775.3273395998403;None;776.6375075997785;776.9273540000431;776.9273540000431;776.9438260998577;776.9438260998577;776.9848214001395;776.9848214001395;None;8;1;1.3679386996664107;776.9848214001395;None;778.4849315998144;None;['7'];[0.595690599642694];778.4849315998144;None;;;;;;;Emoconpilot028;2021_Nov_24_1636;BackwardMask;2020.2.8;119.97787630223078;
;m;016_y_m_s_a.jpg;sad;7;19;f;019_m_f_n_a.jpg;neutral;incongruent;8;mismatch;;130;170;;3;138;block1_Pilot_2;16;s_n;s_n_weak;;;;;0;0;0;0;0;38;38;38;;;;;;;;;781.4857319998555;None;782.6422079997137;782.936090500094;782.936090500094;782.9605477000587;782.9605477000587;783.0014593000524;783.0014593000524;None;7;0;0.6233183001168072;783.0014593000524;None;784.5016292999499;None;['7'];[0.2831203998066485];784.5016292999499;None;;;;;;;Emoconpilot028;2021_Nov_24_1636;BackwardMask;2020.2.8;119.97787630223078;
;m;033_o_m_s_a.jpg;sad;7;27;m;027_o_m_n_a.jpg;neutral;incongruent;8;match;;130;170;;3;120;block1_Pilot_2;33;s_n;s_n_strong;;;;;0;0;0;0;0;39;39;39;;;;;;;;;787.5020204000175;None;788.5179408998229;788.8109522000886;788.8109522000886;788.8358311997727;788.8358311997727;788.876672399696;788.876672399696;None;8;1;0.6840856000781059;788.876672399696;None;790.3766437000595;None;['7'];[0.3441500002518296];790.3766437000595;None;;;;;;;Emoconpilot028;2021_Nov_24_1636;BackwardMask;2020.2.8;119.97787630223078;
;f;040_y_f_s_a.jpg;sad;7;33;m;033_o_m_n_a.jpg;neutral;incongruent;8;mismatch;;130;170;;1;238;block1_Pilot_2;40;s_n;s_n_weak;;;;;0;0;0;0;0;40;40;40;;;;;;;;;793.377712899819;None;795.3681701999158;795.6610769000836;795.6610769000836;795.6690731998533;795.6690731998533;795.7101341998205;795.7101341998205;None;None;0;;795.7101341998205;None;797.2100333999842;None;['9'];[0.3667724998667836];797.2100333999842;None;;;;;;;Emoconpilot028;2021_Nov_24_1636;BackwardMask;2020.2.8;119.97787630223078;
;f;021_o_f_n_a.jpg;neutral;8;19;f;019_m_f_s_a.jpg;sad;incongruent;7;match;;140;160;;1;238;block1_Pilot_2;21;n_s;n_s_strong;;;;;0;0;0;0;0;41;41;41;;;;;;;;;800.2110739997588;None;802.2192572997883;802.5116626000963;802.5116626000963;802.5192454000935;802.5192454000935;802.5601405999623;802.5601405999623;None;None;0;;802.5601405999623;None;804.0603776997887;None;['9'];[0.3245103000663221];804.0603776997887;None;;;;;;;Emoconpilot028;2021_Nov_24_1636;BackwardMask;2020.2.8;119.97787630223078;
;m;033_o_m_h_a.jpg;happy;9;27;m;027_o_m_h_a.jpg;happy;congruent;9;match;;120;150;;3;134;block1_Pilot_2;33;h_h;h_h_weak;;;;;0;0;0;0;0;42;42;42;;;;;;;;;807.0607551001012;None;808.184903500136;808.4780520000495;808.4780520000495;808.5027878000401;808.5027878000401;808.5435067000799;808.5435067000799;None;9;1;0.8171776998788118;808.5435067000799;None;810.0438279998489;None;['7'];[0.30107299983501434];810.0438279998489;None;;;;;;;Emoconpilot028;2021_Nov_24_1636;BackwardMask;2020.2.8;119.97787630223078;
;f;040_y_f_s_a.jpg;sad;7;4;m;004_o_m_h_a.jpg;happy;incongruent;9;mismatch;;130;150;;2;225;block1_Pilot_2;40;s_h;s_h_strong;;;;;0;0;0;0;0;43;43;43;;;;;;;;;813.0437388997525;None;814.9269338999875;815.2198497997597;815.2198497997597;815.2363533996977;815.2363533996977;815.2773126997054;815.2773126997054;None;8;0;0.6594977001659572;815.2773126997054;None;816.7774776997976;None;['7'];[0.28722230019047856];816.7774776997976;None;;;;;;;Emoconpilot028;2021_Nov_24_1636;BackwardMask;2020.2.8;119.97787630223078;
;m;027_o_m_s_a.jpg;sad;7;21;f;021_o_f_n_a.jpg;neutral;incongruent;8;mismatch;;130;170;;18;238;block1_Pilot_2;27;s_n;s_n_weak;;;;;0;0;0;0;0;44;44;44;;;;;;;;;819.7778515000828;None;821.776831400115;822.0701152998954;822.0701152998954;822.2197875999846;822.2197875999846;822.2605767999776;822.2605767999776;None;7;0;0.6762763001024723;822.2605767999776;None;823.7604994997382;None;['7'];[0.5922407996840775];823.7604994997382;None;;;;;;;Emoconpilot028;2021_Nov_24_1636;BackwardMask;2020.2.8;119.97787630223078;
;m;016_y_m_h_a.jpg;happy;9;16;m;016_y_m_n_a.jpg;neutral;incongruent;8;match;;120;170;;3;202;block1_Pilot_2;16;h_n;h_n_weak;;;;;0;0;0;0;0;45;45;45;;;;;;;;;826.7614059997723;None;828.4597235000692;828.753374800086;828.753374800086;828.7785495999269;828.7785495999269;828.8191315997392;828.8191315997392;None;9;0;0.6215420998632908;828.8191315997392;None;830.3194395997562;None;['7'];[0.25731510017067194];830.3194395997562;None;;;;;;;Emoconpilot028;2021_Nov_24_1636;BackwardMask;2020.2.8;119.97787630223078;
;m;033_o_m_h_a.jpg;happy;9;13;m;013_y_m_n_a.jpg;neutral;incongruent;8;match;;120;170;;2;150;block1_Pilot_2;33;h_n;h_n_weak;;;;;0;0;0;0;0;46;46;46;;;;;;;;;833.3195134000853;None;834.5774289998226;834.8701670998707;834.8701670998707;834.8867746000178;834.8867746000178;834.9275842998177;834.9275842998177;None;9;0;0.6011808002367616;834.9275842998177;None;836.4277272000909;None;['7'];[0.30889289965853095];836.4277272000909;None;;;;;;;Emoconpilot028;2021_Nov_24_1636;BackwardMask;2020.2.8;119.97787630223078;
;f;012_o_f_n_a.jpg;neutral;8;16;m;016_y_m_n_a.jpg;neutral;congruent;8;mismatch;;140;170;;1;238;block1_Pilot_2;12;n_n;n_n_strong;;;;;0;0;0;0;0;47;47;47;;;;;;;;;839.4285035999492;None;841.4509507999755;841.7458430998959;841.7458430998959;841.7534831999801;841.7534831999801;841.7943927999586;841.7943927999586;None;None;0;;841.7943927999586;None;843.2945174998604;None;['9'];[0.35447390004992485];843.2945174998604;None;;;;;;;Emoconpilot028;2021_Nov_24_1636;BackwardMask;2020.2.8;119.97787630223078;
;f;040_y_f_n_a.jpg;neutral;8;30;f;030_o_f_h_a.jpg;happy;incongruent;9;match;;140;150;;2;194;block1_Pilot_2;40;n_h;n_h_strong;;;;;0;0;0;0;0;48;48;48;;;;;;;;;846.2954722996801;None;847.9306899998337;848.2208500998095;848.2208500998095;848.2369510000572;848.2369510000572;848.2782686999999;848.2782686999999;None;8;0;0.6664391998201609;848.2782686999999;None;849.7781658000313;None;['7'];[0.4226143001578748];849.7781658000313;None;;;;;;;Emoconpilot028;2021_Nov_24_1636;BackwardMask;2020.2.8;119.97787630223078;
;m;013_y_m_n_a.jpg;neutral;8;12;f;012_o_f_s_a.jpg;sad;incongruent;7;mismatch;;140;160;;18;238;block1_Pilot_2;13;n_s;n_s_weak;;;;;0;0;0;0;0;49;49;49;;;;;;;;;852.7783229998313;None;854.793510899879;855.0877072000876;855.0877072000876;855.2371720001101;855.2371720001101;855.2782117999159;855.2782117999159;None;8;0;0.45838170032948256;855.2782117999159;None;856.7782648997381;None;['7'];[0.830630199983716];856.7782648997381;None;;;;;;;Emoconpilot028;2021_Nov_24_1636;BackwardMask;2020.2.8;119.97787630223078;
;f;012_o_f_h_a.jpg;happy;9;12;f;012_o_f_n_a.jpg;neutral;incongruent;8;match;;120;170;;2;125;block1_Pilot_2;12;h_n;h_n_strong;;;;;0;0;0;0;0;50;50;50;;;;;;;;;859.7796696000732;None;860.8278961000033;861.1209046998993;861.1209046998993;861.1373147997074;861.1373147997074;861.1781524997205;861.1781524997205;None;9;0;0.5426054997369647;861.1781524997205;None;862.6781783998013;None;['7'];[0.370590899605304];862.6781783998013;None;;;;;;;Emoconpilot028;2021_Nov_24_1636;BackwardMask;2020.2.8;119.97787630223078;
;m;008_y_m_s_a.jpg;sad;7;19;f;019_m_f_s_a.jpg;sad;congruent;7;mismatch;;130;160;;2;202;block1_Pilot_2;8;s_s;s_s_strong;;;;;0;0;0;0;0;51;51;51;;;;;;;;;865.6791610000655;None;867.3824836998247;867.6713560000062;867.6713560000062;867.687377399765;867.687377399765;867.7282473999076;867.7282473999076;None;7;1;0.5524333999492228;867.7282473999076;None;869.2284111999907;None;['7'];[0.3563206996768713];869.2284111999907;None;;;;;;;Emoconpilot028;2021_Nov_24_1636;BackwardMask;2020.2.8;119.97787630223078;
;f;028_y_f_n_a.jpg;neutral;8;12;f;012_o_f_n_a.jpg;neutral;congruent;8;match;;140;170;;2;214;block1_Pilot_2;28;n_n;n_n_strong;;;;;0;0;0;0;0;52;52;52;;;;;;;;;872.2285275999457;None;874.0314468997531;874.3214541999623;874.3214541999623;874.3376758997329;874.3376758997329;874.378435399849;874.378435399849;None;8;1;0.5184814999811351;874.378435399849;None;875.8785063000396;None;['7'];[0.3223447999916971];875.8785063000396;None;;;;;;;Emoconpilot028;2021_Nov_24_1636;BackwardMask;2020.2.8;119.97787630223078;
;m;027_o_m_h_a.jpg;happy;9;19;f;019_m_f_h_a.jpg;happy;congruent;9;mismatch;;120;150;;3;165;block1_Pilot_2;27;h_h;h_h_strong;;;;;0;0;0;0;0;53;53;53;;;;;;;;;878.8795126997866;None;880.3029156001285;880.5967131997459;880.5967131997459;880.6209462000988;880.6209462000988;880.661978600081;880.661978600081;None;9;1;0.7626248998567462;880.661978600081;None;882.1629041996785;None;['7'];[0.6857294999063015];882.1629041996785;None;;;;;;;Emoconpilot028;2021_Nov_24_1636;BackwardMask;2020.2.8;119.97787630223078;
;m;008_y_m_s_a.jpg;sad;7;13;m;013_y_m_h_a.jpg;happy;incongruent;9;match;;130;150;;18;200;block1_Pilot_2;8;s_h;s_h_strong;;;;;0;0;0;0;0;54;54;54;;;;;;;;;885.1621026997454;None;886.8476470997557;887.1383739998564;887.1383739998564;887.2878128997982;887.2878128997982;887.3286878000945;887.3286878000945;None;7;0;0.5361611000262201;887.3286878000945;None;888.8285487997346;None;['7'];[0.6841078996658325];888.8285487997346;None;;;;;;;Emoconpilot028;2021_Nov_24_1636;BackwardMask;2020.2.8;119.97787630223078;
;f;030_o_f_n_a.jpg;neutral;8;28;f;028_y_f_s_a.jpg;sad;incongruent;7;match;;140;160;;18;238;block1_Pilot_2;30;n_s;n_s_weak;;;;;0;0;0;0;0;55;55;55;;;;;;;;;891.8294822997414;None;893.8389846999198;894.1301290998235;894.1301290998235;894.2798107997514;894.2798107997514;894.3204004997388;894.3204004997388;None;8;0;0.6324318000115454;894.3204004997388;None;895.8205633000471;None;['7'];[0.6442104000598192];895.8205633000471;None;;;;;;;Emoconpilot028;2021_Nov_24_1636;BackwardMask;2020.2.8;119.97787630223078;
;f;019_m_f_h_a.jpg;happy;9;27;m;027_o_m_h_a.jpg;happy;congruent;9;mismatch;;120;150;;1;238;block1_Pilot_2;19;h_h;h_h_strong;;;;;0;0;0;0;0;56;56;56;;;;;;;;;898.8213419998065;None;900.8115081000142;901.1049803998321;901.1049803998321;901.1130953999236;901.1130953999236;901.1540618999861;901.1540618999861;None;None;0;;901.1540618999861;None;902.6540570999496;None;['9'];[0.29875609977170825];902.6540570999496;None;;;;;;;Emoconpilot028;2021_Nov_24_1636;BackwardMask;2020.2.8;119.97787630223078;
;m;004_o_m_s_a.jpg;sad;7;4;m;004_o_m_h_a.jpg;happy;incongruent;9;match;;130;150;;18;155;block1_Pilot_2;4;s_h;s_h_weak;;;;;0;0;0;0;0;57;57;57;;;;;;;;;905.6550781996921;None;906.9610712998547;907.2550722998567;907.2550722998567;907.4048525998369;907.4048525998369;907.4456973997876;907.4456973997876;None;7;0;0.5150713999755681;907.4456973997876;None;908.9456646000035;None;['7'];[0.30309000005945563];908.9456646000035;None;;;;;;;Emoconpilot028;2021_Nov_24_1636;BackwardMask;2020.2.8;119.97787630223078;
;f;021_o_f_s_a.jpg;sad;7;27;m;027_o_m_n_a.jpg;neutral;incongruent;8;mismatch;;130;170;;3;224;block1_Pilot_2;21;s_n;s_n_weak;;;;;0;0;0;0;0;58;58;58;;;;;;;;;911.9469749000855;None;913.8187828999944;914.1134350998327;914.1134350998327;914.1383477998897;914.1383477998897;914.1792071000673;914.1792071000673;None;7;0;0.7976110996678472;914.1792071000673;None;915.6792926997878;None;['7'];[0.4415508001111448];915.6792926997878;None;;;;;;;Emoconpilot028;2021_Nov_24_1636;BackwardMask;2020.2.8;119.97787630223078;
;f;021_o_f_h_a.jpg;happy;9;27;m;027_o_m_n_a.jpg;neutral;incongruent;8;mismatch;;120;170;;2;147;block1_Pilot_2;21;h_n;h_n_strong;;;;;0;0;0;0;0;59;59;59;;;;;;;;;918.6803489997983;None;919.9491586997174;920.2391411000863;920.2391411000863;920.255332800094;920.255332800094;920.2959671998397;920.2959671998397;None;9;0;0.6728008999489248;920.2959671998397;None;921.7963676000945;None;['7'];[0.32450069999322295];921.7963676000945;None;;;;;;;Emoconpilot028;2021_Nov_24_1636;BackwardMask;2020.2.8;119.97787630223078;
;f;040_y_f_n_a.jpg;neutral;8;13;m;013_y_m_h_a.jpg;happy;incongruent;9;mismatch;;140;150;;3;237;block1_Pilot_2;40;n_h;n_h_strong;;;;;0;0;0;0;0;60;60;60;;;;;;;;;924.7962660999037;None;926.7903668000363;927.0808171997778;927.0808171997778;927.1052175997756;927.1052175997756;927.1460401001386;927.1460401001386;None;8;0;0.5987627003341913;927.1460401001386;None;928.6462189001031;None;['7'];[0.29863639967516065];928.6462189001031;None;;;;;;;Emoconpilot028;2021_Nov_24_1636;BackwardMask;2020.2.8;119.97787630223078;
;m;027_o_m_n_a.jpg;neutral;8;19;f;019_m_f_h_a.jpg;happy;incongruent;9;mismatch;;140;150;;3;199;block1_Pilot_2;27;n_h;n_h_strong;;;;;0;0;0;0;0;61;61;61;;;;;;;;;931.647263799794;None;933.3237630999647;933.6143276998773;933.6143276998773;933.6386751998216;933.6386751998216;933.6794896000065;933.6794896000065;None;8;0;0.5531027996912599;933.6794896000065;None;935.1796303996816;None;['7'];[0.26927849976345897];935.1796303996816;None;;;;;;;Emoconpilot028;2021_Nov_24_1636;BackwardMask;2020.2.8;119.97787630223078;
;m;027_o_m_h_a.jpg;happy;9;21;f;021_o_f_s_a.jpg;sad;incongruent;7;mismatch;;120;160;;2;169;block1_Pilot_2;27;h_s;h_s_strong;;;;;0;0;0;0;0;62;62;62;;;;;;;;;938.1800460000522;None;939.6076350999065;939.8978804997168;939.8978804997168;939.9136864999309;939.9136864999309;939.9547596997581;939.9547596997581;None;9;0;0.5900544002652168;939.9547596997581;None;941.454826399684;None;['7'];[0.3699654000811279];941.454826399684;None;;;;;;;Emoconpilot028;2021_Nov_24_1636;BackwardMask;2020.2.8;119.97787630223078;
;m;013_y_m_n_a.jpg;neutral;8;33;m;033_o_m_h_a.jpg;happy;incongruent;9;match;;140;150;;18;238;block1_Pilot_2;13;n_h;n_h_strong;;;;;0;0;0;0;0;63;63;63;;;;;;;;;944.4555557998829;None;946.4576826998964;946.7478237999603;946.7478237999603;946.8971637999639;946.8971637999639;946.9382811998948;946.9382811998948;None;8;0;0.4623401998542249;946.9382811998948;None;948.4382535000332;None;['7'];[0.3145165001042187];948.4382535000332;None;;;;;;;Emoconpilot028;2021_Nov_24_1636;BackwardMask;2020.2.8;119.97787630223078;
;m;033_o_m_n_a.jpg;neutral;8;30;f;030_o_f_s_a.jpg;sad;incongruent;7;mismatch;;140;160;;1;238;block1_Pilot_2;33;n_s;n_s_weak;;;;;0;0;0;0;0;64;64;64;;;;;;;;;951.4391459999606;None;953.4405257999897;953.7312122001313;953.7312122001313;953.7390537001193;953.7390537001193;953.7802208997309;953.7802208997309;None;None;0;;953.7802208997309;None;955.2799581000581;None;['9'];[0.36080020014196634];955.2799581000581;None;;;;;;;Emoconpilot028;2021_Nov_24_1636;BackwardMask;2020.2.8;119.97787630223078;
;m;033_o_m_s_a.jpg;sad;7;4;m;004_o_m_s_a.jpg;sad;congruent;7;match;;130;160;;18;146;block1_Pilot_2;33;s_s;s_s_weak;;;;;0;0;0;0;0;65;65;65;;;;;;;;;958.2809321000241;None;959.5052255997434;959.7979109999724;959.7979109999724;959.9476268999279;959.9476268999279;959.9885947997682;959.9885947997682;None;7;1;0.7561440002173185;959.9885947997682;None;961.4884963999502;None;['7'];[0.6882246001623571];961.4884963999502;None;;;;;;;Emoconpilot028;2021_Nov_24_1636;BackwardMask;2020.2.8;119.97787630223078;
;m;016_y_m_s_a.jpg;sad;7;28;f;028_y_f_h_a.jpg;happy;incongruent;9;mismatch;;130;150;;18;238;block1_Pilot_2;16;s_h;s_h_strong;;;;;0;0;0;0;0;66;66;66;;;;;;;;;964.4895584001206;None;966.4800637997687;966.7727806000039;966.7727806000039;966.9228014997207;966.9228014997207;966.9634972000495;966.9634972000495;None;None;0;;966.9634972000495;None;968.4635848999023;None;['7'];[0.3132026996463537];968.4635848999023;None;;;;;;;Emoconpilot028;2021_Nov_24_1636;BackwardMask;2020.2.8;119.97787630223078;
;f;030_o_f_h_a.jpg;happy;9;28;f;028_y_f_h_a.jpg;happy;congruent;9;match;;120;150;;3;234;block1_Pilot_2;30;h_h;h_h_weak;;;;;0;0;0;0;0;67;67;67;;;;;;;;;971.464672899805;None;973.4498208998702;973.7400422999635;973.7400422999635;973.7647015997209;973.7647015997209;973.8054935997352;973.8054935997352;None;9;1;0.5392478001303971;973.8054935997352;None;975.3059231000952;None;['7'];[0.3747702999971807];975.3059231000952;None;;;;;;;Emoconpilot028;2021_Nov_24_1636;BackwardMask;2020.2.8;119.97787630223078;
;m;013_y_m_h_a.jpg;happy;9;4;m;004_o_m_h_a.jpg;happy;congruent;9;match;;120;150;;2;141;block1_Pilot_2;13;h_h;h_h_strong;;;;;0;0;0;0;0;68;68;68;;;;;;;;;978.3064375999384;None;979.5003978000022;979.790268599987;979.790268599987;979.8064987999387;979.8064987999387;979.8473673998378;979.8473673998378;None;9;1;0.5854692002758384;979.8473673998378;None;981.3472213000059;None;['7'];[0.6856380999088287];981.3472213000059;None;;;;;;;Emoconpilot028;2021_Nov_24_1636;BackwardMask;2020.2.8;119.97787630223078;
;f;028_y_f_s_a.jpg;sad;7;8;m;008_y_m_s_a.jpg;sad;congruent;7;mismatch;;130;160;;1;238;block1_Pilot_2;28;s_s;s_s_strong;;;;;0;0;0;0;0;69;69;69;;;;;;;;;984.3475039000623;None;986.341649599839;986.6317960997112;986.6317960997112;986.6399790998548;986.6399790998548;986.6807121001184;986.6807121001184;None;8;0;0.8240434001199901;986.6807121001184;None;988.1809773999266;None;['8'];[0.6519292001612484];988.1809773999266;None;;;;;;;Emoconpilot028;2021_Nov_24_1636;BackwardMask;2020.2.8;119.97787630223078;
;f;028_y_f_s_a.jpg;sad;7;30;f;030_o_f_h_a.jpg;happy;incongruent;9;match;;130;150;;2;199;block1_Pilot_2;28;s_h;s_h_weak;;;;;0;0;0;0;0;70;70;70;;;;;;;;;991.1819003997371;None;992.8485861998051;993.1401150999591;993.1401150999591;993.156707199756;993.156707199756;993.197612399701;993.197612399701;None;8;0;0.9310897001996636;993.197612399701;None;994.6976914000697;None;['7'];[0.3590297996997833];994.6976914000697;None;;;;;;;Emoconpilot028;2021_Nov_24_1636;BackwardMask;2020.2.8;119.97787630223078;
;m;008_y_m_h_a.jpg;happy;9;21;f;021_o_f_n_a.jpg;neutral;incongruent;8;mismatch;;120;170;;2;137;block1_Pilot_2;8;h_n;h_n_weak;;;;;0;0;0;0;0;71;71;71;;;;;;;;;997.6977002001368;None;998.8479442996904;999.140406999737;999.140406999737;999.1567262001336;999.1567262001336;999.1976982001215;999.1976982001215;None;9;0;0.6990175996907055;999.1976982001215;None;1000.6976962001063;None;['7'];[0.27918369974941015];1000.6976962001063;None;;;;;;;Emoconpilot028;2021_Nov_24_1636;BackwardMask;2020.2.8;119.97787630223078;
;f;012_o_f_n_a.jpg;neutral;8;8;m;008_y_m_s_a.jpg;sad;incongruent;7;mismatch;;140;160;;2;208;block1_Pilot_2;12;n_s;n_s_weak;;;;;0;0;0;0;0;72;72;72;;;;;;;;;1003.6976727000438;None;1005.4902010001242;1005.7826128001325;1005.7826128001325;1005.7986369999126;1005.7986369999126;1005.8395611997694;1005.8395611997694;None;8;0;0.6331747001968324;1005.8395611997694;None;1007.3392841997556;None;['7'];[0.2615555999800563];1007.3392841997556;None;;;;;;;Emoconpilot028;2021_Nov_24_1636;BackwardMask;2020.2.8;119.97787630223078;
;m;016_y_m_n_a.jpg;neutral;8;8;m;008_y_m_n_a.jpg;neutral;congruent;8;match;;140;170;;3;211;block1_Pilot_2;16;n_n;n_n_strong;;;;;0;0;0;0;0;73;73;73;;;;;;;;;1010.3396990997717;None;1012.1255950997584;1012.4159770999104;1012.4159770999104;1012.440363700036;1012.440363700036;1012.4811863000505;1012.4811863000505;None;8;1;0.45565840043127537;1012.4811863000505;None;1013.9812130997889;None;['7'];[0.2755281003192067];1013.9812130997889;None;;;;;;;Emoconpilot028;2021_Nov_24_1636;BackwardMask;2020.2.8;119.97787630223078;
;m;016_y_m_h_a.jpg;happy;9;13;m;013_y_m_s_a.jpg;sad;incongruent;7;match;;120;160;;3;138;block1_Pilot_2;16;h_s;h_s_weak;;;;;0;0;0;0;0;74;74;74;;;;;;;;;1016.9822190999985;None;1018.1404007999226;1018.4322925000452;1018.4322925000452;1018.4571936000139;1018.4571936000139;1018.497996899765;1018.497996899765;None;9;0;0.5667988997884095;1018.497996899765;None;1019.998128999956;None;['7'];[0.2747166003100574];1019.998128999956;None;;;;;;;Emoconpilot028;2021_Nov_24_1636;BackwardMask;2020.2.8;119.97787630223078;
;m;016_y_m_n_a.jpg;neutral;8;19;f;019_m_f_s_a.jpg;sad;incongruent;7;mismatch;;140;160;;2;185;block1_Pilot_2;16;n_s;n_s_strong;;;;;0;0;0;0;0;75;75;75;;;;;;;;;1022.9981331997551;None;1024.560650399886;1024.8495128997602;1024.8495128997602;1024.8656397997402;1024.8656397997402;1024.9066121997312;1024.9066121997312;None;8;0;0.5263845003210008;1024.9066121997312;None;1026.4065196998417;None;['7'];[0.4184220000170171];1026.4065196998417;None;;;;;;;Emoconpilot028;2021_Nov_24_1636;BackwardMask;2020.2.8;119.97787630223078;
;m;027_o_m_s_a.jpg;sad;7;8;m;008_y_m_s_a.jpg;sad;congruent;7;match;;130;160;;1;238;block1_Pilot_2;27;s_s;s_s_strong;;;;;0;0;0;0;0;76;76;76;;;;;;;;;1029.4075054000132;None;1031.398589400109;1031.6909977998585;1031.6909977998585;1031.6991106998175;1031.6991106998175;1031.7399138999172;1031.7399138999172;None;None;0;;1031.7399138999172;None;1033.2402017000131;None;['9'];[0.30457549961283803];1033.2402017000131;None;;;;;;;Emoconpilot028;2021_Nov_24_1636;BackwardMask;2020.2.8;119.97787630223078;
;f;019_m_f_n_a.jpg;neutral;8;27;m;027_o_m_n_a.jpg;neutral;congruent;8;mismatch;;140;170;;3;186;block1_Pilot_2;19;n_n;n_n_strong;;;;;0;0;0;0;0;77;77;77;;;;;;;;;1036.240868699737;None;1037.810320599936;1038.0999344000593;1038.0999344000593;1038.1240972001106;1038.1240972001106;1038.165212399792;1038.165212399792;None;8;1;0.5315294000320137;1038.165212399792;None;1039.6652174000628;None;['7'];[0.2555190999992192];1039.6652174000628;None;;;;;;;Emoconpilot028;2021_Nov_24_1636;BackwardMask;2020.2.8;119.97787630223078;
;m;004_o_m_s_a.jpg;sad;7;12;f;012_o_f_s_a.jpg;sad;congruent;7;mismatch;;130;160;;1;238;block1_Pilot_2;4;s_s;s_s_strong;;;;;0;0;0;0;0;78;78;78;;;;;;;;;1042.666230800096;None;1044.6560022998601;1044.949644499924;1044.949644499924;1044.9575819997117;1044.9575819997117;1044.9986462998204;1044.9986462998204;None;None;0;;1044.9986462998204;None;1046.4986049998552;None;['9'];[0.30222540022805333];1046.4986049998552;None;;;;;;;Emoconpilot028;2021_Nov_24_1636;BackwardMask;2020.2.8;119.97787630223078;
;f;019_m_f_n_a.jpg;neutral;8;13;m;013_y_m_s_a.jpg;sad;incongruent;7;mismatch;;140;160;;3;207;block1_Pilot_2;19;n_s;n_s_strong;;;;;0;0;0;0;0;79;79;79;;;;;;;;;1049.499487400055;None;1051.2441134997644;1051.5334739000537;1051.5334739000537;1051.5578340999782;1051.5578340999782;1051.5987374996766;1051.5987374996766;None;8;0;0.4739812999032438;1051.5987374996766;None;1053.0986923999153;None;['7'];[0.2781386999413371];1053.0986923999153;None;;;;;;;Emoconpilot028;2021_Nov_24_1636;BackwardMask;2020.2.8;119.97787630223078;
;m;027_o_m_h_a.jpg;happy;9;33;m;033_o_m_h_a.jpg;happy;congruent;9;match;;120;150;;1;238;block1_Pilot_2;27;h_h;h_h_strong;;;;;0;0;0;0;0;80;80;80;;;;;;;;;1056.099425799679;None;1058.1016413997859;1058.3921064999886;1058.3921064999886;1058.3995280000381;1058.3995280000381;1058.4403490000404;1058.4403490000404;None;None;0;;1058.4403490000404;None;1059.9408231000416;None;['9'];[0.2838819003663957];1059.9408231000416;None;;;;;;;Emoconpilot028;2021_Nov_24_1636;BackwardMask;2020.2.8;119.97787630223078;
;m;027_o_m_h_a.jpg;happy;9;21;f;021_o_f_s_a.jpg;sad;incongruent;7;mismatch;;120;160;;1;238;block1_Pilot_2;27;h_s;h_s_weak;;;;;0;0;0;0;0;81;81;81;;;;;;;;;1062.9414388998412;None;1064.9441422997043;1065.2337599000894;1065.2337599000894;1065.241445200052;1065.241445200052;1065.2823075000197;1065.2823075000197;None;None;0;;1065.2823075000197;None;1066.7830803999677;None;['9'];[0.6977191003970802];1066.7830803999677;None;;;;;;;Emoconpilot028;2021_Nov_24_1636;BackwardMask;2020.2.8;119.97787630223078;
;m;033_o_m_s_a.jpg;sad;7;40;f;040_y_f_n_a.jpg;neutral;incongruent;8;mismatch;;130;170;;3;146;block1_Pilot_2;33;s_n;s_n_weak;;;;;0;0;0;0;0;82;82;82;;;;;;;;;1069.782803799957;None;1071.007215199992;1071.300124200061;1071.300124200061;1071.32491389988;1071.32491389988;1071.3657868998125;1071.3657868998125;None;7;0;0.7870164001360536;1071.3657868998125;None;1072.8657011999749;None;['7'];[0.33517330000177026];1072.8657011999749;None;;;;;;;Emoconpilot028;2021_Nov_24_1636;BackwardMask;2020.2.8;119.97787630223078;
;m;008_y_m_h_a.jpg;happy;9;4;m;004_o_m_s_a.jpg;sad;incongruent;7;match;;120;160;;2;225;block1_Pilot_2;8;h_s;h_s_weak;;;;;0;0;0;0;0;83;83;83;;;;;;;;;1075.866821799893;None;1077.7483558999375;1078.0419958997518;1078.0419958997518;1078.0584645997733;1078.0584645997733;1078.099087699782;1078.099087699782;None;9;0;0.6777624995447695;1078.099087699782;None;1079.5997258997522;None;['7'];[0.39308900013566017];1079.5997258997522;None;;;;;;;Emoconpilot028;2021_Nov_24_1636;BackwardMask;2020.2.8;119.97787630223078;
;f;012_o_f_n_a.jpg;neutral;8;4;m;004_o_m_s_a.jpg;sad;incongruent;7;mismatch;;140;160;;3;150;block1_Pilot_2;12;n_s;n_s_strong;;;;;0;0;0;0;0;84;84;84;;;;;;;;;1082.5994134997018;None;1083.8707045000046;1084.1675386000425;1084.1675386000425;1084.1918504000641;1084.1918504000641;1084.2327267001383;1084.2327267001383;None;8;0;0.496034299954772;1084.2327267001383;None;1085.7328971996903;None;['7'];[0.2759112003259361];1085.7328971996903;None;;;;;;;Emoconpilot028;2021_Nov_24_1636;BackwardMask;2020.2.8;119.97787630223078;
;f;021_o_f_s_a.jpg;sad;7;40;f;040_y_f_n_a.jpg;neutral;incongruent;8;match;;130;170;;2;156;block1_Pilot_2;21;s_n;s_n_strong;;;;;0;0;0;0;0;85;85;85;;;;;;;;;1088.733018399682;None;1090.0389459999278;1090.3341688998044;1090.3341688998044;1090.3502361997962;1090.3502361997962;1090.3911724998616;1090.3911724998616;None;9;0;0.5296565997414291;1090.3911724998616;None;1091.891433000099;None;['7'];[0.31732119992375374];1091.891433000099;None;;;;;;;Emoconpilot028;2021_Nov_24_1636;BackwardMask;2020.2.8;119.97787630223078;
;m;004_o_m_n_a.jpg;neutral;8;13;m;013_y_m_n_a.jpg;neutral;congruent;8;match;;140;170;;2;225;block1_Pilot_2;4;n_n;n_n_strong;;;;;0;0;0;0;0;86;86;86;;;;;;;;;1094.8914220998995;None;1096.7958943000995;1097.0844208998606;1097.0844208998606;1097.1005629999563;1097.1005629999563;1097.1414133999497;1097.1414133999497;None;8;1;0.48333160020411015;1097.1414133999497;None;1098.641405500006;None;"['8', '7']";"[0.21542919985949993, 0.9594041998498142]";1098.641405500006;None;;;;;;;Emoconpilot028;2021_Nov_24_1636;BackwardMask;2020.2.8;119.97787630223078;
;m;016_y_m_n_a.jpg;neutral;8;16;m;016_y_m_h_a.jpg;happy;incongruent;9;match;;140;150;;18;193;block1_Pilot_2;16;n_h;n_h_strong;;;;;0;0;0;0;0;87;87;87;;;;;;;;;1101.6417263001204;None;1103.269204000011;1103.5595855000429;1103.5595855000429;1103.7089507998899;1103.7089507998899;1103.7498272997327;1103.7498272997327;None;8;0;0.563179399818182;1103.7498272997327;None;1105.249883600045;None;['7'];[0.8229819000698626];1105.249883600045;None;;;;;;;Emoconpilot028;2021_Nov_24_1636;BackwardMask;2020.2.8;119.97787630223078;
;m;033_o_m_h_a.jpg;happy;9;4;m;004_o_m_h_a.jpg;happy;congruent;9;match;;120;150;;2;195;block1_Pilot_2;33;h_h;h_h_strong;;;;;0;0;0;0;0;88;88;88;;;;;;;;;1108.2508469996974;None;1109.8829620997421;1110.1759579000063;1110.1759579000063;1110.1924034999683;1110.1924034999683;1110.2332775001414;1110.2332775001414;None;9;1;0.6236125999130309;1110.2332775001414;None;1111.7334281997755;None;['7'];[0.3473998000845313];1111.7334281997755;None;;;;;;;Emoconpilot028;2021_Nov_24_1636;BackwardMask;2020.2.8;119.97787630223078;
;m;027_o_m_h_a.jpg;happy;9;16;m;016_y_m_h_a.jpg;happy;congruent;9;match;;120;150;;3;209;block1_Pilot_2;27;h_h;h_h_weak;;;;;0;0;0;0;0;89;89;89;;;;;;;;;1114.7334453999065;None;1116.4962805998512;1116.7846969999373;1116.7846969999373;1116.8093169997446;1116.8093169997446;1116.8500244999304;1116.8500244999304;None;9;1;0.5988096999935806;1116.8500244999304;None;1118.3500393996947;None;['7'];[0.32280080020427704];1118.3500393996947;None;;;;;;;Emoconpilot028;2021_Nov_24_1636;BackwardMask;2020.2.8;119.97787630223078;
;m;033_o_m_s_a.jpg;sad;7;16;m;016_y_m_s_a.jpg;sad;congruent;7;match;;130;160;;3;128;block1_Pilot_2;33;s_s;s_s_strong;;;;;0;0;0;0;0;90;90;90;;;;;;;;;1121.350109399762;None;1122.425010799896;1122.7178210997954;1122.7178210997954;1122.7427721000277;1122.7427721000277;1122.7835480999202;1122.7835480999202;None;7;1;0.6812630002386868;1122.7835480999202;None;1124.2835780000314;None;['7'];[0.33326550014317036];1124.2835780000314;None;;;;;;;Emoconpilot028;2021_Nov_24_1636;BackwardMask;2020.2.8;119.97787630223078;
;f;021_o_f_s_a.jpg;sad;7;30;f;030_o_f_s_a.jpg;sad;congruent;7;match;;130;160;;1;238;block1_Pilot_2;21;s_s;s_s_strong;;;;;0;0;0;0;0;91;91;91;;;;;;;;;1127.2837825999595;None;1129.273015699815;1129.567788799759;1129.567788799759;1129.5761343999766;1129.5761343999766;1129.61693929974;1129.61693929974;None;None;0;;1129.61693929974;None;1131.117045099847;None;['9'];[0.3958051996305585];1131.117045099847;None;;;;;;;Emoconpilot028;2021_Nov_24_1636;BackwardMask;2020.2.8;119.97787630223078;
;m;033_o_m_n_a.jpg;neutral;8;28;f;028_y_f_s_a.jpg;sad;incongruent;7;mismatch;;140;160;;18;166;block1_Pilot_2;33;n_s;n_s_strong;;;;;0;0;0;0;0;92;92;92;;;;;;;;;1134.1172604998574;None;1135.5264309998602;1135.8187056998722;1135.8187056998722;1135.9678370999172;1135.9678370999172;1136.0087191998027;1136.0087191998027;None;7;1;0.4720832002349198;1136.0087191998027;None;1137.5086795999669;None;['7'];[0.5882966001518071];1137.5086795999669;None;;;;;;;Emoconpilot028;2021_Nov_24_1636;BackwardMask;2020.2.8;119.97787630223078;
;f;019_m_f_n_a.jpg;neutral;8;30;f;030_o_f_n_a.jpg;neutral;congruent;8;match;;140;170;;18;228;block1_Pilot_2;19;n_n;n_n_weak;;;;;0;0;0;0;0;93;93;93;;;;;;;;;1140.5096982000396;None;1142.4277705000713;1142.718724399805;1142.718724399805;1142.8680059998296;1142.8680059998296;1142.9087561997585;1142.9087561997585;None;8;1;0.5400538998655975;1142.9087561997585;None;1144.4089665999636;None;['7'];[0.2797400001436472];1144.4089665999636;None;;;;;;;Emoconpilot028;2021_Nov_24_1636;BackwardMask;2020.2.8;119.97787630223078;
;m;008_y_m_s_a.jpg;sad;7;12;f;012_o_f_h_a.jpg;happy;incongruent;9;mismatch;;130;150;;3;130;block1_Pilot_2;8;s_h;s_h_weak;;;;;0;0;0;0;0;94;94;94;;;;;;;;;1147.4098402997479;None;1148.5116400998086;1148.8021362000145;1148.8021362000145;1148.8265046998858;1148.8265046998858;1148.8672962998971;1148.8672962998971;None;7;0;0.6694892002269626;1148.8672962998971;None;1150.3674065000378;None;['7'];[0.42534640012308955];1150.3674065000378;None;;;;;;;Emoconpilot028;2021_Nov_24_1636;BackwardMask;2020.2.8;119.97787630223078;
;m;016_y_m_n_a.jpg;neutral;8;28;f;028_y_f_n_a.jpg;neutral;congruent;8;mismatch;;140;170;;18;189;block1_Pilot_2;16;n_n;n_n_strong;;;;;0;0;0;0;0;95;95;95;;;;;;;;;1153.367623299826;None;1154.962357299868;1155.2522929999977;1155.2522929999977;1155.4017273997888;1155.4017273997888;1155.442699499894;1155.442699499894;None;8;1;0.6539600999094546;1155.442699499894;None;1156.9426497998647;None;['7'];[0.3861970999278128];1156.9426497998647;None;;;;;;;Emoconpilot028;2021_Nov_24_1636;BackwardMask;2020.2.8;119.97787630223078;
;f;012_o_f_s_a.jpg;sad;7;16;m;016_y_m_h_a.jpg;happy;incongruent;9;mismatch;;130;150;;3;238;block1_Pilot_2;12;s_h;s_h_strong;;;;;0;0;0;0;0;96;96;96;;;;;;;;;1159.9425351996906;None;1161.929390199948;1162.2267259997316;1162.2267259997316;1162.2517802999355;1162.2517802999355;1162.2926266998984;1162.2926266998984;None;7;0;0.8601939999498427;1162.2926266998984;None;1163.792902499903;None;['7'];[0.3197376001626253];1163.792902499903;None;;;;;;;Emoconpilot028;2021_Nov_24_1636;BackwardMask;2020.2.8;119.97787630223078;
;m;013_y_m_h_a.jpg;happy;9;27;m;027_o_m_h_a.jpg;happy;congruent;9;match;;120;150;;18;238;block1_Pilot_2;13;h_h;h_h_strong;;;;;0;0;0;0;0;97;97;97;;;;;;;;;1166.793860499747;None;1168.8143666000105;1169.1109535000287;1169.1109535000287;1169.260293699801;1169.260293699801;1169.301305099856;1169.301305099856;None;9;1;0.5475747003220022;1169.301305099856;None;1170.801264199894;None;['7'];[0.2875450002029538];1170.801264199894;None;;;;;;;Emoconpilot028;2021_Nov_24_1636;BackwardMask;2020.2.8;119.97787630223078;
;m;016_y_m_s_a.jpg;sad;7;33;m;033_o_m_n_a.jpg;neutral;incongruent;8;match;;130;170;;1;238;block1_Pilot_2;16;s_n;s_n_weak;;;;;0;0;0;0;0;98;98;98;;;;;;;;;1173.8029525000602;None;1175.7927645999007;1176.0855572000146;1176.0855572000146;1176.0937176998705;1176.0937176998705;1176.134768200107;1176.134768200107;None;None;0;;1176.134768200107;None;1177.634615600109;None;['9'];[0.3582214000634849];1177.634615600109;None;;;;;;;Emoconpilot028;2021_Nov_24_1636;BackwardMask;2020.2.8;119.97787630223078;
;m;008_y_m_n_a.jpg;neutral;8;30;f;030_o_f_n_a.jpg;neutral;congruent;8;mismatch;;140;170;;1;238;block1_Pilot_2;8;n_n;n_n_weak;;;;;0;0;0;0;0;99;99;99;;;;;;;;;1180.6355538996868;None;1182.6589068998583;1182.952690999955;1182.952690999955;1182.9605109998956;1182.9605109998956;1183.0016331998631;1183.0016331998631;None;None;0;;1183.0016331998631;None;1184.5015639998019;None;['9'];[0.3151857000775635];1184.5015639998019;None;;;;;;;Emoconpilot028;2021_Nov_24_1636;BackwardMask;2020.2.8;119.97787630223078;
;m;008_y_m_s_a.jpg;sad;7;30;f;030_o_f_s_a.jpg;sad;congruent;7;mismatch;;130;160;;2;133;block1_Pilot_2;8;s_s;s_s_weak;;;;;0;0;0;0;0;100;100;100;;;;;;;;;1187.501960599795;None;1188.6299986001104;1188.919705899898;1188.919705899898;1188.935628300067;1188.935628300067;1188.9764260998927;1188.9764260998927;None;7;1;0.672352799680084;1188.9764260998927;None;1190.476583499927;None;['7'];[0.28422760032117367];1190.476583499927;None;;;;;;;Emoconpilot028;2021_Nov_24_1636;BackwardMask;2020.2.8;119.97787630223078;
;f;040_y_f_n_a.jpg;neutral;8;30;f;030_o_f_s_a.jpg;sad;incongruent;7;match;;140;160;;3;197;block1_Pilot_2;40;n_s;n_s_strong;;;;;0;0;0;0;0;101;101;101;;;;;;;;;1193.477479299996;None;1195.1534473998472;1195.444850999862;1195.444850999862;1195.4692211998627;1195.4692211998627;1195.5100952000357;1195.5100952000357;None;8;0;0.5707334000617266;1195.5100952000357;None;1197.0101335998625;None;['7'];[0.254755100235343];1197.0101335998625;None;;;;;;;Emoconpilot028;2021_Nov_24_1636;BackwardMask;2020.2.8;119.97787630223078;
;m;004_o_m_h_a.jpg;happy;9;30;f;030_o_f_s_a.jpg;sad;incongruent;7;mismatch;;120;160;;3;121;block1_Pilot_2;4;h_s;h_s_strong;;;;;0;0;0;0;0;102;102;102;;;;;;;;;1200.0101311998442;None;1201.0384066998959;1201.328277700115;1201.328277700115;1201.3526538000442;1201.3526538000442;1201.393501599785;1201.393501599785;None;9;0;0.45515199983492494;1201.393501599785;None;1202.8935854998417;None;['7'];[0.27515409979969263];1202.8935854998417;None;;;;;;;Emoconpilot028;2021_Nov_24_1636;BackwardMask;2020.2.8;119.97787630223078;
;f;040_y_f_h_a.jpg;happy;9;8;m;008_y_m_h_a.jpg;happy;congruent;9;mismatch;;120;150;;18;211;block1_Pilot_2;40;h_h;h_h_weak;;;;;0;0;0;0;0;103;103;103;;;;;;;;;1205.894069899805;None;1207.659993499983;1207.9528525997885;1207.9528525997885;1208.102936099749;1208.102936099749;1208.1437877998687;1208.1437877998687;None;9;1;0.4248734996654093;1208.1437877998687;None;1209.6436335998587;None;['7'];[0.29317110031843185];1209.6436335998587;None;;;;;;;Emoconpilot028;2021_Nov_24_1636;BackwardMask;2020.2.8;119.97787630223078;
;f;019_m_f_s_a.jpg;sad;7;16;m;016_y_m_n_a.jpg;neutral;incongruent;8;mismatch;;130;170;;2;198;block1_Pilot_2;19;s_n;s_n_strong;;;;;0;0;0;0;0;104;104;104;;;;;;;;;1212.644512299914;None;1214.3221355997957;1214.6117446999997;1214.6117446999997;1214.6279130997136;1214.6279130997136;1214.668798000086;1214.668798000086;None;7;0;0.6198140000924468;1214.668798000086;None;1216.1688343998976;None;['7'];[0.46400960022583604];1216.1688343998976;None;;;;;;;Emoconpilot028;2021_Nov_24_1636;BackwardMask;2020.2.8;119.97787630223078;
;f;040_y_f_s_a.jpg;sad;7;12;f;012_o_f_s_a.jpg;sad;congruent;7;match;;130;160;;18;240;block1_Pilot_2;40;s_s;s_s_strong;;;;;0;0;0;0;0;105;105;105;;;;;;;;;1219.169810099993;None;1221.1770882001147;1221.4699874999933;1221.4699874999933;1221.6197410998866;1221.6197410998866;1221.6606052997522;1221.6606052997522;None;7;1;0.3883377998135984;1221.6606052997522;None;1223.1606914000586;None;['7'];[0.48818149976432323];1223.1606914000586;None;;;;;;;Emoconpilot028;2021_Nov_24_1636;BackwardMask;2020.2.8;119.97787630223078;
;f;040_y_f_n_a.jpg;neutral;8;33;m;033_o_m_s_a.jpg;sad;incongruent;7;mismatch;;140;160;;3;188;block1_Pilot_2;40;n_s;n_s_weak;;;;;0;0;0;0;0;106;106;106;;;;;;;;;1226.1614232999273;None;1227.7698860997334;1228.0620709001087;1228.0620709001087;1228.0865988996811;1228.0865988996811;1228.1274810996838;1228.1274810996838;None;8;0;0.7132163001224399;1228.1274810996838;None;1229.6274508996867;None;['7'];[0.4214725000783801];1229.6274508996867;None;;;;;;;Emoconpilot028;2021_Nov_24_1636;BackwardMask;2020.2.8;119.97787630223078;
;f;028_y_f_h_a.jpg;happy;9;21;f;021_o_f_s_a.jpg;sad;incongruent;7;match;;120;160;;3;193;block1_Pilot_2;28;h_s;h_s_strong;;;;;0;0;0;0;0;107;107;107;;;;;;;;;1232.6277855997905;None;1234.246932500042;1234.5373038998805;1234.5373038998805;1234.5618181996979;1234.5618181996979;1234.6023745001294;1234.6023745001294;None;9;0;0.48652780009433627;1234.6023745001294;None;1236.1028296998702;None;['7'];[0.5379568003118038];1236.1028296998702;None;;;;;;;Emoconpilot028;2021_Nov_24_1636;BackwardMask;2020.2.8;119.97787630223078;
;f;040_y_f_s_a.jpg;sad;7;13;m;013_y_m_n_a.jpg;neutral;incongruent;8;mismatch;;130;170;;2;198;block1_Pilot_2;40;s_n;s_n_strong;;;;;0;0;0;0;0;108;108;108;;;;;;;;;1239.10339449998;None;1240.7608507000841;1241.0536152999848;1241.0536152999848;1241.0699887000956;1241.0699887000956;1241.110864599701;1241.110864599701;None;8;1;0.5700169997289777;1241.110864599701;None;1242.6108464999124;None;['7'];[0.30999410012736917];1242.6108464999124;None;;;;;;;Emoconpilot028;2021_Nov_24_1636;BackwardMask;2020.2.8;119.97787630223078;
;f;030_o_f_n_a.jpg;neutral;8;33;m;033_o_m_s_a.jpg;sad;incongruent;7;mismatch;;140;160;;1;238;block1_Pilot_2;30;n_s;n_s_strong;;;;;0;0;0;0;0;109;109;109;;;;;;;;;1245.611858899705;None;1247.6160833998583;1247.9123199000023;1247.9123199000023;1247.9201936000027;1247.9201936000027;1247.9611201998778;1247.9611201998778;None;None;0;;1247.9611201998778;None;1249.461133599747;None;['9'];[0.3557052998803556];1249.461133599747;None;;;;;;;Emoconpilot028;2021_Nov_24_1636;BackwardMask;2020.2.8;119.97787630223078;
;f;021_o_f_h_a.jpg;happy;9;40;f;040_y_f_n_a.jpg;neutral;incongruent;8;match;;120;170;;2;125;block1_Pilot_2;21;h_n;h_n_weak;;;;;0;0;0;0;0;110;110;110;;;;;;;;;1252.461411499884;None;1253.5232212999836;1253.8126745000482;1253.8126745000482;1253.828674599994;1253.828674599994;1253.8695543999784;1253.8695543999784;None;9;0;0.7152478001080453;1253.8695543999784;None;1255.3696244996972;None;['7'];[0.4392232997342944];1255.3696244996972;None;;;;;;;Emoconpilot028;2021_Nov_24_1636;BackwardMask;2020.2.8;119.97787630223078;
;f;021_o_f_h_a.jpg;happy;9;16;m;016_y_m_s_a.jpg;sad;incongruent;7;mismatch;;120;160;;1;238;block1_Pilot_2;21;h_s;h_s_strong;;;;;0;0;0;0;0;111;111;111;;;;;;;;;1258.3704054998234;None;1260.3724286998622;1260.6628236998804;1260.6628236998804;1260.6704436996952;1260.6704436996952;1260.7113675000146;1260.7113675000146;None;None;0;;1260.7113675000146;None;1262.2114192997105;None;['9'];[0.37334119994193316];1262.2114192997105;None;;;;;;;Emoconpilot028;2021_Nov_24_1636;BackwardMask;2020.2.8;119.97787630223078;
;f;012_o_f_h_a.jpg;happy;9;8;m;008_y_m_s_a.jpg;sad;incongruent;7;mismatch;;120;160;;1;238;block1_Pilot_2;12;h_s;h_s_weak;;;;;0;0;0;0;0;112;112;112;;;;;;;;;1265.2124481997453;None;1267.203066300135;1267.495803900063;1267.495803900063;1267.504149899818;1267.504149899818;1267.5447482997552;1267.5447482997552;None;None;0;;1267.5447482997552;None;1269.0449409000576;None;['9'];[0.42003449983894825];1269.0449409000576;None;;;;;;;Emoconpilot028;2021_Nov_24_1636;BackwardMask;2020.2.8;119.97787630223078;
;m;013_y_m_h_a.jpg;happy;9;16;m;016_y_m_s_a.jpg;sad;incongruent;7;match;;120;160;;3;202;block1_Pilot_2;13;h_s;h_s_weak;;;;;0;0;0;0;0;113;113;113;;;;;;;;;1272.0458641997539;None;1273.7497282000259;1274.0464713997208;1274.0464713997208;1274.0711019998416;1274.0711019998416;1274.111553200055;1274.111553200055;None;9;0;0.6573727000504732;1274.111553200055;None;1275.6117770001292;None;['7'];[0.3250136002898216];1275.6117770001292;None;;;;;;;Emoconpilot028;2021_Nov_24_1636;BackwardMask;2020.2.8;119.97787630223078;
;f;019_m_f_s_a.jpg;sad;7;4;m;004_o_m_n_a.jpg;neutral;incongruent;8;mismatch;;130;170;;1;238;block1_Pilot_2;19;s_n;s_n_strong;;;;;0;0;0;0;0;114;114;114;;;;;;;;;1278.6128308000043;None;1280.613791699987;1280.904755400028;1280.904755400028;1280.9125351998955;1280.9125351998955;1280.95353910001;1280.95353910001;None;None;0;;1280.95353910001;None;1282.4533816999756;None;['9'];[0.3073971997946501];1282.4533816999756;None;;;;;;;Emoconpilot028;2021_Nov_24_1636;BackwardMask;2020.2.8;119.97787630223078;
;f;028_y_f_n_a.jpg;neutral;8;27;m;027_o_m_s_a.jpg;sad;incongruent;7;mismatch;;140;160;;18;238;block1_Pilot_2;28;n_s;n_s_strong;;;;;0;0;0;0;0;115;115;115;;;;;;;;;1285.4539167997427;None;1287.4575604000129;1287.7465727999806;1287.7465727999806;1287.8960971999913;1287.8960971999913;1287.937072900124;1287.937072900124;None;8;0;0.4558435999788344;1287.937072900124;None;1289.437656399794;None;['7'];[0.25916019966825843];1289.437656399794;None;;;;;;;Emoconpilot028;2021_Nov_24_1636;BackwardMask;2020.2.8;119.97787630223078;
;m;013_y_m_s_a.jpg;sad;7;12;f;012_o_f_h_a.jpg;happy;incongruent;9;mismatch;;130;150;;1;238;block1_Pilot_2;13;s_h;s_h_strong;;;;;0;0;0;0;0;116;116;116;;;;;;;;;1292.4375988999382;None;1294.4285686998628;1294.7213952001184;1294.7213952001184;1294.7295504999347;1294.7295504999347;1294.7701972997747;1294.7701972997747;None;None;0;;1294.7701972997747;None;1296.2704889001325;None;['9'];[0.4984096996486187];1296.2704889001325;None;;;;;;;Emoconpilot028;2021_Nov_24_1636;BackwardMask;2020.2.8;119.97787630223078;
;m;016_y_m_s_a.jpg;sad;7;19;f;019_m_f_h_a.jpg;happy;incongruent;9;mismatch;;130;150;;1;238;block1_Pilot_2;16;s_h;s_h_strong;;;;;0;0;0;0;0;117;117;117;;;;;;;;;1299.2705736998469;None;1301.260549900122;1301.5548322997056;1301.5548322997056;1301.5630144998431;1301.5630144998431;1301.603838399984;1301.603838399984;None;None;0;;1301.603838399984;None;1303.1037824000232;None;['9'];[0.40089539997279644];1303.1037824000232;None;;;;;;;Emoconpilot028;2021_Nov_24_1636;BackwardMask;2020.2.8;119.97787630223078;
;m;013_y_m_s_a.jpg;sad;7;21;f;021_o_f_h_a.jpg;happy;incongruent;9;mismatch;;130;150;;18;238;block1_Pilot_2;13;s_h;s_h_strong;;;;;0;0;0;0;0;118;118;118;;;;;;;;;1306.1045820997097;None;1308.0947849000804;1308.3882597000338;1308.3882597000338;1308.53835169971;1308.53835169971;1308.5791114000604;1308.5791114000604;None;7;0;0.5656508002430201;1308.5791114000604;None;1310.0792501997203;None;['7'];[0.6496700998395681];1310.0792501997203;None;;;;;;;Emoconpilot028;2021_Nov_24_1636;BackwardMask;2020.2.8;119.97787630223078;
;f;012_o_f_s_a.jpg;sad;7;13;m;013_y_m_h_a.jpg;happy;incongruent;9;mismatch;;130;150;;3;235;block1_Pilot_2;12;s_h;s_h_weak;;;;;0;0;0;0;0;119;119;119;;;;;;;;;1313.0799551000819;None;1315.0412149000913;1315.3383601997048;1315.3383601997048;1315.3633063999005;1315.3633063999005;1315.4041609000415;1315.4041609000415;None;7;0;0.7964921002276242;1315.4041609000415;None;1316.9040882997215;None;['7'];[0.28074470022693276];1316.9040882997215;None;;;;;;;Emoconpilot028;2021_Nov_24_1636;BackwardMask;2020.2.8;119.97787630223078;
;f;019_m_f_s_a.jpg;sad;7;30;f;030_o_f_h_a.jpg;happy;incongruent;9;match;;130;150;;3;235;block2_Pilot_2;19;s_h;s_h_strong;;;;;0;1;1;1;0;0;0;0;;;;;;;;;1339.942652599886;None;1341.918378799688;1342.2144649997354;1342.2144649997354;1342.238915400114;1342.238915400114;1342.279914099723;1342.279914099723;None;7;0;1.3688697000034153;1342.279914099723;None;1343.7805526000448;None;['7'];[0.8763112002052367];1343.7805526000448;None;;;1319.9047928997315;None;;;Emoconpilot028;2021_Nov_24_1636;BackwardMask;2020.2.8;119.97787630223078;
;m;008_y_m_n_a.jpg;neutral;8;40;f;040_y_f_h_a.jpg;happy;incongruent;9;mismatch;;140;150;;2;121;block2_Pilot_2;8;n_h;n_h_strong;;;;;0;1;1;1;0;1;1;1;;;;;;;;;1346.7806826001033;None;1347.8070136001334;1348.0979116000235;1348.0979116000235;1348.1139548998326;1348.1139548998326;1348.1548612997867;1348.1548612997867;None;8;0;0.9820122001692653;1348.1548612997867;None;1349.654951899778;None;['7'];[0.39383779978379607];1349.654951899778;None;;;;;;;Emoconpilot028;2021_Nov_24_1636;BackwardMask;2020.2.8;119.97787630223078;
;f;012_o_f_h_a.jpg;happy;9;27;m;027_o_m_n_a.jpg;neutral;incongruent;8;mismatch;;120;170;;2;240;block2_Pilot_2;12;h_n;h_n_weak;;;;;0;1;1;1;0;2;2;2;;;;;;;;;1352.655786300078;None;1354.6638225000352;1354.9559995997697;1354.9559995997697;1354.972938099876;1354.972938099876;1355.0134471999481;1355.0134471999481;None;9;0;0.619494799990207;1355.0134471999481;None;1356.5133910998702;None;['7'];[1.1434267000295222];1356.5133910998702;None;;;;;;;Emoconpilot028;2021_Nov_24_1636;BackwardMask;2020.2.8;119.97787630223078;
;m;008_y_m_h_a.jpg;happy;9;40;f;040_y_f_h_a.jpg;happy;congruent;9;mismatch;;120;150;;18;195;block2_Pilot_2;8;h_h;h_h_strong;;;;;0;1;1;1;0;3;3;3;;;;;;;;;1359.5136183998547;None;1361.1464792001061;1361.4394020996988;1361.4394020996988;1361.5892567001283;1361.5892567001283;1361.6301051001064;1361.6301051001064;None;9;1;0.48277160013094544;1361.6301051001064;None;1363.1302151000127;None;['7'];[0.3346946998499334];1363.1302151000127;None;;;;;;;Emoconpilot028;2021_Nov_24_1636;BackwardMask;2020.2.8;119.97787630223078;
;m;004_o_m_n_a.jpg;neutral;8;33;m;033_o_m_s_a.jpg;sad;incongruent;7;match;;140;160;;18;126;block2_Pilot_2;4;n_s;n_s_weak;;;;;0;1;1;1;0;4;4;4;;;;;;;;;1366.131090699695;None;1367.2126672999002;1367.5068573998287;1367.5068573998287;1367.6560557996854;1367.6560557996854;1367.6970371999778;1367.6970371999778;None;7;1;0.7518188999965787;1367.6970371999778;None;1369.1969706998207;None;['7'];[0.4678714000619948];1369.1969706998207;None;;;;;;;Emoconpilot028;2021_Nov_24_1636;BackwardMask;2020.2.8;119.97787630223078;
;f;028_y_f_s_a.jpg;sad;7;27;m;027_o_m_n_a.jpg;neutral;incongruent;8;mismatch;;130;170;;18;225;block2_Pilot_2;28;s_n;s_n_strong;;;;;0;1;1;1;0;5;5;5;;;;;;;;;1372.1970357000828;None;1374.0830647000112;1374.3729905998334;1374.3729905998334;1374.5228527998552;1374.5228527998552;1374.5636630998924;1374.5636630998924;None;7;0;0.4450527997687459;1374.5636630998924;None;1376.063747199718;None;['7'];[0.47312890039756894];1376.063747199718;None;;;;;;;Emoconpilot028;2021_Nov_24_1636;BackwardMask;2020.2.8;119.97787630223078;
;m;027_o_m_s_a.jpg;sad;7;30;f;030_o_f_h_a.jpg;happy;incongruent;9;mismatch;;130;150;;18;238;block2_Pilot_2;27;s_h;s_h_weak;;;;;0;1;1;1;0;6;6;6;;;;;;;;;1379.064031300135;None;1381.0551685998216;1381.3480692999437;1381.3480692999437;1381.498070300091;1381.498070300091;1381.5388893000782;1381.5388893000782;None;7;0;1.3819488999433815;1381.5388893000782;None;1383.0390194999054;None;['7'];[0.6738352999091148];1383.0390194999054;None;;;;;;;Emoconpilot028;2021_Nov_24_1636;BackwardMask;2020.2.8;119.97787630223078;
;m;033_o_m_h_a.jpg;happy;9;40;f;040_y_f_s_a.jpg;sad;incongruent;7;mismatch;;120;160;;1;238;block2_Pilot_2;33;h_s;h_s_strong;;;;;0;1;1;1;0;7;7;7;;;;;;;;;1386.0391166997142;None;1388.0305432998575;1388.3230952001177;1388.3230952001177;1388.3317442997359;1388.3317442997359;1388.3724150001071;1388.3724150001071;None;None;0;;1388.3724150001071;None;1389.872263399884;None;['9'];[0.8566336999647319];1389.872263399884;None;;;;;;;Emoconpilot028;2021_Nov_24_1636;BackwardMask;2020.2.8;119.97787630223078;
;f;012_o_f_n_a.jpg;neutral;8;12;f;012_o_f_h_a.jpg;happy;incongruent;9;match;;140;150;;2;200;block2_Pilot_2;12;n_h;n_h_weak;;;;;0;1;1;1;0;8;8;8;;;;;;;;;1392.8724909997545;None;1394.559548499994;1394.8490387001075;1394.8490387001075;1394.864809199702;1394.864809199702;1394.9057927001268;1394.9057927001268;None;8;0;0.6948739998042583;1394.9057927001268;None;1396.405923999846;None;['7'];[0.29886560002341866];1396.405923999846;None;;;;;;;Emoconpilot028;2021_Nov_24_1636;BackwardMask;2020.2.8;119.97787630223078;
;f;030_o_f_n_a.jpg;neutral;8;19;f;019_m_f_n_a.jpg;neutral;congruent;8;match;;140;170;;1;238;block2_Pilot_2;30;n_n;n_n_weak;;;;;0;1;1;1;0;9;9;9;;;;;;;;;1399.406886199955;None;1401.4085412998684;1401.6990044997074;1401.6990044997074;1401.7066472000442;1401.7066472000442;1401.7475715000182;1401.7475715000182;None;None;0;;1401.7475715000182;None;1403.2476738998666;None;['9'];[0.2732023997232318];1403.2476738998666;None;;;;;;;Emoconpilot028;2021_Nov_24_1636;BackwardMask;2020.2.8;119.97787630223078;
;m;013_y_m_h_a.jpg;happy;9;8;m;008_y_m_n_a.jpg;neutral;incongruent;8;match;;120;170;;1;238;block2_Pilot_2;13;h_n;h_n_strong;;;;;0;1;1;1;0;10;10;10;;;;;;;;;1406.2487030001357;None;1408.2628036998212;1408.5575397997163;1408.5575397997163;1408.5652211001143;1408.5652211001143;1408.6059960997663;1408.6059960997663;None;9;0;0.7309178998693824;1408.6059960997663;None;1410.1060751997866;None;['7'];[0.6067240000702441];1410.1060751997866;None;;;;;;;Emoconpilot028;2021_Nov_24_1636;BackwardMask;2020.2.8;119.97787630223078;
;f;040_y_f_h_a.jpg;happy;9;19;f;019_m_f_s_a.jpg;sad;incongruent;7;match;;120;160;;3;133;block2_Pilot_2;40;h_s;h_s_strong;;;;;0;1;1;1;0;11;11;11;;;;;;;;;1413.1062059998512;None;1414.22352400003;1414.5156021998264;1414.5156021998264;1414.5404782998376;1414.5404782998376;1414.5811974001117;1414.5811974001117;None;9;0;0.6195534002035856;1414.5811974001117;None;1416.08127840003;None;['7'];[0.7353946003131568];1416.08127840003;None;;;;;;;Emoconpilot028;2021_Nov_24_1636;BackwardMask;2020.2.8;119.97787630223078;
;f;040_y_f_h_a.jpg;happy;9;13;m;013_y_m_s_a.jpg;sad;incongruent;7;mismatch;;120;160;;3;226;block2_Pilot_2;40;h_s;h_s_strong;;;;;0;1;1;1;0;12;12;12;;;;;;;;;1419.082098599989;None;1420.9729593000375;1421.2655853996985;1421.2655853996985;1421.2905874000862;1421.2905874000862;1421.3313508997671;1421.3313508997671;None;9;0;0.5173180997371674;1421.3313508997671;None;1422.8315058001317;None;['7'];[0.33715720009058714];1422.8315058001317;None;;;;;;;Emoconpilot028;2021_Nov_24_1636;BackwardMask;2020.2.8;119.97787630223078;
;f;030_o_f_s_a.jpg;sad;7;27;m;027_o_m_h_a.jpg;happy;incongruent;9;mismatch;;130;150;;1;238;block2_Pilot_2;30;s_h;s_h_strong;;;;;0;1;1;1;0;13;13;13;;;;;;;;;1425.8315477999859;None;1427.8462096997537;1428.1412772997282;1428.1412772997282;1428.1488868999295;1428.1488868999295;1428.1898400001228;1428.1898400001228;None;None;0;;1428.1898400001228;None;1429.689923999831;None;['9'];[0.398983099963516];1429.689923999831;None;;;;;;;Emoconpilot028;2021_Nov_24_1636;BackwardMask;2020.2.8;119.97787630223078;
;m;033_o_m_h_a.jpg;happy;9;30;f;030_o_f_s_a.jpg;sad;incongruent;7;mismatch;;120;160;;1;238;block2_Pilot_2;33;h_s;h_s_weak;;;;;0;1;1;1;0;14;14;14;;;;;;;;;1432.6899788998999;None;1434.6809125998989;1434.9743535998277;1434.9743535998277;1434.982410799712;1434.982410799712;1435.0232970998622;1435.0232970998622;None;None;0;;1435.0232970998622;None;1436.5232822997496;None;['9'];[0.42961599957197905];1436.5232822997496;None;;;;;;;Emoconpilot028;2021_Nov_24_1636;BackwardMask;2020.2.8;119.97787630223078;
;f;030_o_f_s_a.jpg;sad;7;28;f;028_y_f_n_a.jpg;neutral;incongruent;8;match;;130;170;;3;198;block2_Pilot_2;30;s_n;s_n_weak;;;;;0;1;1;1;0;15;15;15;;;;;;;;;1439.5235140998848;None;1441.2170990998857;1441.5081731998362;1441.5081731998362;1441.5325390999205;1441.5325390999205;1441.5732717998326;1441.5732717998326;None;8;1;0.6673693000338972;1441.5732717998326;None;1443.0734522999264;None;"['7', '8']";"[0.3593613002449274, 1.6793142003007233]";1443.0734522999264;None;;;;;;;Emoconpilot028;2021_Nov_24_1636;BackwardMask;2020.2.8;119.97787630223078;
;f;030_o_f_s_a.jpg;sad;7;33;m;033_o_m_h_a.jpg;happy;incongruent;9;mismatch;;130;150;;3;175;block2_Pilot_2;30;s_h;s_h_weak;;;;;0;1;1;1;0;16;16;16;;;;;;;;;1446.0742556997575;None;1447.5507694999687;1447.84171829978;1447.84171829978;1447.865906599909;1447.865906599909;1447.9070101999678;1447.9070101999678;None;7;0;0.8138418002054095;1447.9070101999678;None;1449.407724800054;None;['7'];[0.7369288997724652];1449.407724800054;None;;;;;;;Emoconpilot028;2021_Nov_24_1636;BackwardMask;2020.2.8;119.97787630223078;
;f;021_o_f_h_a.jpg;happy;9;30;f;030_o_f_h_a.jpg;happy;congruent;9;match;;120;150;;2;194;block2_Pilot_2;21;h_h;h_h_strong;;;;;0;1;1;1;0;17;17;17;;;;;;;;;1452.4077304000966;None;1454.043363200035;1454.3335985997692;1454.3335985997692;1454.3494739998132;1454.3494739998132;1454.3904130999;1454.3904130999;None;9;1;0.6584246000275016;1454.3904130999;None;1455.8902289997786;None;['7'];[0.4066465003415942];1455.8902289997786;None;;;;;;;Emoconpilot028;2021_Nov_24_1636;BackwardMask;2020.2.8;119.97787630223078;
;f;019_m_f_n_a.jpg;neutral;8;16;m;016_y_m_s_a.jpg;sad;incongruent;7;mismatch;;140;160;;18;163;block2_Pilot_2;19;n_s;n_s_weak;;;;;0;1;1;1;0;18;18;18;;;;;;;;;1458.8915005996823;None;1460.268094399944;1460.55841840012;1460.55841840012;1460.707979499828;1460.707979499828;1460.7488156999461;1460.7488156999461;None;8;0;0.6918104002252221;1460.7488156999461;None;1462.2489319001324;None;['7'];[0.42391869984567165];1462.2489319001324;None;;;;;;;Emoconpilot028;2021_Nov_24_1636;BackwardMask;2020.2.8;119.97787630223078;
;m;033_o_m_n_a.jpg;neutral;8;13;m;013_y_m_n_a.jpg;neutral;congruent;8;match;;140;170;;2;217;block2_Pilot_2;33;n_n;n_n_strong;;;;;0;1;1;1;0;19;19;19;;;;;;;;;1465.2497837999836;None;1467.076316199731;1467.367051300127;1467.367051300127;1467.3830605000257;1467.3830605000257;1467.4239869997837;1467.4239869997837;None;8;1;0.5928556998260319;1467.4239869997837;None;1468.9240818000399;None;['7'];[0.2847543000243604];1468.9240818000399;None;;;;;;;Emoconpilot028;2021_Nov_24_1636;BackwardMask;2020.2.8;119.97787630223078;
;m;033_o_m_h_a.jpg;happy;9;13;m;013_y_m_n_a.jpg;neutral;incongruent;8;match;;120;170;;2;227;block2_Pilot_2;33;h_n;h_n_weak;;;;;0;1;1;1;0;20;20;20;;;;;;;;;1471.9249152000993;None;1473.8234709999524;1474.1166932000779;1474.1166932000779;1474.1332795000635;1474.1332795000635;1474.1741690998897;1474.1741690998897;None;9;0;0.8748036995530128;1474.1741690998897;None;1475.673996299971;None;['7'];[0.4388196999207139];1475.673996299971;None;;;;;;;Emoconpilot028;2021_Nov_24_1636;BackwardMask;2020.2.8;119.97787630223078;
;f;012_o_f_s_a.jpg;sad;7;16;m;016_y_m_n_a.jpg;neutral;incongruent;8;mismatch;;130;170;;1;238;block2_Pilot_2;12;s_n;s_n_weak;;;;;0;1;1;1;0;21;21;21;;;;;;;;;1478.6751024997793;None;1480.6603417997248;1480.9585786000825;1480.9585786000825;1480.9666641000658;1480.9666641000658;1481.0076779997908;1481.0076779997908;None;None;0;;1481.0076779997908;None;1482.5076143001206;None;['9'];[0.4132073000073433];1482.5076143001206;None;;;;;;;Emoconpilot028;2021_Nov_24_1636;BackwardMask;2020.2.8;119.97787630223078;
;f;028_y_f_n_a.jpg;neutral;8;21;f;021_o_f_h_a.jpg;happy;incongruent;9;match;;140;150;;18;202;block2_Pilot_2;28;n_h;n_h_strong;;;;;0;1;1;1;0;22;22;22;;;;;;;;;1485.508487999905;None;1487.24592139991;1487.5424154000357;1487.5424154000357;1487.6918556001037;1487.6918556001037;1487.7327527999878;1487.7327527999878;None;8;0;0.5481030996888876;1487.7327527999878;None;1489.2329448997043;None;['7'];[0.36788809997960925];1489.2329448997043;None;;;;;;;Emoconpilot028;2021_Nov_24_1636;BackwardMask;2020.2.8;119.97787630223078;
;f;028_y_f_s_a.jpg;sad;7;30;f;030_o_f_n_a.jpg;neutral;incongruent;8;match;;130;170;;2;127;block2_Pilot_2;28;s_n;s_n_weak;;;;;0;1;1;1;0;23;23;23;;;;;;;;;1492.232861700002;None;1493.3022227999754;1493.5921839997172;1493.5921839997172;1493.608721099794;1493.608721099794;1493.6496411999688;1493.6496411999688;None;8;1;0.6071706996299326;1493.6496411999688;None;1495.1496321000159;None;['7'];[0.3392153000459075];1495.1496321000159;None;;;;;;;Emoconpilot028;2021_Nov_24_1636;BackwardMask;2020.2.8;119.97787630223078;
;m;004_o_m_n_a.jpg;neutral;8;40;f;040_y_f_n_a.jpg;neutral;congruent;8;mismatch;;140;170;;1;238;block2_Pilot_2;4;n_n;n_n_weak;;;;;0;1;1;1;0;24;24;24;;;;;;;;;1498.15009739995;None;1500.1690242998302;1500.4593952000141;1500.4593952000141;1500.4671644000337;1500.4671644000337;1500.5080057000741;1500.5080057000741;None;None;0;;1500.5080057000741;None;1502.0084111001343;None;['9'];[0.28053179988637567];1502.0084111001343;None;;;;;;;Emoconpilot028;2021_Nov_24_1636;BackwardMask;2020.2.8;119.97787630223078;
;m;016_y_m_n_a.jpg;neutral;8;16;m;016_y_m_h_a.jpg;happy;incongruent;9;match;;140;150;;18;239;block2_Pilot_2;16;n_h;n_h_weak;;;;;0;1;1;1;0;25;25;25;;;;;;;;;1505.0087056998163;None;1507.0184949999675;1507.3095486001112;1507.3095486001112;1507.4589003999718;1507.4589003999718;1507.4998232000507;1507.4998232000507;None;8;0;0.5168290003202856;1507.4998232000507;None;1508.9997241999954;None;['7'];[0.3370579998008907];1508.9997241999954;None;;;;;;;Emoconpilot028;2021_Nov_24_1636;BackwardMask;2020.2.8;119.97787630223078;
;f;012_o_f_n_a.jpg;neutral;8;33;m;033_o_m_n_a.jpg;neutral;congruent;8;mismatch;;140;170;;3;134;block2_Pilot_2;12;n_n;n_n_weak;;;;;0;1;1;1;0;26;26;26;;;;;;;;;1512.0009588999674;None;1513.1355968997814;1513.4263590998016;1513.4263590998016;1513.450782599859;1513.450782599859;1513.4916222998872;1513.4916222998872;None;8;1;0.5412718998268247;1513.4916222998872;None;1514.991753099952;None;['7'];[0.34496309980750084];1514.991753099952;None;;;;;;;Emoconpilot028;2021_Nov_24_1636;BackwardMask;2020.2.8;119.97787630223078;
;m;013_y_m_h_a.jpg;happy;9;27;m;027_o_m_s_a.jpg;sad;incongruent;7;match;;120;160;;2;194;block2_Pilot_2;13;h_s;h_s_strong;;;;;0;1;1;1;0;27;27;27;;;;;;;;;1517.992592799943;None;1519.6272900998592;1519.9180968999863;1519.9180968999863;1519.9343787999824;1519.9343787999824;1519.9750411999412;1519.9750411999412;None;9;0;0.5618988000787795;1519.9750411999412;None;1521.4750908999704;None;['7'];[0.36578449979424477];1521.4750908999704;None;;;;;;;Emoconpilot028;2021_Nov_24_1636;BackwardMask;2020.2.8;119.97787630223078;
;m;013_y_m_n_a.jpg;neutral;8;28;f;028_y_f_n_a.jpg;neutral;congruent;8;mismatch;;140;170;;1;238;block2_Pilot_2;13;n_n;n_n_weak;;;;;0;1;1;1;0;28;28;28;;;;;;;;;1524.4758716998622;None;1526.478339499794;1526.7681736997329;1526.7681736997329;1526.7760903998278;1526.7760903998278;1526.8169558998197;1526.8169558998197;None;None;0;;1526.8169558998197;None;1528.3171121999621;None;['9'];[0.29969550017267466];1528.3171121999621;None;;;;;;;Emoconpilot028;2021_Nov_24_1636;BackwardMask;2020.2.8;119.97787630223078;
;f;030_o_f_s_a.jpg;sad;7;33;m;033_o_m_h_a.jpg;happy;incongruent;9;mismatch;;130;150;;3;168;block2_Pilot_2;30;s_h;s_h_weak;;;;;0;1;1;1;0;29;29;29;;;;;;;;;1531.3179985000752;None;1532.736463099718;1533.0268151001073;1533.0268151001073;1533.0511822998524;1533.0511822998524;1533.0920762000605;1533.0920762000605;None;None;0;;1533.0920762000605;None;1534.592108800076;None;['7'];[0.28877419978380203];1534.592108800076;None;;;;;;;Emoconpilot028;2021_Nov_24_1636;BackwardMask;2020.2.8;119.97787630223078;
;m;008_y_m_n_a.jpg;neutral;8;12;f;012_o_f_n_a.jpg;neutral;congruent;8;mismatch;;140;170;;18;208;block2_Pilot_2;8;n_n;n_n_weak;;;;;0;1;1;1;0;30;30;30;;;;;;;;;1537.5922403000295;None;1539.3517736997455;1539.6436505001038;1539.6436505001038;1539.792931099888;1539.792931099888;1539.8338830997236;1539.8338830997236;None;8;1;0.6869540996849537;1539.8338830997236;None;1541.333583400119;None;['7'];[0.3550820997916162];1541.333583400119;None;;;;;;;Emoconpilot028;2021_Nov_24_1636;BackwardMask;2020.2.8;119.97787630223078;
;m;008_y_m_s_a.jpg;sad;7;4;m;004_o_m_n_a.jpg;neutral;incongruent;8;match;;130;170;;2;231;block2_Pilot_2;8;s_n;s_n_weak;;;;;0;1;1;1;0;31;31;31;;;;;;;;;1544.3349774000235;None;1546.27954459982;1546.5686177001335;1546.5686177001335;1546.5846485998482;1546.5846485998482;1546.6256548999809;1546.6256548999809;None;7;0;0.7511023003607988;1546.6256548999809;None;1548.125607199967;None;['7'];[0.8670809003524482];1548.125607199967;None;;;;;;;Emoconpilot028;2021_Nov_24_1636;BackwardMask;2020.2.8;119.97787630223078;
;m;016_y_m_n_a.jpg;neutral;8;28;f;028_y_f_n_a.jpg;neutral;congruent;8;mismatch;;140;170;;2;218;block2_Pilot_2;16;n_n;n_n_weak;;;;;0;1;1;1;0;32;32;32;;;;;;;;;1551.12640299974;None;1552.9615397998132;1553.2521285000257;1553.2521285000257;1553.268241699785;1553.268241699785;1553.3092240998521;1553.3092240998521;None;8;1;0.5797071000561118;1553.3092240998521;None;1554.808964499738;None;['7'];[0.31992230005562305];1554.808964499738;None;;;;;;;Emoconpilot028;2021_Nov_24_1636;BackwardMask;2020.2.8;119.97787630223078;
;m;033_o_m_n_a.jpg;neutral;8;33;m;033_o_m_s_a.jpg;sad;incongruent;7;match;;140;160;;3;141;block2_Pilot_2;33;n_s;n_s_weak;;;;;0;1;1;1;0;33;33;33;;;;;;;;;1557.8091951999813;None;1559.0033443998545;1559.2940185000189;1559.2940185000189;1559.3182397000492;1559.3182397000492;1559.3591927001253;1559.3591927001253;None;8;0;0.9296760000288486;1559.3591927001253;None;1560.859238400124;None;['7'];[0.63757020002231];1560.859238400124;None;;;;;;;Emoconpilot028;2021_Nov_24_1636;BackwardMask;2020.2.8;119.97787630223078;
;m;016_y_m_n_a.jpg;neutral;8;13;m;013_y_m_s_a.jpg;sad;incongruent;7;match;;140;160;;1;238;block2_Pilot_2;16;n_s;n_s_weak;;;;;0;1;1;1;0;34;34;34;;;;;;;;;1563.860241800081;None;1565.8616748000495;1566.1524263001047;1566.1524263001047;1566.1600639000535;1566.1600639000535;1566.2010967996903;1566.2010967996903;None;None;0;;1566.2010967996903;None;1567.7011605999433;None;['9'];[0.29170370008796453];1567.7011605999433;None;;;;;;;Emoconpilot028;2021_Nov_24_1636;BackwardMask;2020.2.8;119.97787630223078;
;f;030_o_f_h_a.jpg;happy;9;12;f;012_o_f_n_a.jpg;neutral;incongruent;8;match;;120;170;;3;190;block2_Pilot_2;30;h_n;h_n_weak;;;;;0;1;1;1;0;35;35;35;;;;;;;;;1570.7021588999778;None;1572.3038892997429;1572.594222499989;1572.594222499989;1572.618663799949;1572.618663799949;1572.6594886998646;1572.6594886998646;None;9;0;0.5972914998419583;1572.6594886998646;None;1574.1595733999275;None;['7'];[0.35321730002760887];1574.1595733999275;None;;;;;;;Emoconpilot028;2021_Nov_24_1636;BackwardMask;2020.2.8;119.97787630223078;
;f;030_o_f_s_a.jpg;sad;7;12;f;012_o_f_n_a.jpg;neutral;incongruent;8;match;;130;170;;3;197;block2_Pilot_2;30;s_n;s_n_strong;;;;;0;1;1;1;0;36;36;36;;;;;;;;;1577.160092299804;None;1578.8199351998046;1579.1110478998162;1579.1110478998162;1579.135458199773;1579.135458199773;1579.1762250997126;1579.1762250997126;None;8;1;0.9686177996918559;1579.1762250997126;None;1580.676274599973;None;['7'];[0.35650300001725554];1580.676274599973;None;;;;;;;Emoconpilot028;2021_Nov_24_1636;BackwardMask;2020.2.8;119.97787630223078;
;m;004_o_m_s_a.jpg;sad;7;8;m;008_y_m_h_a.jpg;happy;incongruent;9;match;;130;150;;3;201;block2_Pilot_2;4;s_h;s_h_strong;;;;;0;1;1;1;0;37;37;37;;;;;;;;;1583.6771422000602;None;1585.3595969998278;1585.6524362000637;1585.6524362000637;1585.6772360997275;1585.6772360997275;1585.7179568000138;1585.7179568000138;None;7;0;0.7309715999290347;1585.7179568000138;None;1587.2180226999335;None;['7'];[0.6947881001979113];1587.2180226999335;None;;;;;;;Emoconpilot028;2021_Nov_24_1636;BackwardMask;2020.2.8;119.97787630223078;
;f;040_y_f_n_a.jpg;neutral;8;16;m;016_y_m_n_a.jpg;neutral;congruent;8;mismatch;;140;170;;3;198;block2_Pilot_2;40;n_n;n_n_strong;;;;;0;1;1;1;0;38;38;38;;;;;;;;;1590.2187656001188;None;1591.891030299943;1592.1862276997417;1592.1862276997417;1592.2106445999816;1592.2106445999816;1592.2516469000839;1592.2516469000839;None;8;1;0.5892417002469301;1592.2516469000839;None;1593.7516843997873;None;['7'];[0.3289692001417279];1593.7516843997873;None;;;;;;;Emoconpilot028;2021_Nov_24_1636;BackwardMask;2020.2.8;119.97787630223078;
;m;027_o_m_n_a.jpg;neutral;8;16;m;016_y_m_s_a.jpg;sad;incongruent;7;match;;140;160;;1;238;block2_Pilot_2;27;n_s;n_s_strong;;;;;0;1;1;1;0;39;39;39;;;;;;;;;1596.7526062997058;None;1598.7541044997051;1599.0447137998417;1599.0447137998417;1599.0524858999997;1599.0524858999997;1599.0933102997951;1599.0933102997951;None;None;0;;1599.0933102997951;None;1600.5932855997235;None;['9'];[0.5275882999412715];1600.5932855997235;None;;;;;;;Emoconpilot028;2021_Nov_24_1636;BackwardMask;2020.2.8;119.97787630223078;
;m;033_o_m_n_a.jpg;neutral;8;40;f;040_y_f_h_a.jpg;happy;incongruent;9;mismatch;;140;150;;2;137;block2_Pilot_2;33;n_h;n_h_strong;;;;;0;1;1;1;0;40;40;40;;;;;;;;;1603.5935776997358;None;1604.7545571001247;1605.0448357998393;1605.0448357998393;1605.060716399923;1605.060716399923;1605.1017589000985;1605.1017589000985;None;8;0;0.6111332001164556;1605.1017589000985;None;1606.6017424999736;None;['7'];[0.27911659982055426];1606.6017424999736;None;;;;;;;Emoconpilot028;2021_Nov_24_1636;BackwardMask;2020.2.8;119.97787630223078;
;m;004_o_m_s_a.jpg;sad;7;8;m;008_y_m_h_a.jpg;happy;incongruent;9;match;;130;150;;18;193;block2_Pilot_2;4;s_h;s_h_strong;;;;;0;1;1;1;0;41;41;41;;;;;;;;;1609.60193109978;None;1611.2189682000317;1611.511161699891;1611.511161699891;1611.661056799814;1611.661056799814;1611.7019233000465;1611.7019233000465;None;7;0;0.5867832000367343;1611.7019233000465;None;1613.2020700997673;None;['7'];[0.32673220010474324];1613.2020700997673;None;;;;;;;Emoconpilot028;2021_Nov_24_1636;BackwardMask;2020.2.8;119.97787630223078;
;f;012_o_f_h_a.jpg;happy;9;4;m;004_o_m_s_a.jpg;sad;incongruent;7;mismatch;;120;160;;3;198;block2_Pilot_2;12;h_s;h_s_weak;;;;;0;1;1;1;0;42;42;42;;;;;;;;;1616.2020874000154;None;1617.860219599679;1618.153089699801;1618.153089699801;1618.1781143997796;1618.1781143997796;1618.218888099771;1618.218888099771;None;9;0;0.6139036999084055;1618.218888099771;None;1619.7187353000045;None;['7'];[0.34612710028886795];1619.7187353000045;None;;;;;;;Emoconpilot028;2021_Nov_24_1636;BackwardMask;2020.2.8;119.97787630223078;
;f;012_o_f_n_a.jpg;neutral;8;8;m;008_y_m_s_a.jpg;sad;incongruent;7;mismatch;;140;160;;1;238;block2_Pilot_2;12;n_s;n_s_strong;;;;;0;1;1;1;0;43;43;43;;;;;;;;;1622.719650699757;None;1624.7231024997309;1625.0121160997078;1625.0121160997078;1625.019761600066;1625.019761600066;1625.0605293000117;1625.0605293000117;None;None;0;;1625.0605293000117;None;1626.5606941999868;None;['9'];[0.32013999996706843];1626.5606941999868;None;;;;;;;Emoconpilot028;2021_Nov_24_1636;BackwardMask;2020.2.8;119.97787630223078;
;f;040_y_f_n_a.jpg;neutral;8;8;m;008_y_m_n_a.jpg;neutral;congruent;8;mismatch;;140;170;;3;165;block2_Pilot_2;40;n_n;n_n_weak;;;;;0;1;1;1;0;44;44;44;;;;;;;;;1629.5606005000882;None;1630.9551383997314;1631.245484400075;1631.245484400075;1631.2698268997483;1631.2698268997483;1631.31064039981;1631.31064039981;None;8;1;0.4661031998693943;1631.31064039981;None;1632.810714900028;None;['7'];[0.29418079974129796];1632.810714900028;None;;;;;;;Emoconpilot028;2021_Nov_24_1636;BackwardMask;2020.2.8;119.97787630223078;
;f;028_y_f_h_a.jpg;happy;9;33;m;033_o_m_n_a.jpg;neutral;incongruent;8;mismatch;;120;170;;1;238;block2_Pilot_2;28;h_n;h_n_strong;;;;;0;1;1;1;0;45;45;45;;;;;;;;;1635.8118289997801;None;1637.8071254999377;1638.103577400092;1638.103577400092;1638.1116341999732;1638.1116341999732;1638.1524902000092;1638.1524902000092;None;None;0;;1638.1524902000092;None;1639.6525002000853;None;['9'];[0.4363913000561297];1639.6525002000853;None;;;;;;;Emoconpilot028;2021_Nov_24_1636;BackwardMask;2020.2.8;119.97787630223078;
;m;027_o_m_s_a.jpg;sad;7;19;f;019_m_f_n_a.jpg;neutral;incongruent;8;mismatch;;130;170;;2;236;block2_Pilot_2;27;s_n;s_n_weak;;;;;0;1;1;1;0;46;46;46;;;;;;;;;1642.6526784999296;None;1644.627371800132;1644.9202891997993;1644.9202891997993;1644.9368019998074;1644.9368019998074;1644.977656299714;1644.977656299714;None;8;1;0.5432224003598094;1644.977656299714;None;1646.4777802000754;None;['7'];[0.2510534003376961];1646.4777802000754;None;;;;;;;Emoconpilot028;2021_Nov_24_1636;BackwardMask;2020.2.8;119.97787630223078;
;m;027_o_m_h_a.jpg;happy;9;19;f;019_m_f_s_a.jpg;sad;incongruent;7;mismatch;;120;160;;1;238;block2_Pilot_2;27;h_s;h_s_strong;;;;;0;1;1;1;0;47;47;47;;;;;;;;;1649.4785262998194;None;1651.5009292000905;1651.7959726001136;1651.7959726001136;1651.8035192997195;1651.8035192997195;1651.8443662999198;1651.8443662999198;None;None;0;;1651.8443662999198;None;1653.344328999985;None;['9'];[0.3605737001635134];1653.344328999985;None;;;;;;;Emoconpilot028;2021_Nov_24_1636;BackwardMask;2020.2.8;119.97787630223078;
;m;016_y_m_h_a.jpg;happy;9;4;m;004_o_m_s_a.jpg;sad;incongruent;7;match;;120;160;;3;227;block2_Pilot_2;16;h_s;h_s_strong;;;;;0;1;1;1;0;48;48;48;;;;;;;;;1656.3444765000604;None;1658.2440447998233;1658.5373259996995;1658.5373259996995;1658.5620679999702;1658.5620679999702;1658.602836200036;1658.602836200036;None;9;0;0.5819502999074757;1658.602836200036;None;1660.1029282999225;None;['7'];[0.38592700008302927];1660.1029282999225;None;;;;;;;Emoconpilot028;2021_Nov_24_1636;BackwardMask;2020.2.8;119.97787630223078;
;f;040_y_f_h_a.jpg;happy;9;13;m;013_y_m_h_a.jpg;happy;congruent;9;mismatch;;120;150;;3;165;block2_Pilot_2;40;h_h;h_h_strong;;;;;0;1;1;1;0;49;49;49;;;;;;;;;1663.1032068999484;None;1664.48552080011;1664.7791708000004;1664.7791708000004;1664.8036605999805;1664.8036605999805;1664.844800000079;1664.844800000079;None;9;1;0.539994299877435;1664.844800000079;None;1666.3446577996947;None;['7'];[0.3200201001018286];1666.3446577996947;None;;;;;;;Emoconpilot028;2021_Nov_24_1636;BackwardMask;2020.2.8;119.97787630223078;
;m;033_o_m_s_a.jpg;sad;7;28;f;028_y_f_n_a.jpg;neutral;incongruent;8;mismatch;;130;170;;2;227;block2_Pilot_2;33;s_n;s_n_weak;;;;;0;1;1;1;0;50;50;50;;;;;;;;;1669.3451367998496;None;1671.243117599748;1671.537742299959;1671.537742299959;1671.5539139998145;1671.5539139998145;1671.59480529977;1671.59480529977;None;8;1;0.8140747002325952;1671.59480529977;None;1673.0948883998208;None;['7'];[0.37014489993453026];1673.0948883998208;None;;;;;;;Emoconpilot028;2021_Nov_24_1636;BackwardMask;2020.2.8;119.97787630223078;
;f;019_m_f_s_a.jpg;sad;7;27;m;027_o_m_h_a.jpg;happy;incongruent;9;mismatch;;130;150;;1;238;block2_Pilot_2;19;s_h;s_h_weak;;;;;0;1;1;1;0;51;51;51;;;;;;;;;1676.095061100088;None;1678.1001908998005;1678.3963568001054;1678.3963568001054;1678.4042307999916;1678.4042307999916;1678.4449634999037;1678.4449634999037;None;None;0;;1678.4449634999037;None;1679.94497999968;None;['9'];[0.3118694997392595];1679.94497999968;None;;;;;;;Emoconpilot028;2021_Nov_24_1636;BackwardMask;2020.2.8;119.97787630223078;
;m;016_y_m_h_a.jpg;happy;9;19;f;019_m_f_n_a.jpg;neutral;incongruent;8;mismatch;;120;170;;18;238;block2_Pilot_2;16;h_n;h_n_strong;;;;;0;1;1;1;0;52;52;52;;;;;;;;;1682.9458947000094;None;1684.9364640000276;1685.2295026998036;1685.2295026998036;1685.3791919997893;1685.3791919997893;1685.4199919998646;1685.4199919998646;None;9;0;0.5088174999691546;1685.4199919998646;None;1686.9205553997308;None;['7'];[0.29611509991809726];1686.9205553997308;None;;;;;;;Emoconpilot028;2021_Nov_24_1636;BackwardMask;2020.2.8;119.97787630223078;
;f;021_o_f_s_a.jpg;sad;7;8;m;008_y_m_n_a.jpg;neutral;incongruent;8;mismatch;;130;170;;1;238;block2_Pilot_2;21;s_n;s_n_strong;;;;;0;1;1;1;0;53;53;53;;;;;;;;;1689.921077599749;None;1691.9096782999113;1692.204370399937;1692.204370399937;1692.2128802998923;1692.2128802998923;1692.2536412999034;1692.2536412999034;None;None;0;;1692.2536412999034;None;1693.7535103997216;None;['9'];[0.43142429972067475];1693.7535103997216;None;;;;;;;Emoconpilot028;2021_Nov_24_1636;BackwardMask;2020.2.8;119.97787630223078;
;f;012_o_f_s_a.jpg;sad;7;33;m;033_o_m_s_a.jpg;sad;congruent;7;mismatch;;130;160;;2;148;block2_Pilot_2;12;s_s;s_s_weak;;;;;0;1;1;1;0;54;54;54;;;;;;;;;1696.754126300104;None;1697.9898184998892;1698.2879634997807;1698.2879634997807;1698.3044181996956;1698.3044181996956;1698.3453631997108;1698.3453631997108;None;8;0;0.5754728000611067;1698.3453631997108;None;1699.8454136997461;None;['7'];[0.2752793002873659];1699.8454136997461;None;;;;;;;Emoconpilot028;2021_Nov_24_1636;BackwardMask;2020.2.8;119.97787630223078;
;f;030_o_f_s_a.jpg;sad;7;40;f;040_y_f_s_a.jpg;sad;congruent;7;match;;130;160;;3;136;block2_Pilot_2;30;s_s;s_s_strong;;;;;0;1;1;1;0;55;55;55;;;;;;;;;1702.8459644000977;None;1704.0088860001415;1704.3051388999447;1704.3051388999447;1704.3296370999888;1704.3296370999888;1704.3707214999013;1704.3707214999013;None;8;0;0.6221595997922122;1704.3707214999013;None;1705.8707280997187;None;['7'];[0.31400199979543686];1705.8707280997187;None;;;;;;;Emoconpilot028;2021_Nov_24_1636;BackwardMask;2020.2.8;119.97787630223078;
;m;027_o_m_s_a.jpg;sad;7;28;f;028_y_f_h_a.jpg;happy;incongruent;9;mismatch;;130;150;;1;238;block2_Pilot_2;27;s_h;s_h_weak;;;;;0;1;1;1;0;56;56;56;;;;;;;;;1708.8717273999937;None;1710.8622066001408;1711.1549541000277;1711.1549541000277;1711.163111299742;1711.163111299742;1711.203879899811;1711.203879899811;None;None;0;;1711.203879899811;None;1712.704140899703;None;['9'];[0.36077790008857846];1712.704140899703;None;;;;;;;Emoconpilot028;2021_Nov_24_1636;BackwardMask;2020.2.8;119.97787630223078;
;m;004_o_m_n_a.jpg;neutral;8;8;m;008_y_m_s_a.jpg;sad;incongruent;7;match;;140;160;;3;225;block2_Pilot_2;4;n_s;n_s_strong;;;;;0;1;1;1;0;57;57;57;;;;;;;;;1715.7051756000146;None;1717.6130677997135;1717.9056135998107;1717.9056135998107;1717.9299872997217;1717.9299872997217;1717.9708187999204;1717.9708187999204;None;8;0;0.5179464002139866;1717.9708187999204;None;1719.4709280999377;None;['7'];[0.409916200209409];1719.4709280999377;None;;;;;;;Emoconpilot028;2021_Nov_24_1636;BackwardMask;2020.2.8;119.97787630223078;
;f;012_o_f_s_a.jpg;sad;7;40;f;040_y_f_s_a.jpg;sad;congruent;7;match;;130;160;;1;238;block2_Pilot_2;12;s_s;s_s_strong;;;;;0;1;1;1;0;58;58;58;;;;;;;;;1722.4724837001413;None;1724.4574053999968;1724.7551901000552;1724.7551901000552;1724.7632137998007;1724.7632137998007;1724.8043037001044;1724.8043037001044;None;None;0;;1724.8043037001044;None;1726.3051732000895;None;['9'];[0.28761740028858185];1726.3051732000895;None;;;;;;;Emoconpilot028;2021_Nov_24_1636;BackwardMask;2020.2.8;119.97787630223078;
;f;021_o_f_h_a.jpg;happy;9;4;m;004_o_m_n_a.jpg;neutral;incongruent;8;mismatch;;120;170;;1;238;block2_Pilot_2;21;h_n;h_n_weak;;;;;0;1;1;1;0;59;59;59;;;;;;;;;1729.30537369987;None;1731.3088221997023;1731.597620499786;1731.597620499786;1731.6053190999664;1731.6053190999664;1731.6460914998315;1731.6460914998315;None;None;0;;1731.6460914998315;None;1733.1462463997304;None;['9'];[0.38249089987948537];1733.1462463997304;None;;;;;;;Emoconpilot028;2021_Nov_24_1636;BackwardMask;2020.2.8;119.97787630223078;
;f;040_y_f_h_a.jpg;happy;9;16;m;016_y_m_n_a.jpg;neutral;incongruent;8;mismatch;;120;170;;2;154;block2_Pilot_2;40;h_n;h_n_weak;;;;;0;1;1;1;0;60;60;60;;;;;;;;;1736.1471023997292;None;1737.437327499967;1737.730795999989;1737.730795999989;1737.7470963997766;1737.7470963997766;1737.7877997998148;1737.7877997998148;None;9;0;0.6290695001371205;1737.7877997998148;None;1739.2878521997482;None;['7'];[0.34492990002036095];1739.2878521997482;None;;;;;;;Emoconpilot028;2021_Nov_24_1636;BackwardMask;2020.2.8;119.97787630223078;
;m;008_y_m_n_a.jpg;neutral;8;4;m;004_o_m_s_a.jpg;sad;incongruent;7;match;;140;160;;18;145;block2_Pilot_2;8;n_s;n_s_strong;;;;;0;1;1;1;0;61;61;61;;;;;;;;;1742.2895482000895;None;1743.5178900999017;1743.8143365001306;1743.8143365001306;1743.9637869000435;1743.9637869000435;1744.0045945998281;1744.0045945998281;None;8;0;0.6521381000056863;1744.0045945998281;None;1745.5048282998614;None;['7'];[0.5520170000381768];1745.5048282998614;None;;;;;;;Emoconpilot028;2021_Nov_24_1636;BackwardMask;2020.2.8;119.97787630223078;
;f;021_o_f_s_a.jpg;sad;7;33;m;033_o_m_h_a.jpg;happy;incongruent;9;mismatch;;130;150;;1;238;block2_Pilot_2;21;s_h;s_h_strong;;;;;0;1;1;1;0;62;62;62;;;;;;;;;1748.5058212000877;None;1750.4941078000702;1750.7890006001107;1750.7890006001107;1750.7973492001183;1750.7973492001183;1750.8382043996826;1750.8382043996826;None;None;0;;1750.8382043996826;None;1752.3381042000838;None;['9'];[0.37480759993195534];1752.3381042000838;None;;;;;;;Emoconpilot028;2021_Nov_24_1636;BackwardMask;2020.2.8;119.97787630223078;
;m;033_o_m_n_a.jpg;neutral;8;30;f;030_o_f_h_a.jpg;happy;incongruent;9;mismatch;;140;150;;18;171;block2_Pilot_2;33;n_h;n_h_weak;;;;;0;1;1;1;0;63;63;63;;;;;;;;;1755.3391156997532;None;1756.7840908998623;1757.0731282997876;1757.0731282997876;1757.2224191999994;1757.2224191999994;1757.263301699888;1757.263301699888;None;8;0;0.4175996999256313;1757.263301699888;None;1758.7633485998958;None;['7'];[0.2935148999094963];1758.7633485998958;None;;;;;;;Emoconpilot028;2021_Nov_24_1636;BackwardMask;2020.2.8;119.97787630223078;
;m;027_o_m_n_a.jpg;neutral;8;27;m;027_o_m_h_a.jpg;happy;incongruent;9;match;;140;150;;2;164;block2_Pilot_2;27;n_h;n_h_weak;;;;;0;1;1;1;0;64;64;64;;;;;;;;;1761.7642430998385;None;1763.1488751000725;1763.4398607998155;1763.4398607998155;1763.4558791001327;1763.4558791001327;1763.4968272997066;1763.4968272997066;None;8;0;0.5678924000822008;1763.4968272997066;None;1764.99667100003;None;['7'];[0.4283080003224313];1764.99667100003;None;;;;;;;Emoconpilot028;2021_Nov_24_1636;BackwardMask;2020.2.8;119.97787630223078;
;m;008_y_m_n_a.jpg;neutral;8;40;f;040_y_f_n_a.jpg;neutral;congruent;8;mismatch;;140;170;;1;238;block2_Pilot_2;8;n_n;n_n_strong;;;;;0;1;1;1;0;65;65;65;;;;;;;;;1767.9973605000414;None;1770.0079638999887;1770.2982449997216;1770.2982449997216;1770.3061124999076;1770.3061124999076;1770.3467661999166;1770.3467661999166;None;8;1;0.5899239000864327;1770.3467661999166;None;1771.8467860999517;None;['7'];[0.3301802999339998];1771.8467860999517;None;;;;;;;Emoconpilot028;2021_Nov_24_1636;BackwardMask;2020.2.8;119.97787630223078;
;f;040_y_f_h_a.jpg;happy;9;21;f;021_o_f_n_a.jpg;neutral;incongruent;8;match;;120;170;;18;239;block2_Pilot_2;40;h_n;h_n_strong;;;;;0;1;1;1;0;66;66;66;;;;;;;;;1774.84799799975;None;1776.8475158000365;1777.1396540999413;1777.1396540999413;1777.289344099816;1777.289344099816;1777.3303732001223;1777.3303732001223;None;9;0;0.4224199000746012;1777.3303732001223;None;1778.8302587000653;None;['7'];[0.33064919989556074];1778.8302587000653;None;;;;;;;Emoconpilot028;2021_Nov_24_1636;BackwardMask;2020.2.8;119.97787630223078;
;f;021_o_f_s_a.jpg;sad;7;28;f;028_y_f_h_a.jpg;happy;incongruent;9;match;;130;150;;1;238;block2_Pilot_2;21;s_h;s_h_weak;;;;;0;1;1;1;0;67;67;67;;;;;;;;;1781.8306561000645;None;1783.8202023999766;1784.1147920996882;1784.1147920996882;1784.1231192001142;1784.1231192001142;1784.1639058999717;1784.1639058999717;None;None;0;;1784.1639058999717;None;1785.6640083999373;None;['9'];[0.3286819001659751];1785.6640083999373;None;;;;;;;Emoconpilot028;2021_Nov_24_1636;BackwardMask;2020.2.8;119.97787630223078;
;f;021_o_f_n_a.jpg;neutral;8;30;f;030_o_f_n_a.jpg;neutral;congruent;8;match;;140;170;;2;209;block2_Pilot_2;21;n_n;n_n_strong;;;;;0;1;1;1;0;68;68;68;;;;;;;;;1788.6644611000083;None;1790.4623167999089;1790.7573334998451;1790.7573334998451;1790.773148899898;1790.773148899898;1790.814071000088;1790.814071000088;None;8;1;0.642760300077498;1790.814071000088;None;1792.31397859985;None;['7'];[0.6628833003342152];1792.31397859985;None;;;;;;;Emoconpilot028;2021_Nov_24_1636;BackwardMask;2020.2.8;119.97787630223078;
;f;040_y_f_s_a.jpg;sad;7;13;m;013_y_m_s_a.jpg;sad;congruent;7;mismatch;;130;160;;3;147;block2_Pilot_2;40;s_s;s_s_strong;;;;;0;1;1;1;0;69;69;69;;;;;;;;;1795.3148268000223;None;1796.5470672999509;1796.840190900024;1796.840190900024;1796.8650031997822;1796.8650031997822;1796.905728599988;1796.905728599988;None;8;0;0.5351315001025796;1796.905728599988;None;1798.4057252998464;None;['7'];[0.5469905999489129];1798.4057252998464;None;;;;;;;Emoconpilot028;2021_Nov_24_1636;BackwardMask;2020.2.8;119.97787630223078;
