Person;primeGender;prime;primeEmotion;corrAnsPrime;targetPerson;targetGender;target;targetEmotion;Cond;corrAnsTar;gender;condition;ID_primer;ID_target;PrimerTime;PrimerTime120;JitterTime;conditionsFile;primePerson;emotion_condition;Condition;example.thisRepN;example.thisTrialN;example.thisN;example.thisIndex;readinBlocks.thisRepN;readinBlocks.thisTrialN;readinBlocks.thisN;readinBlocks.thisIndex;trials.thisRepN;trials.thisTrialN;trials.thisN;trials.thisIndex;text_intro.started;text_intro.stopped;text_probe.started;text_probe.stopped;key_resp_2.keys;key_resp_2.rt;key_resp_2.started;key_resp_2.stopped;polygon_ISI.started;polygon_ISI.stopped;polygon.started;polygon.stopped;primerImage.started;primerImage.stopped;maskImage.started;maskImage.stopped;response.started;response.stopped;key_resp.keys;key_resp.corr;key_resp.started;key_resp.stopped;text.started;text.stopped;key_resp_Rating.keys;key_resp_Rating.started;key_resp_Rating.stopped;key_resp.rt;key_resp_Rating.rt;text_start.started;text_start.stopped;text_pause.started;text_pause.stopped;text_ende.started;text_ende.stopped;participant;date;expName;psychopyVersion;frameRate;
;;;;;;;;;;;;;;;;;;;;;;;;;;;;;;;;;;116.5211316999048;121.48706299997866;121.48706299997866;None;7;19.58289560000412;116.5211316999048;None;;;;;;;;;;;;;;;;;;;;;;;;;;;;Emoconpilot025;2021_Oct_19_1106;BackwardMask;2020.2.8;120.05335150070697;
2;f;1113_y_f_s_a.jpg;sad;7;1;m;1111_m_m_h_a.jpg;happy;incongruent;9;mix;s+h;130;150;1;2;148;;;;;0;0;0;0;;;;;;;;;;;;;;;;;136.191142299911;None;137.4443007998634;137.7617706998717;137.7617706998717;137.77885659993626;137.77885659993626;137.81195400003344;137.81195400003344;None;None;0;137.81195400003344;None;139.31321089994162;None;None;139.31321089994162;None;;;;;;;;;Emoconpilot025;2021_Oct_19_1106;BackwardMask;2020.2.8;120.05335150070697;
2;f;1111_m_m_h_a.jpg;happy;9;3;f;1113_y_f_s_a.jpg;sad;incongruent;7;mix;h+s;120;160;9;18;195;;;;;0;1;1;1;;;;;;;;;;;;;;;;;142.3128682000097;None;143.96547259995714;144.25483420002274;144.25483420002274;144.4044538999442;144.4044538999442;144.4453579999972;144.4453579999972;None;9;0;144.4453579999972;None;145.94529219996184;None;"['7', '7']";145.94529219996184;None;1.2266541998833418;"[0.9347411999478936, 2.9186240998096764]";;;;;;;Emoconpilot025;2021_Oct_19_1106;BackwardMask;2020.2.8;120.05335150070697;
2;f;1112_m_f_n_a.jpg;neutral;8;2;f;1112_m_f_n_a.jpg;neutral;congruent;8;match;n+n;140;170;9;18;134;;;;;0;2;2;2;;;;;;;;;;;;;;;;;148.9460473000072;None;150.09180609998293;150.3885589998681;150.3885589998681;150.5378711000085;150.5378711000085;150.57882479997352;150.57882479997352;None;8;1;150.57882479997352;None;152.0787029999774;None;"['8', '7']";152.0787029999774;None;0.13312200014479458;"[0.09718489996157587, 0.8011515000835061]";;;;;;;Emoconpilot025;2021_Oct_19_1106;BackwardMask;2020.2.8;120.05335150070697;
;m;033_o_m_h_a.jpg;happy;9;30;f;030_o_f_n_a.jpg;neutral;incongruent;8;mismatch;;120;170;;18;238;block1_Pilot_2;33;h_n;h_n_strong;;;;;0;0;0;0;0;0;0;0;;;;;;;;;156.12384080002084;None;158.11722950008698;158.41316889994778;158.41316889994778;158.56282039987855;158.56282039987855;158.60380630008876;158.60380630008876;None;9;0;158.60380630008876;None;160.10453639994375;None;['7'];160.10453639994375;None;1.1882257999386638;[1.0634951998945326];155.0795292998664;None;None;None;;;Emoconpilot025;2021_Oct_19_1106;BackwardMask;2020.2.8;120.05335150070697;
;m;004_o_m_h_a.jpg;happy;9;12;f;012_o_f_h_a.jpg;happy;congruent;9;mismatch;;120;150;;2;218;block1_Pilot_2;4;h_h;h_h_weak;;;;;0;0;0;0;0;1;1;1;;;;;;;;;163.1054746999871;None;164.9579853999894;165.24704229994677;165.24704229994677;165.2630958999507;165.2630958999507;165.30396430008113;165.30396430008113;None;None;0;165.30396430008113;None;166.80416859989055;None;"['9', '7']";166.80416859989055;None;;"[0.08360680006444454, 0.5716760999057442]";;;;;;;Emoconpilot025;2021_Oct_19_1106;BackwardMask;2020.2.8;120.05335150070697;
;f;012_o_f_h_a.jpg;happy;9;33;m;033_o_m_h_a.jpg;happy;congruent;9;mismatch;;120;150;;2;140;block1_Pilot_2;12;h_h;h_h_weak;;;;;0;0;0;0;0;2;2;2;;;;;;;;;169.8049081999343;None;170.98809410003014;171.28013910003938;171.28013910003938;171.29660109989345;171.29660109989345;171.33745420002379;171.33745420002379;None;9;1;171.33745420002379;None;172.83749100007117;None;['7'];172.83749100007117;None;1.3102814999874681;[0.45046919980086386];;;;;;;Emoconpilot025;2021_Oct_19_1106;BackwardMask;2020.2.8;120.05335150070697;
;f;040_y_f_n_a.jpg;neutral;8;40;f;040_y_f_h_a.jpg;happy;incongruent;9;match;;140;150;;2;192;block1_Pilot_2;40;n_h;n_h_weak;;;;;0;0;0;0;0;3;3;3;;;;;;;;;175.83851150004193;None;177.4651840000879;177.7555801998824;177.7555801998824;177.77178439986892;177.77178439986892;177.8125452999957;177.8125452999957;None;8;0;177.8125452999957;None;179.31260309997015;None;['8'];179.31260309997015;None;1.3632204001769423;[1.5272462000139058];;;;;;;Emoconpilot025;2021_Oct_19_1106;BackwardMask;2020.2.8;120.05335150070697;
;m;013_y_m_s_a.jpg;sad;7;16;m;016_y_m_n_a.jpg;neutral;incongruent;8;match;;130;170;;3;155;block1_Pilot_2;13;s_n;s_n_weak;;;;;0;0;0;0;0;4;4;4;;;;;;;;;182.31275809998624;None;183.6210163999349;183.91365280002356;183.91365280002356;183.93866420001723;183.93866420001723;183.97940089995973;183.97940089995973;None;8;1;183.97940089995973;None;185.47948860004544;None;['7'];185.47948860004544;None;0.8447048000525683;[1.2164563999976963];;;;;;;Emoconpilot025;2021_Oct_19_1106;BackwardMask;2020.2.8;120.05335150070697;
;f;012_o_f_h_a.jpg;happy;9;21;f;021_o_f_h_a.jpg;happy;congruent;9;match;;120;150;;2;216;block1_Pilot_2;12;h_h;h_h_strong;;;;;0;0;0;0;0;5;5;5;;;;;;;;;188.47963299998082;None;190.28750149998814;190.58056849986315;190.58056849986315;190.59713610005565;190.59713610005565;190.63781440001912;190.63781440001912;None;9;1;190.63781440001912;None;192.1380254998803;None;['7'];192.1380254998803;None;0.9621371000539511;[1.453727399930358];;;;;;;Emoconpilot025;2021_Oct_19_1106;BackwardMask;2020.2.8;120.05335150070697;
;f;040_y_f_s_a.jpg;sad;7;40;f;040_y_f_h_a.jpg;happy;incongruent;9;match;;130;150;;1;238;block1_Pilot_2;40;s_h;s_h_weak;;;;;0;0;0;0;0;6;6;6;;;;;;;;;195.13878869987093;None;197.1360025999602;197.43067519995384;197.43067519995384;197.43881369987503;197.43881369987503;197.47964560007676;197.47964560007676;None;None;0;197.47964560007676;None;198.9797614000272;None;['9'];198.9797614000272;None;;[1.708175899926573];;;;;;;Emoconpilot025;2021_Oct_19_1106;BackwardMask;2020.2.8;120.05335150070697;
;m;033_o_m_n_a.jpg;neutral;8;27;m;027_o_m_n_a.jpg;neutral;congruent;8;match;;140;170;;18;238;block1_Pilot_2;33;n_n;n_n_weak;;;;;0;0;0;0;0;7;7;7;;;;;;;;;201.97984949988313;None;203.99141820007935;204.2814100999385;204.2814100999385;204.43050400004722;204.43050400004722;204.47141989995725;204.47141989995725;None;None;0;204.47141989995725;None;205.97150640003383;None;['8'];205.97150640003383;None;;[1.6921934999991208];;;;;;;Emoconpilot025;2021_Oct_19_1106;BackwardMask;2020.2.8;120.05335150070697;
;f;040_y_f_h_a.jpg;happy;9;19;f;019_m_f_n_a.jpg;neutral;incongruent;8;match;;120;170;;1;238;block1_Pilot_2;40;h_n;h_n_strong;;;;;0;0;0;0;0;8;8;8;;;;;;;;;208.97171849990264;None;210.97076909989119;211.26419460005127;211.26419460005127;211.27253869990818;211.27253869990818;211.313398799859;211.313398799859;None;None;0;211.313398799859;None;212.81324689998291;None;['9'];212.81324689998291;None;;[1.6425771000795066];;;;;;;Emoconpilot025;2021_Oct_19_1106;BackwardMask;2020.2.8;120.05335150070697;
;m;013_y_m_h_a.jpg;happy;9;12;f;012_o_f_s_a.jpg;sad;incongruent;7;mismatch;;120;160;;3;198;block1_Pilot_2;13;h_s;h_s_weak;;;;;0;0;0;0;0;9;9;9;;;;;;;;;215.81400880008005;None;217.5053480998613;217.79817939992063;217.79817939992063;217.82265449990518;217.82265449990518;217.86343450006098;217.86343450006098;None;9;0;217.86343450006098;None;219.36342759989202;None;['7'];219.36342759989202;None;0.9446447999216616;[0.34057860006578267];;;;;;;Emoconpilot025;2021_Oct_19_1106;BackwardMask;2020.2.8;120.05335150070697;
;m;008_y_m_h_a.jpg;happy;9;4;m;004_o_m_n_a.jpg;neutral;incongruent;8;match;;120;170;;18;150;block1_Pilot_2;8;h_n;h_n_strong;;;;;0;0;0;0;0;10;10;10;;;;;;;;;222.36433489993215;None;223.62830449989997;223.9228936000727;223.9228936000727;224.07285250001587;224.07285250001587;224.1137369000353;224.1137369000353;None;9;0;224.1137369000353;None;225.6135096999351;None;['7'];225.6135096999351;None;0.766212500166148;[0.29049689997918904];;;;;;;Emoconpilot025;2021_Oct_19_1106;BackwardMask;2020.2.8;120.05335150070697;
;f;019_m_f_h_a.jpg;happy;9;27;m;027_o_m_s_a.jpg;sad;incongruent;7;mismatch;;120;160;;1;238;block1_Pilot_2;19;h_s;h_s_weak;;;;;0;0;0;0;0;11;11;11;;;;;;;;;228.61380639998242;None;230.61295660003088;230.9068976000417;230.9068976000417;230.91447780001909;230.91447780001909;230.9552925999742;230.9552925999742;None;None;0;230.9552925999742;None;232.45552419987507;None;"['8', '8']";232.45552419987507;None;;"[0.3444581001531333, 1.160417600069195]";;;;;;;Emoconpilot025;2021_Oct_19_1106;BackwardMask;2020.2.8;120.05335150070697;
;m;016_y_m_s_a.jpg;sad;7;4;m;004_o_m_s_a.jpg;sad;congruent;7;match;;130;160;;18;142;block1_Pilot_2;16;s_s;s_s_strong;;;;;0;0;0;0;0;12;12;12;;;;;;;;;235.4554838000331;None;236.6537418998778;236.9480629998725;236.9480629998725;237.09793510008603;237.09793510008603;237.1388715999201;237.1388715999201;None;7;1;237.1388715999201;None;238.63885229988955;None;['7'];238.63885229988955;None;0.956901399884373;[0.38510229997336864];;;;;;;Emoconpilot025;2021_Oct_19_1106;BackwardMask;2020.2.8;120.05335150070697;
;f;021_o_f_n_a.jpg;neutral;8;21;f;021_o_f_h_a.jpg;happy;incongruent;9;match;;140;150;;3;171;block1_Pilot_2;21;n_h;n_h_weak;;;;;0;0;0;0;0;13;13;13;;;;;;;;;241.6391747999005;None;243.09967450005934;243.39032940007746;243.39032940007746;243.41481500002556;243.41481500002556;243.45570919988677;243.45570919988677;None;8;0;243.45570919988677;None;244.9559724999126;None;['7'];244.9559724999126;None;0.8000485999509692;[0.4117801000829786];;;;;;;Emoconpilot025;2021_Oct_19_1106;BackwardMask;2020.2.8;120.05335150070697;
;f;012_o_f_h_a.jpg;happy;9;13;m;013_y_m_h_a.jpg;happy;congruent;9;mismatch;;120;150;;3;213;block1_Pilot_2;12;h_h;h_h_weak;;;;;0;0;0;0;0;14;14;14;;;;;;;;;247.95669670007192;None;249.73882539989427;250.03168060001917;250.03168060001917;250.0566410999745;250.0566410999745;250.09727209992707;250.09727209992707;None;9;1;250.09727209992707;None;251.59748149989173;None;['7'];251.59748149989173;None;0.734655600041151;[0.37826530006714165];;;;;;;Emoconpilot025;2021_Oct_19_1106;BackwardMask;2020.2.8;120.05335150070697;
;f;021_o_f_s_a.jpg;sad;7;27;m;027_o_m_n_a.jpg;neutral;incongruent;8;mismatch;;130;170;;3;174;block1_Pilot_2;21;s_n;s_n_weak;;;;;0;0;0;0;0;15;15;15;;;;;;;;;254.59859220008366;None;256.0604431000538;256.3568515998777;256.3568515998777;256.38154199998826;256.38154199998826;256.42254239995964;256.42254239995964;None;9;0;256.42254239995964;None;257.92253770004027;None;['7'];257.92253770004027;None;0.7613933000247926;[0.46147139999084175];;;;;;;Emoconpilot025;2021_Oct_19_1106;BackwardMask;2020.2.8;120.05335150070697;
;f;019_m_f_n_a.jpg;neutral;8;19;f;019_m_f_h_a.jpg;happy;incongruent;9;match;;140;150;;3;238;block1_Pilot_2;19;n_h;n_h_weak;;;;;0;0;0;0;0;16;16;16;;;;;;;;;260.92276609991677;None;262.9635230000131;263.2575441999361;263.2575441999361;263.2816858999431;263.2816858999431;263.32280669989996;263.32280669989996;None;8;0;263.32280669989996;None;264.8227142000105;None;['7'];264.8227142000105;None;0.6451942999847233;[0.4252349999733269];;;;;;;Emoconpilot025;2021_Oct_19_1106;BackwardMask;2020.2.8;120.05335150070697;
;f;028_y_f_n_a.jpg;neutral;8;30;f;030_o_f_s_a.jpg;sad;incongruent;7;match;;140;160;;18;219;block1_Pilot_2;28;n_s;n_s_weak;;;;;0;0;0;0;0;17;17;17;;;;;;;;;267.8227418998722;None;269.6751411999576;269.96594220004044;269.96594220004044;270.1154225000646;270.1154225000646;270.15607749996707;270.15607749996707;None;8;0;270.15607749996707;None;271.65623249998316;None;['7'];271.65623249998316;None;0.6359798999037594;[0.4237391999922693];;;;;;;Emoconpilot025;2021_Oct_19_1106;BackwardMask;2020.2.8;120.05335150070697;
;m;008_y_m_h_a.jpg;happy;9;8;m;008_y_m_s_a.jpg;sad;incongruent;7;match;;120;160;;3;176;block1_Pilot_2;8;h_s;h_s_weak;;;;;0;0;0;0;0;18;18;18;;;;;;;;;274.65715670003556;None;276.1307532999199;276.42377260001376;276.42377260001376;276.4488176999148;276.4488176999148;276.48957889992744;276.48957889992744;None;9;0;276.48957889992744;None;277.98994469991885;None;['7'];277.98994469991885;None;0.7823560000397265;[0.5379417999647558];;;;;;;Emoconpilot025;2021_Oct_19_1106;BackwardMask;2020.2.8;120.05335150070697;
;f;019_m_f_h_a.jpg;happy;9;33;m;033_o_m_n_a.jpg;neutral;incongruent;8;mismatch;;120;170;;18;136;block1_Pilot_2;19;h_n;h_n_weak;;;;;0;0;0;0;0;19;19;19;;;;;;;;;280.9904589999933;None;282.13125139987096;282.42395529989153;282.42395529989153;282.5738190000411;282.5738190000411;282.61467919987626;282.61467919987626;None;9;0;282.61467919987626;None;284.11490279994905;None;['7'];284.11490279994905;None;0.7290894999168813;[0.5410021999850869];;;;;;;Emoconpilot025;2021_Oct_19_1106;BackwardMask;2020.2.8;120.05335150070697;
;m;013_y_m_n_a.jpg;neutral;8;12;f;012_o_f_s_a.jpg;sad;incongruent;7;mismatch;;140;160;;2;132;block1_Pilot_2;13;n_s;n_s_strong;;;;;0;0;0;0;0;20;20;20;;;;;;;;;287.1159423000645;None;288.24301009997725;288.5329003999941;288.5329003999941;288.5489912999328;288.5489912999328;288.5899380000774;288.5899380000774;None;8;0;288.5899380000774;None;290.08985419990495;None;['7'];290.08985419990495;None;0.9059373000636697;[1.0298559998627752];;;;;;;Emoconpilot025;2021_Oct_19_1106;BackwardMask;2020.2.8;120.05335150070697;
;f;040_y_f_s_a.jpg;sad;7;8;m;008_y_m_h_a.jpg;happy;incongruent;9;mismatch;;130;150;;2;175;block1_Pilot_2;40;s_h;s_h_weak;;;;;0;0;0;0;0;21;21;21;;;;;;;;;293.09080319991335;None;294.5569754000753;294.849297599867;294.849297599867;294.8659049998969;294.8659049998969;294.9067736999132;294.9067736999132;None;8;0;294.9067736999132;None;296.4065926000476;None;['7'];296.4065926000476;None;0.7572052001487464;[0.48931450000964105];;;;;;;Emoconpilot025;2021_Oct_19_1106;BackwardMask;2020.2.8;120.05335150070697;
;m;004_o_m_h_a.jpg;happy;9;40;f;040_y_f_s_a.jpg;sad;incongruent;7;mismatch;;120;160;;2;193;block1_Pilot_2;4;h_s;h_s_weak;;;;;0;0;0;0;0;22;22;22;;;;;;;;;299.40787489991635;None;301.03708979999647;301.33322379994206;301.33322379994206;301.349257200025;301.349257200025;301.3900675000623;301.3900675000623;None;9;0;301.3900675000623;None;302.8901009000838;None;['7'];302.8901009000838;None;0.8179251998662949;[0.44582140003331006];;;;;;;Emoconpilot025;2021_Oct_19_1106;BackwardMask;2020.2.8;120.05335150070697;
;f;028_y_f_s_a.jpg;sad;7;13;m;013_y_m_n_a.jpg;neutral;incongruent;8;mismatch;;130;170;;2;126;block1_Pilot_2;28;s_n;s_n_weak;;;;;0;0;0;0;0;23;23;23;;;;;;;;;305.8902725998778;None;306.962120299926;307.25799630000256;307.25799630000256;307.27449969993904;307.27449969993904;307.315151900053;307.315151900053;None;9;0;307.315151900053;None;308.81526539986953;None;['8'];308.81526539986953;None;1.1249041999690235;[0.5926011002156883];;;;;;;Emoconpilot025;2021_Oct_19_1106;BackwardMask;2020.2.8;120.05335150070697;
;m;004_o_m_h_a.jpg;happy;9;40;f;040_y_f_n_a.jpg;neutral;incongruent;8;mismatch;;120;170;;3;146;block1_Pilot_2;4;h_n;h_n_strong;;;;;0;0;0;0;0;24;24;24;;;;;;;;;311.81589509989135;None;313.05907449987717;313.3501198999584;313.3501198999584;313.3745029999409;313.3745029999409;313.41526359994896;313.41526359994896;None;9;0;313.41526359994896;None;314.9151949000079;None;['7'];314.9151949000079;None;0.6805910000111908;[0.47683640010654926];;;;;;;Emoconpilot025;2021_Oct_19_1106;BackwardMask;2020.2.8;120.05335150070697;
;m;008_y_m_s_a.jpg;sad;7;30;f;030_o_f_n_a.jpg;neutral;incongruent;8;mismatch;;130;170;;3;132;block1_Pilot_2;8;s_n;s_n_strong;;;;;0;0;0;0;0;25;25;25;;;;;;;;;317.91528229997493;None;319.0423071999103;319.3335549000185;319.3335549000185;319.3579522999935;319.3579522999935;319.39881119993515;319.39881119993515;None;None;0;319.39881119993515;None;320.8988673000131;None;['7'];320.8988673000131;None;;[0.2451315000653267];;;;;;;Emoconpilot025;2021_Oct_19_1106;BackwardMask;2020.2.8;120.05335150070697;
;f;040_y_f_n_a.jpg;neutral;8;40;f;040_y_f_s_a.jpg;sad;incongruent;7;match;;140;160;;2;123;block1_Pilot_2;40;n_s;n_s_weak;;;;;0;0;0;0;0;26;26;26;;;;;;;;;323.8989693999756;None;324.9433283000253;325.2336134999059;325.2336134999059;325.2495116998907;325.2495116998907;325.2905655999202;325.2905655999202;None;8;0;325.2905655999202;None;326.7904830998741;None;['8'];326.7904830998741;None;1.1413122001104057;[0.7132776998914778];;;;;;;Emoconpilot025;2021_Oct_19_1106;BackwardMask;2020.2.8;120.05335150070697;
;f;028_y_f_s_a.jpg;sad;7;27;m;027_o_m_s_a.jpg;sad;congruent;7;mismatch;;130;160;;3;159;block1_Pilot_2;28;s_s;s_s_weak;;;;;0;0;0;0;0;27;27;27;;;;;;;;;329.79079349990934;None;331.12765759998;331.41673909989186;331.41673909989186;331.44154380005784;331.44154380005784;331.48256230005063;331.48256230005063;None;8;0;331.48256230005063;None;332.982385299867;None;['8'];332.982385299867;None;0.8771871000062674;[0.441526300041005];;;;;;;Emoconpilot025;2021_Oct_19_1106;BackwardMask;2020.2.8;120.05335150070697;
;f;012_o_f_s_a.jpg;sad;7;27;m;027_o_m_s_a.jpg;sad;congruent;7;mismatch;;130;160;;18;166;block1_Pilot_2;12;s_s;s_s_weak;;;;;0;0;0;0;0;28;28;28;;;;;;;;;335.9826541999355;None;337.3762298000511;337.66683020000346;337.66683020000346;337.8168337000534;337.8168337000534;337.85751509992406;337.85751509992406;None;7;1;337.85751509992406;None;339.3575891999062;None;['8'];339.3575891999062;None;1.2944757998920977;[0.8104409999214113];;;;;;;Emoconpilot025;2021_Oct_19_1106;BackwardMask;2020.2.8;120.05335150070697;
;f;028_y_f_n_a.jpg;neutral;8;28;f;028_y_f_h_a.jpg;happy;incongruent;9;match;;140;150;;2;186;block1_Pilot_2;28;n_h;n_h_weak;;;;;0;0;0;0;0;29;29;29;;;;;;;;;342.3575784000568;None;343.92883639992215;344.21746709989384;344.21746709989384;344.2335175999906;344.2335175999906;344.2742620999925;344.2742620999925;None;8;0;344.2742620999925;None;345.77446009987034;None;['8'];345.77446009987034;None;0.9577422000002116;[0.5615981998853385];;;;;;;Emoconpilot025;2021_Oct_19_1106;BackwardMask;2020.2.8;120.05335150070697;
;m;027_o_m_n_a.jpg;neutral;8;16;m;016_y_m_n_a.jpg;neutral;congruent;8;match;;140;170;;2;188;block1_Pilot_2;27;n_n;n_n_weak;;;;;0;0;0;0;0;30;30;30;;;;;;;;;348.77513379999436;None;350.36794879985973;350.65912980004214;350.65912980004214;350.67529859999195;350.67529859999195;350.71618300001137;350.71618300001137;None;8;1;350.71618300001137;None;352.2166750000324;None;['8'];352.2166750000324;None;0.9714313000440598;[1.103247300023213];;;;;;;Emoconpilot025;2021_Oct_19_1106;BackwardMask;2020.2.8;120.05335150070697;
;f;012_o_f_s_a.jpg;sad;7;13;m;013_y_m_n_a.jpg;neutral;incongruent;8;mismatch;;130;170;;3;162;block1_Pilot_2;12;s_n;s_n_strong;;;;;0;0;0;0;0;31;31;31;;;;;;;;;355.2169848000631;None;356.5689488998614;356.86706040007994;356.86706040007994;356.89209600002505;356.89209600002505;356.93282909994014;356.93282909994014;None;None;0;356.93282909994014;None;358.4328532998916;None;['8'];358.4328532998916;None;;[0.7190837000962347];;;;;;;Emoconpilot025;2021_Oct_19_1106;BackwardMask;2020.2.8;120.05335150070697;
;f;012_o_f_s_a.jpg;sad;7;16;m;016_y_m_h_a.jpg;happy;incongruent;9;mismatch;;130;150;;1;238;block1_Pilot_2;12;s_h;s_h_strong;;;;;0;0;0;0;0;32;32;32;;;;;;;;;361.43391099991277;None;363.4193331000861;363.7172095000278;363.7172095000278;363.7255261999089;363.7255261999089;363.7662859999109;363.7662859999109;None;None;0;363.7662859999109;None;365.26628390001133;None;['9'];365.26628390001133;None;;[0.9656857000663877];;;;;;;Emoconpilot025;2021_Oct_19_1106;BackwardMask;2020.2.8;120.05335150070697;
;f;028_y_f_n_a.jpg;neutral;8;21;f;021_o_f_n_a.jpg;neutral;congruent;8;match;;140;170;;3;220;block1_Pilot_2;28;n_n;n_n_weak;;;;;0;0;0;0;0;33;33;33;;;;;;;;;368.26794039993547;None;370.12151050008833;370.4179571000859;370.4179571000859;370.4423447998706;370.4423447998706;370.48323130002245;370.48323130002245;None;8;1;370.48323130002245;None;371.98326570005156;None;['7'];371.98326570005156;None;0.7727238000370562;[0.4087228998541832];;;;;;;Emoconpilot025;2021_Oct_19_1106;BackwardMask;2020.2.8;120.05335150070697;
;f;040_y_f_h_a.jpg;happy;9;33;m;033_o_m_s_a.jpg;sad;incongruent;7;mismatch;;120;160;;2;194;block1_Pilot_2;40;h_s;h_s_weak;;;;;0;0;0;0;0;34;34;34;;;;;;;;;374.9842324999627;None;376.6090116999112;376.9010107999202;376.9010107999202;376.9175732000731;376.9175732000731;376.9584238999523;376.9584238999523;None;9;0;376.9584238999523;None;378.45830609998666;None;['7'];378.45830609998666;None;0.7535304999910295;[0.33346290001645684];;;;;;;Emoconpilot025;2021_Oct_19_1106;BackwardMask;2020.2.8;120.05335150070697;
;f;028_y_f_h_a.jpg;happy;9;8;m;008_y_m_n_a.jpg;neutral;incongruent;8;mismatch;;120;170;;3;162;block1_Pilot_2;28;h_n;h_n_weak;;;;;0;0;0;0;0;35;35;35;;;;;;;;;381.45851260004565;None;382.8270379998721;383.1178275998682;383.1178275998682;383.14261189987883;383.14261189987883;383.1834219999146;383.1834219999146;None;9;0;383.1834219999146;None;384.68359129992314;None;['7'];384.68359129992314;None;0.7365248000714928;[0.31631290004588664];;;;;;;Emoconpilot025;2021_Oct_19_1106;BackwardMask;2020.2.8;120.05335150070697;
;m;013_y_m_n_a.jpg;neutral;8;27;m;027_o_m_n_a.jpg;neutral;congruent;8;match;;140;170;;2;126;block1_Pilot_2;13;n_n;n_n_strong;;;;;0;0;0;0;0;36;36;36;;;;;;;;;387.6838146999944;None;388.7817360998597;389.07683330005966;389.07683330005966;389.09258330008015;389.09258330008015;389.1335678000469;389.1335678000469;None;9;0;389.1335678000469;None;390.6345088998787;None;['8'];390.6345088998787;None;1.394435100024566;[0.7332016001455486];;;;;;;Emoconpilot025;2021_Oct_19_1106;BackwardMask;2020.2.8;120.05335150070697;
;f;028_y_f_s_a.jpg;sad;7;19;f;019_m_f_n_a.jpg;neutral;incongruent;8;match;;130;170;;2;156;block1_Pilot_2;28;s_n;s_n_strong;;;;;0;0;0;0;0;37;37;37;;;;;;;;;393.6347155000549;None;394.9449197000358;395.2347544999793;395.2347544999793;395.2511734999716;395.2511734999716;395.2920530999545;395.2920530999545;None;None;0;395.2920530999545;None;396.7921233000234;None;['9'];396.7921233000234;None;;[0.9277144998777658];;;;;;;Emoconpilot025;2021_Oct_19_1106;BackwardMask;2020.2.8;120.05335150070697;
;m;016_y_m_s_a.jpg;sad;7;19;f;019_m_f_n_a.jpg;neutral;incongruent;8;mismatch;;130;170;;3;138;block1_Pilot_2;16;s_n;s_n_weak;;;;;0;0;0;0;0;38;38;38;;;;;;;;;399.79277479997836;None;400.9506339998916;401.2431202000007;401.2431202000007;401.2680108998902;401.2680108998902;401.3088296998758;401.3088296998758;None;8;1;401.3088296998758;None;402.80911729997024;None;['8'];402.80911729997024;None;0.8109112998936325;[0.9029290999751538];;;;;;;Emoconpilot025;2021_Oct_19_1106;BackwardMask;2020.2.8;120.05335150070697;
;m;033_o_m_s_a.jpg;sad;7;27;m;027_o_m_n_a.jpg;neutral;incongruent;8;match;;130;170;;3;120;block1_Pilot_2;33;s_n;s_n_strong;;;;;0;0;0;0;0;39;39;39;;;;;;;;;405.80914029991254;None;406.8240284998901;407.11817079992034;407.11817079992034;407.1432759000454;407.1432759000454;407.1839959998615;407.1839959998615;None;7;0;407.1839959998615;None;408.683872200083;None;['7'];408.683872200083;None;0.8718141000717878;[0.8199420000892133];;;;;;;Emoconpilot025;2021_Oct_19_1106;BackwardMask;2020.2.8;120.05335150070697;
;f;040_y_f_s_a.jpg;sad;7;33;m;033_o_m_n_a.jpg;neutral;incongruent;8;mismatch;;130;170;;1;238;block1_Pilot_2;40;s_n;s_n_weak;;;;;0;0;0;0;0;40;40;40;;;;;;;;;411.68484900007024;None;413.6754564999137;413.9683381000068;413.9683381000068;413.9763549999334;413.9763549999334;414.01744550000876;414.01744550000876;None;None;0;414.01744550000876;None;415.51742139994167;None;['9'];415.51742139994167;None;;[0.4025081000290811];;;;;;;Emoconpilot025;2021_Oct_19_1106;BackwardMask;2020.2.8;120.05335150070697;
;f;021_o_f_n_a.jpg;neutral;8;19;f;019_m_f_s_a.jpg;sad;incongruent;7;match;;140;160;;1;238;block1_Pilot_2;21;n_s;n_s_strong;;;;;0;0;0;0;0;41;41;41;;;;;;;;;418.51842239988036;None;420.5223060999997;420.81896309996955;420.81896309996955;420.8265026998706;420.8265026998706;420.86759050004184;420.86759050004184;None;None;0;420.86759050004184;None;422.3675877000205;None;['9'];422.3675877000205;None;;[0.29628179990686476];;;;;;;Emoconpilot025;2021_Oct_19_1106;BackwardMask;2020.2.8;120.05335150070697;
;m;033_o_m_h_a.jpg;happy;9;27;m;027_o_m_h_a.jpg;happy;congruent;9;match;;120;150;;3;134;block1_Pilot_2;33;h_h;h_h_weak;;;;;0;0;0;0;0;42;42;42;;;;;;;;;425.36779460008256;None;426.4923153000418;426.78523660008796;426.78523660008796;426.810127499979;426.810127499979;426.8510996000841;426.8510996000841;None;9;1;426.8510996000841;None;428.3511230999138;None;['7'];428.3511230999138;None;0.8768456999678165;[0.5365693001076579];;;;;;;Emoconpilot025;2021_Oct_19_1106;BackwardMask;2020.2.8;120.05335150070697;
;f;040_y_f_s_a.jpg;sad;7;4;m;004_o_m_h_a.jpg;happy;incongruent;9;mismatch;;130;150;;2;225;block1_Pilot_2;40;s_h;s_h_strong;;;;;0;0;0;0;0;43;43;43;;;;;;;;;431.35128140007146;None;433.2342796998564;433.5271153000649;433.5271153000649;433.5437066000886;433.5437066000886;433.5846499998588;433.5846499998588;None;9;1;433.5846499998588;None;435.08443320007063;None;['8'];435.08443320007063;None;1.4792643999680877;[1.0354728999082];;;;;;;Emoconpilot025;2021_Oct_19_1106;BackwardMask;2020.2.8;120.05335150070697;
;m;027_o_m_s_a.jpg;sad;7;21;f;021_o_f_n_a.jpg;neutral;incongruent;8;mismatch;;130;170;;18;238;block1_Pilot_2;27;s_n;s_n_weak;;;;;0;0;0;0;0;44;44;44;;;;;;;;;438.0848546999041;None;440.08390019997023;440.37735820002854;440.37735820002854;440.5270298998803;440.5270298998803;440.56801180006005;440.56801180006005;None;7;0;440.56801180006005;None;442.0678711999208;None;['7'];442.0678711999208;None;0.7199547998607159;[0.3000483999494463];;;;;;;Emoconpilot025;2021_Oct_19_1106;BackwardMask;2020.2.8;120.05335150070697;
;m;016_y_m_h_a.jpg;happy;9;16;m;016_y_m_n_a.jpg;neutral;incongruent;8;match;;120;170;;3;202;block1_Pilot_2;16;h_n;h_n_weak;;;;;0;0;0;0;0;45;45;45;;;;;;;;;445.06816829997115;None;446.766040999908;447.06061120005324;447.06061120005324;447.08556429995224;447.08556429995224;447.1265223000664;447.1265223000664;None;9;0;447.1265223000664;None;448.6264577000402;None;['7'];448.6264577000402;None;0.7212243999820203;[0.4292355999350548];;;;;;;Emoconpilot025;2021_Oct_19_1106;BackwardMask;2020.2.8;120.05335150070697;
;m;033_o_m_h_a.jpg;happy;9;13;m;013_y_m_n_a.jpg;neutral;incongruent;8;match;;120;170;;2;150;block1_Pilot_2;33;h_n;h_n_weak;;;;;0;0;0;0;0;46;46;46;;;;;;;;;451.6277401999105;None;452.8846147998702;453.17758699995466;453.17758699995466;453.19404440000653;453.19404440000653;453.23486520000733;453.23486520000733;None;9;0;453.23486520000733;None;454.7350136998575;None;['7'];454.7350136998575;None;0.7330670999363065;[0.37683739978820086];;;;;;;Emoconpilot025;2021_Oct_19_1106;BackwardMask;2020.2.8;120.05335150070697;
;f;012_o_f_n_a.jpg;neutral;8;16;m;016_y_m_n_a.jpg;neutral;congruent;8;mismatch;;140;170;;1;238;block1_Pilot_2;12;n_n;n_n_strong;;;;;0;0;0;0;0;47;47;47;;;;;;;;;457.7354999000672;None;459.7545509999618;460.0448064999655;460.0448064999655;460.05246539996006;460.05246539996006;460.09337890008464;460.09337890008464;None;None;0;460.09337890008464;None;461.5934770000167;None;['9'];461.5934770000167;None;;[0.35820159991271794];;;;;;;Emoconpilot025;2021_Oct_19_1106;BackwardMask;2020.2.8;120.05335150070697;
;f;040_y_f_n_a.jpg;neutral;8;30;f;030_o_f_h_a.jpg;happy;incongruent;9;match;;140;150;;2;194;block1_Pilot_2;40;n_h;n_h_strong;;;;;0;0;0;0;0;48;48;48;;;;;;;;;464.59404270001687;None;466.23039390007034;466.5197642999701;466.5197642999701;466.5359574998729;466.5359574998729;466.57697249995545;466.57697249995545;None;None;0;466.57697249995545;None;468.07678489992395;None;"['9', '8']";468.07678489992395;None;;"[0.03507660003378987, 0.5949508999474347]";;;;;;;Emoconpilot025;2021_Oct_19_1106;BackwardMask;2020.2.8;120.05335150070697;
;m;013_y_m_n_a.jpg;neutral;8;12;f;012_o_f_s_a.jpg;sad;incongruent;7;mismatch;;140;160;;18;238;block1_Pilot_2;13;n_s;n_s_weak;;;;;0;0;0;0;0;49;49;49;;;;;;;;;471.0775001998991;None;473.0793592999689;473.36989960004576;473.36989960004576;473.5191335999407;473.5191335999407;473.5604040999897;473.5604040999897;None;8;0;473.5604040999897;None;475.0603851999622;None;['7'];475.0603851999622;None;0.7275141999125481;[0.47544629988260567];;;;;;;Emoconpilot025;2021_Oct_19_1106;BackwardMask;2020.2.8;120.05335150070697;
;f;012_o_f_h_a.jpg;happy;9;12;f;012_o_f_n_a.jpg;neutral;incongruent;8;match;;120;170;;2;125;block1_Pilot_2;12;h_n;h_n_strong;;;;;0;0;0;0;0;50;50;50;;;;;;;;;478.0612015000079;None;479.11001290008426;479.4031376999337;479.4031376999337;479.419532999862;479.419532999862;479.4604724999517;479.4604724999517;None;9;0;479.4604724999517;None;480.96058909990825;None;['8'];480.96058909990825;None;0.6994890999048948;[0.5272598001174629];;;;;;;Emoconpilot025;2021_Oct_19_1106;BackwardMask;2020.2.8;120.05335150070697;
;m;008_y_m_s_a.jpg;sad;7;19;f;019_m_f_s_a.jpg;sad;congruent;7;mismatch;;130;160;;2;202;block1_Pilot_2;8;s_s;s_s_strong;;;;;0;0;0;0;0;51;51;51;;;;;;;;;483.96121009998024;None;485.6670057999436;485.9619420999661;485.9619420999661;485.9780337000266;485.9780337000266;486.01886669988744;486.01886669988744;None;None;0;486.01886669988744;None;487.5188664998859;None;"['7', '9']";487.5188664998859;None;;"[0.16916919988580048, 1.60080899996683]";;;;;;;Emoconpilot025;2021_Oct_19_1106;BackwardMask;2020.2.8;120.05335150070697;
;f;028_y_f_n_a.jpg;neutral;8;12;f;012_o_f_n_a.jpg;neutral;congruent;8;match;;140;170;;2;214;block1_Pilot_2;28;n_n;n_n_strong;;;;;0;0;0;0;0;52;52;52;;;;;;;;;490.51996239996515;None;492.321770099923;492.61199730006047;492.61199730006047;492.62819249997847;492.62819249997847;492.6691183000803;492.6691183000803;None;8;1;492.6691183000803;None;494.16932199988514;None;['8'];494.16932199988514;None;1.32274299999699;[1.0145816998556256];;;;;;;Emoconpilot025;2021_Oct_19_1106;BackwardMask;2020.2.8;120.05335150070697;
;m;027_o_m_h_a.jpg;happy;9;19;f;019_m_f_h_a.jpg;happy;congruent;9;mismatch;;120;150;;3;165;block1_Pilot_2;27;h_h;h_h_strong;;;;;0;0;0;0;0;53;53;53;;;;;;;;;497.16976929991506;None;498.5715633998625;498.8622516999021;498.8622516999021;498.8866530000232;498.8866530000232;498.9274442999158;498.9274442999158;None;None;0;498.9274442999158;None;500.4280636999756;None;['7'];500.4280636999756;None;;[0.6438429998233914];;;;;;;Emoconpilot025;2021_Oct_19_1106;BackwardMask;2020.2.8;120.05335150070697;
;m;008_y_m_s_a.jpg;sad;7;13;m;013_y_m_h_a.jpg;happy;incongruent;9;match;;130;150;;18;200;block1_Pilot_2;8;s_h;s_h_strong;;;;;0;0;0;0;0;54;54;54;;;;;;;;;503.42846149997786;None;505.113309700042;505.40384580008686;505.40384580008686;505.55345740006305;505.55345740006305;505.5943990999367;505.5943990999367;None;7;0;505.5943990999367;None;507.0943340000231;None;['7'];507.0943340000231;None;1.1654674001038074;[0.737367199966684];;;;;;;Emoconpilot025;2021_Oct_19_1106;BackwardMask;2020.2.8;120.05335150070697;
;f;030_o_f_n_a.jpg;neutral;8;28;f;028_y_f_s_a.jpg;sad;incongruent;7;match;;140;160;;18;238;block1_Pilot_2;30;n_s;n_s_weak;;;;;0;0;0;0;0;55;55;55;;;;;;;;;510.09539539995603;None;512.1046917999629;512.395651999861;512.395651999861;512.5452932999469;512.5452932999469;512.5860822999384;512.5860822999384;None;7;1;512.5860822999384;None;514.0860784999095;None;['7'];514.0860784999095;None;0.7177977999672294;[0.7699349999893457];;;;;;;Emoconpilot025;2021_Oct_19_1106;BackwardMask;2020.2.8;120.05335150070697;
;f;019_m_f_h_a.jpg;happy;9;27;m;027_o_m_h_a.jpg;happy;congruent;9;mismatch;;120;150;;1;238;block1_Pilot_2;19;h_h;h_h_strong;;;;;0;0;0;0;0;56;56;56;;;;;;;;;517.0871073999442;None;519.0772205998655;519.370484800078;519.370484800078;519.3787757998798;519.3787757998798;519.4195021998603;519.4195021998603;None;None;0;519.4195021998603;None;520.919658599887;None;['9'];520.919658599887;None;;[0.9120331001468003];;;;;;;Emoconpilot025;2021_Oct_19_1106;BackwardMask;2020.2.8;120.05335150070697;
;m;004_o_m_s_a.jpg;sad;7;4;m;004_o_m_h_a.jpg;happy;incongruent;9;match;;130;150;;18;155;block1_Pilot_2;4;s_h;s_h_weak;;;;;0;0;0;0;0;57;57;57;;;;;;;;;523.9198572998866;None;525.2265770998783;525.5207599999849;525.5207599999849;525.6706197999883;525.6706197999883;525.7112582998816;525.7112582998816;None;7;0;525.7112582998816;None;527.2114138000179;None;['7'];527.2114138000179;None;0.7364535999950022;[0.5804292999673635];;;;;;;Emoconpilot025;2021_Oct_19_1106;BackwardMask;2020.2.8;120.05335150070697;
;f;021_o_f_s_a.jpg;sad;7;27;m;027_o_m_n_a.jpg;neutral;incongruent;8;mismatch;;130;170;;3;224;block1_Pilot_2;21;s_n;s_n_weak;;;;;0;0;0;0;0;58;58;58;;;;;;;;;530.2114967999514;None;532.0851280998904;532.3790818999987;532.3790818999987;532.4039932000451;532.4039932000451;532.4448800999671;532.4448800999671;None;9;0;532.4448800999671;None;533.9449618998915;None;['8'];533.9449618998915;None;0.9470071999821812;[0.9109650999307632];;;;;;;Emoconpilot025;2021_Oct_19_1106;BackwardMask;2020.2.8;120.05335150070697;
;f;021_o_f_h_a.jpg;happy;9;27;m;027_o_m_n_a.jpg;neutral;incongruent;8;mismatch;;120;170;;2;147;block1_Pilot_2;21;h_n;h_n_strong;;;;;0;0;0;0;0;59;59;59;;;;;;;;;536.9449819999281;None;538.2160145998932;538.5047798000742;538.5047798000742;538.5205900000874;538.5205900000874;538.5616872999817;538.5616872999817;None;9;0;538.5616872999817;None;540.0617207000032;None;['7'];540.0617207000032;None;0.734350899932906;[0.45010140002705157];;;;;;;Emoconpilot025;2021_Oct_19_1106;BackwardMask;2020.2.8;120.05335150070697;
;f;040_y_f_n_a.jpg;neutral;8;13;m;013_y_m_h_a.jpg;happy;incongruent;9;mismatch;;140;150;;3;237;block1_Pilot_2;40;n_h;n_h_strong;;;;;0;0;0;0;0;60;60;60;;;;;;;;;543.0621877999511;None;545.0551422999706;545.3465414000675;545.3465414000675;545.3707938999869;545.3707938999869;545.4117169999518;545.4117169999518;None;8;0;545.4117169999518;None;546.9119382000063;None;['8'];546.9119382000063;None;0.8840142998378724;[0.8080174999777228];;;;;;;Emoconpilot025;2021_Oct_19_1106;BackwardMask;2020.2.8;120.05335150070697;
;m;027_o_m_n_a.jpg;neutral;8;19;f;019_m_f_h_a.jpg;happy;incongruent;9;mismatch;;140;150;;3;199;block1_Pilot_2;27;n_h;n_h_strong;;;;;0;0;0;0;0;61;61;61;;;;;;;;;549.9118836999405;None;551.5902302998584;551.8799506998621;551.8799506998621;551.90486219991;551.90486219991;551.9453447000124;551.9453447000124;None;8;0;551.9453447000124;None;553.4451824000571;None;['8'];553.4451824000571;None;1.2704606000334024;[0.7626400000881404];;;;;;;Emoconpilot025;2021_Oct_19_1106;BackwardMask;2020.2.8;120.05335150070697;
;m;027_o_m_h_a.jpg;happy;9;21;f;021_o_f_s_a.jpg;sad;incongruent;7;mismatch;;120;160;;2;169;block1_Pilot_2;27;h_s;h_s_strong;;;;;0;0;0;0;0;62;62;62;;;;;;;;;556.4461296999361;None;557.8723319999408;558.1638827999122;558.1638827999122;558.1793521000072;558.1793521000072;558.2202739000786;558.2202739000786;None;9;0;558.2202739000786;None;559.7205421999097;None;['7'];559.7205421999097;None;0.8196147999260575;[0.6153023999650031];;;;;;;Emoconpilot025;2021_Oct_19_1106;BackwardMask;2020.2.8;120.05335150070697;
;m;013_y_m_n_a.jpg;neutral;8;33;m;033_o_m_h_a.jpg;happy;incongruent;9;match;;140;150;;18;238;block1_Pilot_2;13;n_h;n_h_strong;;;;;0;0;0;0;0;63;63;63;;;;;;;;;562.721028199885;None;564.7231936000753;565.0134747000411;565.0134747000411;565.1628622000571;565.1628622000571;565.2037392000202;565.2037392000202;None;8;0;565.2037392000202;None;566.7040071999654;None;['7'];566.7040071999654;None;0.7002012999728322;[0.5118251999374479];;;;;;;Emoconpilot025;2021_Oct_19_1106;BackwardMask;2020.2.8;120.05335150070697;
;m;033_o_m_n_a.jpg;neutral;8;30;f;030_o_f_s_a.jpg;sad;incongruent;7;mismatch;;140;160;;1;238;block1_Pilot_2;33;n_s;n_s_weak;;;;;0;0;0;0;0;64;64;64;;;;;;;;;569.7040230000857;None;571.7065787999891;571.9969458999112;571.9969458999112;572.0044978999067;572.0044978999067;572.0458070000168;572.0458070000168;None;None;0;572.0458070000168;None;573.5456785000861;None;['9'];573.5456785000861;None;;[0.3822965999133885];;;;;;;Emoconpilot025;2021_Oct_19_1106;BackwardMask;2020.2.8;120.05335150070697;
;m;033_o_m_s_a.jpg;sad;7;4;m;004_o_m_s_a.jpg;sad;congruent;7;match;;130;160;;18;146;block1_Pilot_2;33;s_s;s_s_weak;;;;;0;0;0;0;0;65;65;65;;;;;;;;;576.5458253000397;None;577.7707263000775;578.0633376999758;578.0633376999758;578.2133192999754;578.2133192999754;578.2542089999188;578.2542089999188;None;7;1;578.2542089999188;None;579.7542077000253;None;['7'];579.7542077000253;None;1.0175192998722196;[0.6535777000244707];;;;;;;Emoconpilot025;2021_Oct_19_1106;BackwardMask;2020.2.8;120.05335150070697;
;m;016_y_m_s_a.jpg;sad;7;28;f;028_y_f_h_a.jpg;happy;incongruent;9;mismatch;;130;150;;18;238;block1_Pilot_2;16;s_h;s_h_strong;;;;;0;0;0;0;0;66;66;66;;;;;;;;;582.7546043000184;None;584.7455273000523;585.0384833000135;585.0384833000135;585.1884345998988;585.1884345998988;585.2293189999182;585.2293189999182;None;7;0;585.2293189999182;None;586.7293678999413;None;['7'];586.7293678999413;None;0.714477299945429;[0.3905998000409454];;;;;;;Emoconpilot025;2021_Oct_19_1106;BackwardMask;2020.2.8;120.05335150070697;
;f;030_o_f_h_a.jpg;happy;9;28;f;028_y_f_h_a.jpg;happy;congruent;9;match;;120;150;;3;234;block1_Pilot_2;30;h_h;h_h_weak;;;;;0;0;0;0;0;67;67;67;;;;;;;;;589.7295355999377;None;591.7092043000739;592.0058307999279;592.0058307999279;592.0303008998744;592.0303008998744;592.0711936000735;592.0711936000735;None;9;1;592.0711936000735;None;593.5711498998571;None;['7'];593.5711498998571;None;0.6487348999362439;[0.42884589987806976];;;;;;;Emoconpilot025;2021_Oct_19_1106;BackwardMask;2020.2.8;120.05335150070697;
;m;013_y_m_h_a.jpg;happy;9;4;m;004_o_m_h_a.jpg;happy;congruent;9;match;;120;150;;2;141;block1_Pilot_2;13;h_h;h_h_strong;;;;;0;0;0;0;0;68;68;68;;;;;;;;;596.5711028000806;None;597.765308199916;598.0559010000434;598.0559010000434;598.0719166998751;598.0719166998751;598.1126512000337;598.1126512000337;None;9;1;598.1126512000337;None;599.6128847999498;None;['7'];599.6128847999498;None;0.831312500173226;[0.42697369982488453];;;;;;;Emoconpilot025;2021_Oct_19_1106;BackwardMask;2020.2.8;120.05335150070697;
;f;028_y_f_s_a.jpg;sad;7;8;m;008_y_m_s_a.jpg;sad;congruent;7;mismatch;;130;160;;1;238;block1_Pilot_2;28;s_s;s_s_strong;;;;;0;0;0;0;0;69;69;69;;;;;;;;;602.6137596999761;None;604.6082015999127;604.8973041998688;604.8973041998688;604.9053974999115;604.9053974999115;604.9463273000438;604.9463273000438;None;None;0;604.9463273000438;None;606.4464775999077;None;['9'];606.4464775999077;None;;[0.5054210000671446];;;;;;;Emoconpilot025;2021_Oct_19_1106;BackwardMask;2020.2.8;120.05335150070697;
;f;028_y_f_s_a.jpg;sad;7;30;f;030_o_f_h_a.jpg;happy;incongruent;9;match;;130;150;;2;199;block1_Pilot_2;28;s_h;s_h_weak;;;;;0;0;0;0;0;70;70;70;;;;;;;;;609.4469594999682;None;611.114505500067;611.4059071999509;611.4059071999509;611.4222834999673;611.4222834999673;611.4631242998876;611.4631242998876;None;9;1;611.4631242998876;None;612.9633005999494;None;['8'];612.9633005999494;None;0.976665000198409;[0.7246147999539971];;;;;;;Emoconpilot025;2021_Oct_19_1106;BackwardMask;2020.2.8;120.05335150070697;
;m;008_y_m_h_a.jpg;happy;9;21;f;021_o_f_n_a.jpg;neutral;incongruent;8;mismatch;;120;170;;2;137;block1_Pilot_2;8;h_n;h_n_weak;;;;;0;0;0;0;0;71;71;71;;;;;;;;;615.9632524000481;None;617.1135326998774;617.4058439999353;617.4058439999353;617.4224992999807;617.4224992999807;617.46321419999;617.46321419999;None;9;0;617.46321419999;None;618.9641452999786;None;['7'];618.9641452999786;None;0.8167436001822352;[0.7317827998194844];;;;;;;Emoconpilot025;2021_Oct_19_1106;BackwardMask;2020.2.8;120.05335150070697;
;f;012_o_f_n_a.jpg;neutral;8;8;m;008_y_m_s_a.jpg;sad;incongruent;7;mismatch;;140;160;;2;208;block1_Pilot_2;12;n_s;n_s_weak;;;;;0;0;0;0;0;72;72;72;;;;;;;;;621.9634903999977;None;623.7266198999714;624.0232138000429;624.0232138000429;624.0393707999028;624.0393707999028;624.0800365998875;624.0800365998875;None;9;0;624.0800365998875;None;625.5800856999122;None;['8'];625.5800856999122;None;1.191839799983427;[1.0439398000016809];;;;;;;Emoconpilot025;2021_Oct_19_1106;BackwardMask;2020.2.8;120.05335150070697;
;m;016_y_m_n_a.jpg;neutral;8;8;m;008_y_m_n_a.jpg;neutral;congruent;8;match;;140;170;;3;211;block1_Pilot_2;16;n_n;n_n_strong;;;;;0;0;0;0;0;73;73;73;;;;;;;;;628.5803246998694;None;630.3663750998676;630.6564988000318;630.6564988000318;630.6809773999266;630.6809773999266;630.7218958998565;630.7218958998565;None;8;1;630.7218958998565;None;632.2216078999918;None;['8'];632.2216078999918;None;0.7900529000908136;[0.4742063002195209];;;;;;;Emoconpilot025;2021_Oct_19_1106;BackwardMask;2020.2.8;120.05335150070697;
;m;016_y_m_h_a.jpg;happy;9;13;m;013_y_m_s_a.jpg;sad;incongruent;7;match;;120;160;;3;138;block1_Pilot_2;16;h_s;h_s_weak;;;;;0;0;0;0;0;74;74;74;;;;;;;;;635.2218653999735;None;636.3801835998893;636.6727251999546;636.6727251999546;636.6978136000689;636.6978136000689;636.7386731000151;636.7386731000151;None;9;0;636.7386731000151;None;638.2389104999602;None;['7'];638.2389104999602;None;0.7651577000506222;[0.4729267999064177];;;;;;;Emoconpilot025;2021_Oct_19_1106;BackwardMask;2020.2.8;120.05335150070697;
;m;016_y_m_n_a.jpg;neutral;8;19;f;019_m_f_s_a.jpg;sad;incongruent;7;mismatch;;140;160;;2;185;block1_Pilot_2;16;n_s;n_s_strong;;;;;0;0;0;0;0;75;75;75;;;;;;;;;641.2390375998802;None;642.8092702999711;643.0984273999929;643.0984273999929;643.1146092000417;643.1146092000417;643.1551985999104;643.1551985999104;None;8;0;643.1551985999104;None;644.6554268000182;None;['8'];644.6554268000182;None;0.8846829000394791;[0.4403999000787735];;;;;;;Emoconpilot025;2021_Oct_19_1106;BackwardMask;2020.2.8;120.05335150070697;
;m;027_o_m_s_a.jpg;sad;7;8;m;008_y_m_s_a.jpg;sad;congruent;7;match;;130;160;;1;238;block1_Pilot_2;27;s_s;s_s_strong;;;;;0;0;0;0;0;76;76;76;;;;;;;;;647.655653799884;None;649.647106199991;649.9398852998856;649.9398852998856;649.9479831999633;649.9479831999633;649.9888842999935;649.9888842999935;None;None;0;649.9888842999935;None;651.4889757998753;None;['9'];651.4889757998753;None;;[0.33473160001449287];;;;;;;Emoconpilot025;2021_Oct_19_1106;BackwardMask;2020.2.8;120.05335150070697;
;f;019_m_f_n_a.jpg;neutral;8;27;m;027_o_m_n_a.jpg;neutral;congruent;8;mismatch;;140;170;;3;186;block1_Pilot_2;19;n_n;n_n_strong;;;;;0;0;0;0;0;77;77;77;;;;;;;;;654.4894840000197;None;656.063672499964;656.3571015000343;656.3571015000343;656.3814866000321;656.3814866000321;656.4223608998582;656.4223608998582;None;8;1;656.4223608998582;None;657.9223398999311;None;['7'];657.9223398999311;None;0.8334854999557137;[0.9976150000002235];;;;;;;Emoconpilot025;2021_Oct_19_1106;BackwardMask;2020.2.8;120.05335150070697;
;m;004_o_m_s_a.jpg;sad;7;12;f;012_o_f_s_a.jpg;sad;congruent;7;mismatch;;130;160;;1;238;block1_Pilot_2;4;s_s;s_s_strong;;;;;0;0;0;0;0;78;78;78;;;;;;;;;660.9223029999994;None;662.91482429998;663.2068207999691;663.2068207999691;663.2150417000521;663.2150417000521;663.2558818999678;663.2558818999678;None;None;0;663.2558818999678;None;664.7558671000879;None;['9'];664.7558671000879;None;;[0.3560567998792976];;;;;;;Emoconpilot025;2021_Oct_19_1106;BackwardMask;2020.2.8;120.05335150070697;
;f;019_m_f_n_a.jpg;neutral;8;13;m;013_y_m_s_a.jpg;sad;incongruent;7;mismatch;;140;160;;3;207;block1_Pilot_2;19;n_s;n_s_strong;;;;;0;0;0;0;0;79;79;79;;;;;;;;;667.7560847999994;None;669.5014782999642;669.7908320000861;669.7908320000861;669.8151010000147;669.8151010000147;669.8559776998591;669.8559776998591;None;8;0;669.8559776998591;None;671.3558652000502;None;['8'];671.3558652000502;None;0.6638744999654591;[0.6600884001236409];;;;;;;Emoconpilot025;2021_Oct_19_1106;BackwardMask;2020.2.8;120.05335150070697;
;m;027_o_m_h_a.jpg;happy;9;33;m;033_o_m_h_a.jpg;happy;congruent;9;match;;120;150;;1;238;block1_Pilot_2;27;h_h;h_h_strong;;;;;0;0;0;0;0;80;80;80;;;;;;;;;674.3568869000301;None;676.3585784998722;676.6494334999006;676.6494334999006;676.6569820998702;676.6569820998702;676.6978213000111;676.6978213000111;None;None;0;676.6978213000111;None;678.1978120999411;None;['9'];678.1978120999411;None;;[0.36204429995268583];;;;;;;Emoconpilot025;2021_Oct_19_1106;BackwardMask;2020.2.8;120.05335150070697;
;m;027_o_m_h_a.jpg;happy;9;21;f;021_o_f_s_a.jpg;sad;incongruent;7;mismatch;;120;160;;1;238;block1_Pilot_2;27;h_s;h_s_weak;;;;;0;0;0;0;0;81;81;81;;;;;;;;;681.1987502998672;None;683.2005262998864;683.4910977000836;683.4910977000836;683.4986747000366;683.4986747000366;683.5396880998742;683.5396880998742;None;None;0;683.5396880998742;None;685.0396837000735;None;['9'];685.0396837000735;None;;[0.47214399999938905];;;;;;;Emoconpilot025;2021_Oct_19_1106;BackwardMask;2020.2.8;120.05335150070697;
;m;033_o_m_s_a.jpg;sad;7;40;f;040_y_f_n_a.jpg;neutral;incongruent;8;mismatch;;130;170;;3;146;block1_Pilot_2;33;s_n;s_n_weak;;;;;0;0;0;0;0;82;82;82;;;;;;;;;688.0404310000595;None;689.2641958000604;689.5572845998686;689.5572845998686;689.582302799914;689.582302799914;689.6232028999366;689.6232028999366;None;None;0;689.6232028999366;None;691.1231112000532;None;['8'];691.1231112000532;None;;[0.18082659994252026];;;;;;;Emoconpilot025;2021_Oct_19_1106;BackwardMask;2020.2.8;120.05335150070697;
;m;008_y_m_h_a.jpg;happy;9;4;m;004_o_m_s_a.jpg;sad;incongruent;7;match;;120;160;;2;225;block1_Pilot_2;8;h_s;h_s_weak;;;;;0;0;0;0;0;83;83;83;;;;;;;;;694.123154599918;None;696.0063233999535;696.2992527000606;696.2992527000606;696.3155509000644;696.3155509000644;696.3564599000383;696.3564599000383;None;9;0;696.3564599000383;None;697.8565473000053;None;['7'];697.8565473000053;None;1.0514367001596838;[1.1913604999426752];;;;;;;Emoconpilot025;2021_Oct_19_1106;BackwardMask;2020.2.8;120.05335150070697;
;f;012_o_f_n_a.jpg;neutral;8;4;m;004_o_m_s_a.jpg;sad;incongruent;7;mismatch;;140;160;;3;150;block1_Pilot_2;12;n_s;n_s_strong;;;;;0;0;0;0;0;84;84;84;;;;;;;;;700.8566000999417;None;702.1360812999774;702.4247558000498;702.4247558000498;702.4490994000807;702.4490994000807;702.4900422999635;702.4900422999635;None;8;0;702.4900422999635;None;703.9901377998758;None;['8'];703.9901377998758;None;0.8057524999603629;[0.8498046000022441];;;;;;;Emoconpilot025;2021_Oct_19_1106;BackwardMask;2020.2.8;120.05335150070697;
;f;021_o_f_s_a.jpg;sad;7;40;f;040_y_f_n_a.jpg;neutral;incongruent;8;match;;130;170;;2;156;block1_Pilot_2;21;s_n;s_n_strong;;;;;0;0;0;0;0;85;85;85;;;;;;;;;706.9902228000574;None;708.2963928999379;708.5910757000092;708.5910757000092;708.6075357000809;708.6075357000809;708.6486503998749;708.6486503998749;None;None;0;708.6486503998749;None;710.1487847000826;None;['9'];710.1487847000826;None;;[0.5550416000187397];;;;;;;Emoconpilot025;2021_Oct_19_1106;BackwardMask;2020.2.8;120.05335150070697;
;m;004_o_m_n_a.jpg;neutral;8;13;m;013_y_m_n_a.jpg;neutral;congruent;8;match;;140;170;;2;225;block1_Pilot_2;4;n_n;n_n_strong;;;;;0;0;0;0;0;86;86;86;;;;;;;;;713.1492230999283;None;715.0506082000211;715.341687799897;715.341687799897;715.3575990998652;715.3575990998652;715.3989130998962;715.3989130998962;None;8;1;715.3989130998962;None;716.8985613000114;None;['8'];716.8985613000114;None;1.3690031999722123;[1.317039200104773];;;;;;;Emoconpilot025;2021_Oct_19_1106;BackwardMask;2020.2.8;120.05335150070697;
;m;016_y_m_n_a.jpg;neutral;8;16;m;016_y_m_h_a.jpg;happy;incongruent;9;match;;140;150;;18;193;block1_Pilot_2;16;n_h;n_h_strong;;;;;0;0;0;0;0;87;87;87;;;;;;;;;719.8991739999037;None;721.5266781998798;721.8167661998887;721.8167661998887;721.9663821998984;721.9663821998984;722.0069138999097;722.0069138999097;None;8;0;722.0069138999097;None;723.5071097000036;None;['7'];723.5071097000036;None;0.6809203999582678;[0.4928619998972863];;;;;;;Emoconpilot025;2021_Oct_19_1106;BackwardMask;2020.2.8;120.05335150070697;
;m;033_o_m_h_a.jpg;happy;9;4;m;004_o_m_h_a.jpg;happy;congruent;9;match;;120;150;;2;195;block1_Pilot_2;33;h_h;h_h_strong;;;;;0;0;0;0;0;88;88;88;;;;;;;;;726.5079165999778;None;728.1402117998805;728.4333196000662;728.4333196000662;728.4496174000669;728.4496174000669;728.4904928000178;728.4904928000178;None;9;1;728.4904928000178;None;729.9908867999911;None;['7'];729.9908867999911;None;0.7013901001773775;[0.2808875001501292];;;;;;;Emoconpilot025;2021_Oct_19_1106;BackwardMask;2020.2.8;120.05335150070697;
;m;027_o_m_h_a.jpg;happy;9;16;m;016_y_m_h_a.jpg;happy;congruent;9;match;;120;150;;3;209;block1_Pilot_2;27;h_h;h_h_weak;;;;;0;0;0;0;0;89;89;89;;;;;;;;;732.9914510999806;None;734.7693759000394;735.0587553000078;735.0587553000078;735.0831331000663;735.0831331000663;735.1240167000797;735.1240167000797;None;9;1;735.1240167000797;None;736.6239431998692;None;['7'];736.6239431998692;None;0.6756967001128942;[0.5359479000326246];;;;;;;Emoconpilot025;2021_Oct_19_1106;BackwardMask;2020.2.8;120.05335150070697;
;m;033_o_m_s_a.jpg;sad;7;16;m;016_y_m_s_a.jpg;sad;congruent;7;match;;130;160;;3;128;block1_Pilot_2;33;s_s;s_s_strong;;;;;0;0;0;0;0;90;90;90;;;;;;;;;739.6241202999372;None;740.6988423999865;740.9917846000753;740.9917846000753;741.0167064000852;741.0167064000852;741.0573821000289;741.0573821000289;None;7;1;741.0573821000289;None;742.5575562999584;None;['8'];742.5575562999584;None;1.3824362999293953;[0.8342520999722183];;;;;;;Emoconpilot025;2021_Oct_19_1106;BackwardMask;2020.2.8;120.05335150070697;
;f;021_o_f_s_a.jpg;sad;7;30;f;030_o_f_s_a.jpg;sad;congruent;7;match;;130;160;;1;238;block1_Pilot_2;21;s_s;s_s_strong;;;;;0;0;0;0;0;91;91;91;;;;;;;;;745.5575109000783;None;747.5468561998568;747.8417926998809;747.8417926998809;747.8500254000537;747.8500254000537;747.8908172000665;747.8908172000665;None;None;0;747.8908172000665;None;749.3909755998757;None;['9'];749.3909755998757;None;;[0.5529241999611259];;;;;;;Emoconpilot025;2021_Oct_19_1106;BackwardMask;2020.2.8;120.05335150070697;
;m;033_o_m_n_a.jpg;neutral;8;28;f;028_y_f_s_a.jpg;sad;incongruent;7;mismatch;;140;160;;18;166;block1_Pilot_2;33;n_s;n_s_strong;;;;;0;0;0;0;0;92;92;92;;;;;;;;;752.3910532000009;None;753.8001921998803;754.0924325999804;754.0924325999804;754.2418074999005;754.2418074999005;754.2826765999198;754.2826765999198;None;8;0;754.2826765999198;None;755.7828293999191;None;['8'];755.7828293999191;None;1.1813029998447746;[0.8169952998869121];;;;;;;Emoconpilot025;2021_Oct_19_1106;BackwardMask;2020.2.8;120.05335150070697;
;f;019_m_f_n_a.jpg;neutral;8;30;f;030_o_f_n_a.jpg;neutral;congruent;8;match;;140;170;;18;228;block1_Pilot_2;19;n_n;n_n_weak;;;;;0;0;0;0;0;93;93;93;;;;;;;;;758.7838437000755;None;760.7032987999264;760.9925996998791;760.9925996998791;761.1420241000596;761.1420241000596;761.1828244000208;761.1828244000208;None;8;1;761.1828244000208;None;762.6836613998748;None;['7'];762.6836613998748;None;0.7449957998469472;[0.43609199998900294];;;;;;;Emoconpilot025;2021_Oct_19_1106;BackwardMask;2020.2.8;120.05335150070697;
;m;008_y_m_s_a.jpg;sad;7;12;f;012_o_f_h_a.jpg;happy;incongruent;9;mismatch;;130;150;;3;130;block1_Pilot_2;8;s_h;s_h_weak;;;;;0;0;0;0;0;94;94;94;;;;;;;;;765.6838827000465;None;766.7853268999606;767.0759393000044;767.0759393000044;767.1003195999656;767.1003195999656;767.1413086999673;767.1413086999673;None;7;0;767.1413086999673;None;768.6415190999396;None;['8'];768.6415190999396;None;1.066431500017643;[0.35843229992315173];;;;;;;Emoconpilot025;2021_Oct_19_1106;BackwardMask;2020.2.8;120.05335150070697;
;m;016_y_m_n_a.jpg;neutral;8;28;f;028_y_f_n_a.jpg;neutral;congruent;8;mismatch;;140;170;;18;189;block1_Pilot_2;16;n_n;n_n_strong;;;;;0;0;0;0;0;95;95;95;;;;;;;;;771.6416773998644;None;773.236901300028;773.5260814998765;773.5260814998765;773.6756684000138;773.6756684000138;773.7163777998649;773.7163777998649;None;8;1;773.7163777998649;None;775.2163207998965;None;['7'];775.2163207998965;None;0.5872735001612455;[0.3595368000678718];;;;;;;Emoconpilot025;2021_Oct_19_1106;BackwardMask;2020.2.8;120.05335150070697;
;f;012_o_f_s_a.jpg;sad;7;16;m;016_y_m_h_a.jpg;happy;incongruent;9;mismatch;;130;150;;3;238;block1_Pilot_2;12;s_h;s_h_strong;;;;;0;0;0;0;0;96;96;96;;;;;;;;;778.2166571998969;None;780.2033098000102;780.5007346000057;780.5007346000057;780.525845099939;780.525845099939;780.5666201000568;780.5666201000568;None;None;0;780.5666201000568;None;782.0667387999129;None;['9'];782.0667387999129;None;;[0.3169486001133919];;;;;;;Emoconpilot025;2021_Oct_19_1106;BackwardMask;2020.2.8;120.05335150070697;
;m;013_y_m_h_a.jpg;happy;9;27;m;027_o_m_h_a.jpg;happy;congruent;9;match;;120;150;;18;238;block1_Pilot_2;13;h_h;h_h_strong;;;;;0;0;0;0;0;97;97;97;;;;;;;;;785.0668929999229;None;787.0703407998662;787.3597915000282;787.3597915000282;787.509153299965;787.509153299965;787.5499915999826;787.5499915999826;None;9;1;787.5499915999826;None;789.0501508000307;None;['7'];789.0501508000307;None;0.657865900080651;[0.3975038998760283];;;;;;;Emoconpilot025;2021_Oct_19_1106;BackwardMask;2020.2.8;120.05335150070697;
;m;016_y_m_s_a.jpg;sad;7;33;m;033_o_m_n_a.jpg;neutral;incongruent;8;match;;130;170;;1;238;block1_Pilot_2;16;s_n;s_n_weak;;;;;0;0;0;0;0;98;98;98;;;;;;;;;792.0511707998812;None;794.0418910998851;794.3344733000267;794.3344733000267;794.342639700044;794.342639700044;794.3835626998916;794.3835626998916;None;None;0;794.3835626998916;None;795.8835259000771;None;['9'];795.8835259000771;None;;[0.47638909984380007];;;;;;;Emoconpilot025;2021_Oct_19_1106;BackwardMask;2020.2.8;120.05335150070697;
;m;008_y_m_n_a.jpg;neutral;8;30;f;030_o_f_n_a.jpg;neutral;congruent;8;mismatch;;140;170;;1;238;block1_Pilot_2;8;n_n;n_n_weak;;;;;0;0;0;0;0;99;99;99;;;;;;;;;798.8838170000818;None;800.8932876000181;801.184852699982;801.184852699982;801.1927944999188;801.1927944999188;801.2336434000172;801.2336434000172;None;None;0;801.2336434000172;None;802.7337169998791;None;['9'];802.7337169998791;None;;[0.3541002001147717];;;;;;;Emoconpilot025;2021_Oct_19_1106;BackwardMask;2020.2.8;120.05335150070697;
;m;008_y_m_s_a.jpg;sad;7;30;f;030_o_f_s_a.jpg;sad;congruent;7;mismatch;;130;160;;2;133;block1_Pilot_2;8;s_s;s_s_weak;;;;;0;0;0;0;0;100;100;100;;;;;;;;;805.7338231999893;None;806.8613396000583;807.1519569999073;807.1519569999073;807.1678796999622;807.1678796999622;807.2087197999936;807.2087197999936;None;None;0;807.2087197999936;None;808.7086893999949;None;['9'];808.7086893999949;None;;[0.37095020012930036];;;;;;;Emoconpilot025;2021_Oct_19_1106;BackwardMask;2020.2.8;120.05335150070697;
;f;040_y_f_n_a.jpg;neutral;8;30;f;030_o_f_s_a.jpg;sad;incongruent;7;match;;140;160;;3;197;block1_Pilot_2;40;n_s;n_s_strong;;;;;0;0;0;0;0;101;101;101;;;;;;;;;811.7089831000194;None;813.3698078999296;813.6600647000596;813.6600647000596;813.6847399999388;813.6847399999388;813.7256626999006;813.7256626999006;None;8;0;813.7256626999006;None;815.2255488999654;None;['8'];815.2255488999654;None;0.8822167001198977;[0.43026819988153875];;;;;;;Emoconpilot025;2021_Oct_19_1106;BackwardMask;2020.2.8;120.05335150070697;
;m;004_o_m_h_a.jpg;happy;9;30;f;030_o_f_s_a.jpg;sad;incongruent;7;mismatch;;120;160;;3;121;block1_Pilot_2;4;h_s;h_s_strong;;;;;0;0;0;0;0;102;102;102;;;;;;;;;818.2259173998609;None;819.253684700001;819.5437165999319;819.5437165999319;819.56811439991;819.56811439991;819.6090692998841;819.6090692998841;None;9;0;819.6090692998841;None;821.1089144998696;None;['7'];821.1089144998696;None;0.7586920000612736;[0.33898249990306795];;;;;;;Emoconpilot025;2021_Oct_19_1106;BackwardMask;2020.2.8;120.05335150070697;
;f;040_y_f_h_a.jpg;happy;9;8;m;008_y_m_h_a.jpg;happy;congruent;9;mismatch;;120;150;;18;211;block1_Pilot_2;40;h_h;h_h_weak;;;;;0;0;0;0;0;103;103;103;;;;;;;;;824.1101744000334;None;825.8756647999398;826.1684838000219;826.1684838000219;826.3182890999597;826.3182890999597;826.3590818999801;826.3590818999801;None;9;1;826.3590818999801;None;827.8593921000138;None;['7'];827.8593921000138;None;0.6246954000089318;[0.4042365001514554];;;;;;;Emoconpilot025;2021_Oct_19_1106;BackwardMask;2020.2.8;120.05335150070697;
;f;019_m_f_s_a.jpg;sad;7;16;m;016_y_m_n_a.jpg;neutral;incongruent;8;mismatch;;130;170;;2;198;block1_Pilot_2;19;s_n;s_n_strong;;;;;0;0;0;0;0;104;104;104;;;;;;;;;830.8595322999172;None;832.5426668000873;832.8355310000479;832.8355310000479;832.8517372000497;832.8517372000497;832.8926957999356;832.8926957999356;None;None;0;832.8926957999356;None;834.3926293000113;None;['9'];834.3926293000113;None;;[0.423189900116995];;;;;;;Emoconpilot025;2021_Oct_19_1106;BackwardMask;2020.2.8;120.05335150070697;
;f;040_y_f_s_a.jpg;sad;7;12;f;012_o_f_s_a.jpg;sad;congruent;7;match;;130;160;;18;240;block1_Pilot_2;40;s_s;s_s_strong;;;;;0;0;0;0;0;105;105;105;;;;;;;;;837.3930070998613;None;839.4011164000258;839.6936919;839.6936919;839.8436326000374;839.8436326000374;839.8844802000094;839.8844802000094;None;7;1;839.8844802000094;None;841.384461699985;None;['7'];841.384461699985;None;0.9314477001316845;[0.4234156000893563];;;;;;;Emoconpilot025;2021_Oct_19_1106;BackwardMask;2020.2.8;120.05335150070697;
;f;040_y_f_n_a.jpg;neutral;8;33;m;033_o_m_s_a.jpg;sad;incongruent;7;mismatch;;140;160;;3;188;block1_Pilot_2;40;n_s;n_s_weak;;;;;0;0;0;0;0;106;106;106;;;;;;;;;844.3848140998743;None;845.9913035999052;846.2859028999228;846.2859028999228;846.310666800011;846.310666800011;846.3514161000494;846.3514161000494;None;8;0;846.3514161000494;None;847.8514860998839;None;['8'];847.8514860998839;None;0.7524836999364197;[0.500113100046292];;;;;;;Emoconpilot025;2021_Oct_19_1106;BackwardMask;2020.2.8;120.05335150070697;
;f;028_y_f_h_a.jpg;happy;9;21;f;021_o_f_s_a.jpg;sad;incongruent;7;match;;120;160;;3;193;block1_Pilot_2;28;h_s;h_s_strong;;;;;0;0;0;0;0;107;107;107;;;;;;;;;850.8513813000172;None;852.4696831000037;852.7607730999589;852.7607730999589;852.7857154000085;852.7857154000085;852.8264341999311;852.8264341999311;None;9;0;852.8264341999311;None;854.3263767999597;None;['7'];854.3263767999597;None;0.9654574000742286;[0.585590000031516];;;;;;;Emoconpilot025;2021_Oct_19_1106;BackwardMask;2020.2.8;120.05335150070697;
;f;040_y_f_s_a.jpg;sad;7;13;m;013_y_m_n_a.jpg;neutral;incongruent;8;mismatch;;130;170;;2;198;block1_Pilot_2;40;s_n;s_n_strong;;;;;0;0;0;0;0;108;108;108;;;;;;;;;857.3267280000728;None;858.9845626999158;859.2775113000534;859.2775113000534;859.29402079992;859.29402079992;859.3348942000885;859.3348942000885;None;None;0;859.3348942000885;None;860.8347537000664;None;['9'];860.8347537000664;None;;[0.3651452998165041];;;;;;;Emoconpilot025;2021_Oct_19_1106;BackwardMask;2020.2.8;120.05335150070697;
;f;030_o_f_n_a.jpg;neutral;8;33;m;033_o_m_s_a.jpg;sad;incongruent;7;mismatch;;140;160;;1;238;block1_Pilot_2;30;n_s;n_s_strong;;;;;0;0;0;0;0;109;109;109;;;;;;;;;863.834949699929;None;865.8399308999069;866.1364370000083;866.1364370000083;866.1440753000788;866.1440753000788;866.1849936000071;866.1849936000071;None;None;0;866.1849936000071;None;867.6851188999135;None;['9'];867.6851188999135;None;;[0.6426701000891626];;;;;;;Emoconpilot025;2021_Oct_19_1106;BackwardMask;2020.2.8;120.05335150070697;
;f;021_o_f_h_a.jpg;happy;9;40;f;040_y_f_n_a.jpg;neutral;incongruent;8;match;;120;170;;2;125;block1_Pilot_2;21;h_n;h_n_weak;;;;;0;0;0;0;0;110;110;110;;;;;;;;;870.6852422999218;None;871.7458649999462;872.0364558999427;872.0364558999427;872.0527281998657;872.0527281998657;872.0935068998951;872.0935068998951;None;9;0;872.0935068998951;None;873.5936628000345;None;['7'];873.5936628000345;None;0.6344180000014603;[0.38211499992758036];;;;;;;Emoconpilot025;2021_Oct_19_1106;BackwardMask;2020.2.8;120.05335150070697;
;f;021_o_f_h_a.jpg;happy;9;16;m;016_y_m_s_a.jpg;sad;incongruent;7;mismatch;;120;160;;1;238;block1_Pilot_2;21;h_s;h_s_strong;;;;;0;0;0;0;0;111;111;111;;;;;;;;;876.5944721999113;None;878.5961984000169;878.8868295000866;878.8868295000866;878.8944283998571;878.8944283998571;878.9352100000251;878.9352100000251;None;None;0;878.9352100000251;None;880.435444700066;None;['9'];880.435444700066;None;;[0.42032449995167553];;;;;;;Emoconpilot025;2021_Oct_19_1106;BackwardMask;2020.2.8;120.05335150070697;
;f;012_o_f_h_a.jpg;happy;9;8;m;008_y_m_s_a.jpg;sad;incongruent;7;mismatch;;120;160;;1;238;block1_Pilot_2;12;h_s;h_s_weak;;;;;0;0;0;0;0;112;112;112;;;;;;;;;883.4363696000073;None;885.4267490999773;885.7197428999934;885.7197428999934;885.7278795999009;885.7278795999009;885.7687679000665;885.7687679000665;None;None;0;885.7687679000665;None;887.268741699867;None;['9'];887.268741699867;None;;[0.4032378999982029];;;;;;;Emoconpilot025;2021_Oct_19_1106;BackwardMask;2020.2.8;120.05335150070697;
;m;013_y_m_h_a.jpg;happy;9;16;m;016_y_m_s_a.jpg;sad;incongruent;7;match;;120;160;;3;202;block1_Pilot_2;13;h_s;h_s_weak;;;;;0;0;0;0;0;113;113;113;;;;;;;;;890.2688426999375;None;891.97291329992;892.2616558000445;892.2616558000445;892.286197300069;892.286197300069;892.3270751000382;892.3270751000382;None;9;0;892.3270751000382;None;893.8271051000338;None;['7'];893.8271051000338;None;0.6408867000136524;[0.2847894998267293];;;;;;;Emoconpilot025;2021_Oct_19_1106;BackwardMask;2020.2.8;120.05335150070697;
;f;019_m_f_s_a.jpg;sad;7;4;m;004_o_m_n_a.jpg;neutral;incongruent;8;mismatch;;130;170;;1;238;block1_Pilot_2;19;s_n;s_n_strong;;;;;0;0;0;0;0;114;114;114;;;;;;;;;896.8280267000664;None;898.8296588999219;899.1204540000763;899.1204540000763;899.1281405999325;899.1281405999325;899.1689164000563;899.1689164000563;None;None;0;899.1689164000563;None;900.6690805999096;None;['9'];900.6690805999096;None;;[0.35484140017069876];;;;;;;Emoconpilot025;2021_Oct_19_1106;BackwardMask;2020.2.8;120.05335150070697;
;f;028_y_f_n_a.jpg;neutral;8;27;m;027_o_m_s_a.jpg;sad;incongruent;7;mismatch;;140;160;;18;238;block1_Pilot_2;28;n_s;n_s_strong;;;;;0;0;0;0;0;115;115;115;;;;;;;;;903.6691961998586;None;905.6711963000707;905.9622327000834;905.9622327000834;906.1117126999889;906.1117126999889;906.1525651998818;906.1525651998818;None;8;0;906.1525651998818;None;907.6535147998948;None;['7'];907.6535147998948;None;0.6153535000048578;[0.6023176000453532];;;;;;;Emoconpilot025;2021_Oct_19_1106;BackwardMask;2020.2.8;120.05335150070697;
;m;013_y_m_s_a.jpg;sad;7;12;f;012_o_f_h_a.jpg;happy;incongruent;9;mismatch;;130;150;;1;238;block1_Pilot_2;13;s_h;s_h_strong;;;;;0;0;0;0;0;116;116;116;;;;;;;;;910.653525599977;None;912.6443590999115;912.9371424999554;912.9371424999554;912.9450179000851;912.9450179000851;912.9859422000591;912.9859422000591;None;None;0;912.9859422000591;None;914.4861051999032;None;['9'];914.4861051999032;None;;[0.2977543000597507];;;;;;;Emoconpilot025;2021_Oct_19_1106;BackwardMask;2020.2.8;120.05335150070697;
;m;016_y_m_s_a.jpg;sad;7;19;f;019_m_f_h_a.jpg;happy;incongruent;9;mismatch;;130;150;;1;238;block1_Pilot_2;16;s_h;s_h_strong;;;;;0;0;0;0;0;117;117;117;;;;;;;;;917.4865560999606;None;919.4774175998755;919.7702860999852;919.7702860999852;919.7783810000401;919.7783810000401;919.8194641999435;919.8194641999435;None;None;0;919.8194641999435;None;921.3194482000545;None;['9'];921.3194482000545;None;;[1.0883063001092523];;;;;;;Emoconpilot025;2021_Oct_19_1106;BackwardMask;2020.2.8;120.05335150070697;
;m;013_y_m_s_a.jpg;sad;7;21;f;021_o_f_h_a.jpg;happy;incongruent;9;mismatch;;130;150;;18;238;block1_Pilot_2;13;s_h;s_h_strong;;;;;0;0;0;0;0;118;118;118;;;;;;;;;924.319522799924;None;926.3116031999234;926.6036473999266;926.6036473999266;926.7537068999372;926.7537068999372;926.7945415999275;926.7945415999275;None;7;0;926.7945415999275;None;928.2950480999425;None;['7'];928.2950480999425;None;0.9412565999664366;[0.37678849999792874];;;;;;;Emoconpilot025;2021_Oct_19_1106;BackwardMask;2020.2.8;120.05335150070697;
;f;012_o_f_s_a.jpg;sad;7;13;m;013_y_m_h_a.jpg;happy;incongruent;9;mismatch;;130;150;;3;235;block1_Pilot_2;12;s_h;s_h_weak;;;;;0;0;0;0;0;119;119;119;;;;;;;;;931.2953765999991;None;933.2561619998887;933.553874499863;933.553874499863;933.5788346999325;933.5788346999325;933.6195654000621;933.6195654000621;None;7;0;933.6195654000621;None;935.1198698000517;None;['7'];935.1198698000517;None;1.0523771999869496;[0.30395159986801445];;;;;;;Emoconpilot025;2021_Oct_19_1106;BackwardMask;2020.2.8;120.05335150070697;
;f;019_m_f_s_a.jpg;sad;7;30;f;030_o_f_h_a.jpg;happy;incongruent;9;match;;130;150;;3;235;block2_Pilot_2;19;s_h;s_h_strong;;;;;0;1;1;1;0;0;0;0;;;;;;;;;958.1585146000143;None;960.1340081000235;960.4300065999851;960.4300065999851;960.4543544999324;960.4543544999324;960.4953333998565;960.4953333998565;None;7;0;960.4953333998565;None;961.9955638998654;None;['8'];961.9955638998654;None;1.2325214999727905;[0.7000619999598712];;;938.1203640999738;None;;;Emoconpilot025;2021_Oct_19_1106;BackwardMask;2020.2.8;120.05335150070697;
;m;008_y_m_n_a.jpg;neutral;8;40;f;040_y_f_h_a.jpg;happy;incongruent;9;mismatch;;140;150;;2;121;block2_Pilot_2;8;n_h;n_h_strong;;;;;0;1;1;1;0;1;1;1;;;;;;;;;964.9960199999623;None;966.0227862000465;966.3132674000226;966.3132674000226;966.3295279999729;966.3295279999729;966.3703691998962;966.3703691998962;None;8;0;966.3703691998962;None;967.8704716998618;None;['8'];967.8704716998618;None;0.9734426001086831;[0.2653940001036972];;;;;;;Emoconpilot025;2021_Oct_19_1106;BackwardMask;2020.2.8;120.05335150070697;
;f;012_o_f_h_a.jpg;happy;9;27;m;027_o_m_n_a.jpg;neutral;incongruent;8;mismatch;;120;170;;2;240;block2_Pilot_2;12;h_n;h_n_weak;;;;;0;1;1;1;0;2;2;2;;;;;;;;;970.8706318000332;None;972.8785385999363;973.1714300999884;973.1714300999884;973.1878253000323;973.1878253000323;973.2288184000645;973.2288184000645;None;9;0;973.2288184000645;None;974.7288571998943;None;['8'];974.7288571998943;None;0.715101599926129;[0.38307170011103153];;;;;;;Emoconpilot025;2021_Oct_19_1106;BackwardMask;2020.2.8;120.05335150070697;
;m;008_y_m_h_a.jpg;happy;9;40;f;040_y_f_h_a.jpg;happy;congruent;9;mismatch;;120;150;;18;195;block2_Pilot_2;8;h_h;h_h_strong;;;;;0;1;1;1;0;3;3;3;;;;;;;;;977.7290147000458;None;979.3608802000526;979.6548955000471;979.6548955000471;979.8047571000643;979.8047571000643;979.8455876999069;979.8455876999069;None;9;1;979.8455876999069;None;981.345642299857;None;['7'];981.345642299857;None;0.5862310999073088;[0.33412940008565784];;;;;;;Emoconpilot025;2021_Oct_19_1106;BackwardMask;2020.2.8;120.05335150070697;
;m;004_o_m_n_a.jpg;neutral;8;33;m;033_o_m_s_a.jpg;sad;incongruent;7;match;;140;160;;18;126;block2_Pilot_2;4;n_s;n_s_weak;;;;;0;1;1;1;0;4;4;4;;;;;;;;;984.3457317000721;None;985.4353407998569;985.7305065998808;985.7305065998808;985.8798839999363;985.8798839999363;985.9209251999855;985.9209251999855;None;7;1;985.9209251999855;None;987.4207122998778;None;['8'];987.4207122998778;None;1.2069244999438524;[0.579096500063315];;;;;;;Emoconpilot025;2021_Oct_19_1106;BackwardMask;2020.2.8;120.05335150070697;
;f;028_y_f_s_a.jpg;sad;7;27;m;027_o_m_n_a.jpg;neutral;incongruent;8;mismatch;;130;170;;18;225;block2_Pilot_2;28;s_n;s_n_strong;;;;;0;1;1;1;0;5;5;5;;;;;;;;;990.4209141000174;None;992.3104034999851;992.6054555999581;992.6054555999581;992.7549997000024;992.7549997000024;992.7959632999264;992.7959632999264;None;7;0;992.7959632999264;None;994.2958251000382;None;['7'];994.2958251000382;None;1.1078937000129372;[0.41598720010370016];;;;;;;Emoconpilot025;2021_Oct_19_1106;BackwardMask;2020.2.8;120.05335150070697;
;m;027_o_m_s_a.jpg;sad;7;30;f;030_o_f_h_a.jpg;happy;incongruent;9;mismatch;;130;150;;18;238;block2_Pilot_2;27;s_h;s_h_weak;;;;;0;1;1;1;0;6;6;6;;;;;;;;;997.2962567999493;None;999.287239599973;999.580348599935;999.580348599935;999.7300891999621;999.7300891999621;999.771074899938;999.771074899938;None;7;0;999.771074899938;None;1001.2715727998875;None;['7'];1001.2715727998875;None;0.5328586001414806;[0.2882266000378877];;;;;;;Emoconpilot025;2021_Oct_19_1106;BackwardMask;2020.2.8;120.05335150070697;
;m;033_o_m_h_a.jpg;happy;9;40;f;040_y_f_s_a.jpg;sad;incongruent;7;mismatch;;120;160;;1;238;block2_Pilot_2;33;h_s;h_s_strong;;;;;0;1;1;1;0;7;7;7;;;;;;;;;1004.2719429000281;None;1006.2628206999507;1006.555366900051;1006.555366900051;1006.5637266000267;1006.5637266000267;1006.6044735999312;1006.6044735999312;None;None;0;1006.6044735999312;None;1008.1043930999003;None;['9'];1008.1043930999003;None;;[0.2712022999767214];;;;;;;Emoconpilot025;2021_Oct_19_1106;BackwardMask;2020.2.8;120.05335150070697;
;f;012_o_f_n_a.jpg;neutral;8;12;f;012_o_f_h_a.jpg;happy;incongruent;9;match;;140;150;;2;200;block2_Pilot_2;12;n_h;n_h_weak;;;;;0;1;1;1;0;8;8;8;;;;;;;;;1011.1048397999257;None;1012.8037246000022;1013.097854499938;1013.097854499938;1013.1136218998581;1013.1136218998581;1013.1546590998769;1013.1546590998769;None;None;0;1013.1546590998769;None;1014.6545825998764;None;"['8', '8']";1014.6545825998764;None;;"[0.12103069992735982, 0.6332312000449747]";;;;;;;Emoconpilot025;2021_Oct_19_1106;BackwardMask;2020.2.8;120.05335150070697;
;f;030_o_f_n_a.jpg;neutral;8;19;f;019_m_f_n_a.jpg;neutral;congruent;8;match;;140;170;;1;238;block2_Pilot_2;30;n_n;n_n_weak;;;;;0;1;1;1;0;9;9;9;;;;;;;;;1017.654919499997;None;1019.6585119999945;1019.9477470999118;1019.9477470999118;1019.9556614998728;1019.9556614998728;1019.9965762998909;1019.9965762998909;None;None;0;1019.9965762998909;None;1021.4964670999907;None;['9'];1021.4964670999907;None;;[0.2314055000897497];;;;;;;Emoconpilot025;2021_Oct_19_1106;BackwardMask;2020.2.8;120.05335150070697;
;m;013_y_m_h_a.jpg;happy;9;8;m;008_y_m_n_a.jpg;neutral;incongruent;8;match;;120;170;;1;238;block2_Pilot_2;13;h_n;h_n_strong;;;;;0;1;1;1;0;10;10;10;;;;;;;;;1024.4972945000045;None;1026.499106900068;1026.7895988998935;1026.7895988998935;1026.7974266998935;1026.7974266998935;1026.8381817999762;1026.8381817999762;None;None;0;1026.8381817999762;None;1028.3383615999483;None;['9'];1028.3383615999483;None;;[0.26155960001051426];;;;;;;Emoconpilot025;2021_Oct_19_1106;BackwardMask;2020.2.8;120.05335150070697;
;f;040_y_f_h_a.jpg;happy;9;19;f;019_m_f_s_a.jpg;sad;incongruent;7;match;;120;160;;3;133;block2_Pilot_2;40;h_s;h_s_strong;;;;;0;1;1;1;0;11;11;11;;;;;;;;;1031.3385014999658;None;1032.4550163000822;1032.7477756999433;1032.7477756999433;1032.7725609999616;1032.7725609999616;1032.813389299903;1032.813389299903;None;9;0;1032.813389299903;None;1034.3133994999807;None;['7'];1034.3133994999807;None;0.666346900165081;[0.262200600001961];;;;;;;Emoconpilot025;2021_Oct_19_1106;BackwardMask;2020.2.8;120.05335150070697;
;f;040_y_f_h_a.jpg;happy;9;13;m;013_y_m_s_a.jpg;sad;incongruent;7;mismatch;;120;160;;3;226;block2_Pilot_2;40;h_s;h_s_strong;;;;;0;1;1;1;0;12;12;12;;;;;;;;;1037.3144253999926;None;1039.2050596000627;1039.497767199995;1039.497767199995;1039.5225322998594;1039.5225322998594;1039.5634967999067;1039.5634967999067;None;9;0;1039.5634967999067;None;1041.0637550000101;None;['7'];1041.0637550000101;None;0.6040757999289781;[0.2720983000472188];;;;;;;Emoconpilot025;2021_Oct_19_1106;BackwardMask;2020.2.8;120.05335150070697;
;f;030_o_f_s_a.jpg;sad;7;27;m;027_o_m_h_a.jpg;happy;incongruent;9;mismatch;;130;150;;1;238;block2_Pilot_2;30;s_h;s_h_strong;;;;;0;1;1;1;0;13;13;13;;;;;;;;;1044.0637342000846;None;1046.0902048998978;1046.381721300073;1046.381721300073;1046.3894940000027;1046.3894940000027;1046.4304448999465;1046.4304448999465;None;None;0;1046.4304448999465;None;1047.9304971999954;None;['9'];1047.9304971999954;None;;[0.2853246000595391];;;;;;;Emoconpilot025;2021_Oct_19_1106;BackwardMask;2020.2.8;120.05335150070697;
;m;033_o_m_h_a.jpg;happy;9;30;f;030_o_f_s_a.jpg;sad;incongruent;7;mismatch;;120;160;;1;238;block2_Pilot_2;33;h_s;h_s_weak;;;;;0;1;1;1;0;14;14;14;;;;;;;;;1050.9309708999936;None;1052.9221433999483;1053.2146636999678;1053.2146636999678;1053.2228920999914;1053.2228920999914;1053.2638946999796;1053.2638946999796;None;None;0;1053.2638946999796;None;1054.763846799964;None;['9'];1054.763846799964;None;;[0.29197210003621876];;;;;;;Emoconpilot025;2021_Oct_19_1106;BackwardMask;2020.2.8;120.05335150070697;
;f;030_o_f_s_a.jpg;sad;7;28;f;028_y_f_n_a.jpg;neutral;incongruent;8;match;;130;170;;3;198;block2_Pilot_2;30;s_n;s_n_weak;;;;;0;1;1;1;0;15;15;15;;;;;;;;;1057.7645103000104;None;1059.4551740000024;1059.7484879000112;1059.7484879000112;1059.7731041999068;1059.7731041999068;1059.8136141998693;1059.8136141998693;None;None;0;1059.8136141998693;None;1061.3140263999812;None;['8'];1061.3140263999812;None;;[0.5019036000594497];;;;;;;Emoconpilot025;2021_Oct_19_1106;BackwardMask;2020.2.8;120.05335150070697;
;f;030_o_f_s_a.jpg;sad;7;33;m;033_o_m_h_a.jpg;happy;incongruent;9;mismatch;;130;150;;3;175;block2_Pilot_2;30;s_h;s_h_weak;;;;;0;1;1;1;0;16;16;16;;;;;;;;;1064.31483999989;None;1065.7913849998731;1066.0823075999506;1066.0823075999506;1066.1063141999766;1066.1063141999766;1066.1474552000873;1066.1474552000873;None;None;0;1066.1474552000873;None;1067.6479070999194;None;['9'];1067.6479070999194;None;;[0.984011699911207];;;;;;;Emoconpilot025;2021_Oct_19_1106;BackwardMask;2020.2.8;120.05335150070697;
;f;021_o_f_h_a.jpg;happy;9;30;f;030_o_f_h_a.jpg;happy;congruent;9;match;;120;150;;2;194;block2_Pilot_2;21;h_h;h_h_strong;;;;;0;1;1;1;0;17;17;17;;;;;;;;;1070.648784399964;None;1072.2835500999354;1072.5739780000877;1072.5739780000877;1072.5900045000017;1072.5900045000017;1072.6309940998908;1072.6309940998908;None;9;1;1072.6309940998908;None;1074.1309567000717;None;['7'];1074.1309567000717;None;0.5928833999205381;[0.2928879999089986];;;;;;;Emoconpilot025;2021_Oct_19_1106;BackwardMask;2020.2.8;120.05335150070697;
;f;019_m_f_n_a.jpg;neutral;8;16;m;016_y_m_s_a.jpg;sad;incongruent;7;mismatch;;140;160;;18;163;block2_Pilot_2;19;n_s;n_s_weak;;;;;0;1;1;1;0;18;18;18;;;;;;;;;1077.130989300087;None;1078.5087478999048;1078.7989789999556;1078.7989789999556;1078.9483614999335;1078.9483614999335;1078.9893738999963;1078.9893738999963;None;8;0;1078.9893738999963;None;1080.4894453000743;None;['7'];1080.4894453000743;None;0.5785497999750078;[0.32642589998431504];;;;;;;Emoconpilot025;2021_Oct_19_1106;BackwardMask;2020.2.8;120.05335150070697;
;m;033_o_m_n_a.jpg;neutral;8;13;m;013_y_m_n_a.jpg;neutral;congruent;8;match;;140;170;;2;217;block2_Pilot_2;33;n_n;n_n_strong;;;;;0;1;1;1;0;19;19;19;;;;;;;;;1083.4895277998876;None;1085.3171492998954;1085.6074874999467;1085.6074874999467;1085.62375109992;1085.62375109992;1085.6645295999479;1085.6645295999479;None;8;1;1085.6645295999479;None;1087.1643107000273;None;['8'];1087.1643107000273;None;1.1992197998333722;[0.6834887999575585];;;;;;;Emoconpilot025;2021_Oct_19_1106;BackwardMask;2020.2.8;120.05335150070697;
;m;033_o_m_h_a.jpg;happy;9;13;m;013_y_m_n_a.jpg;neutral;incongruent;8;match;;120;170;;2;227;block2_Pilot_2;33;h_n;h_n_weak;;;;;0;1;1;1;0;20;20;20;;;;;;;;;1090.1655864000786;None;1092.0639210999943;1092.357257900061;1092.357257900061;1092.373556900071;1092.373556900071;1092.414631200023;1092.414631200023;None;9;0;1092.414631200023;None;1093.9147034999914;None;['7'];1093.9147034999914;None;0.729272099910304;[0.3731420000549406];;;;;;;Emoconpilot025;2021_Oct_19_1106;BackwardMask;2020.2.8;120.05335150070697;
;f;012_o_f_s_a.jpg;sad;7;16;m;016_y_m_n_a.jpg;neutral;incongruent;8;mismatch;;130;170;;1;238;block2_Pilot_2;12;s_n;s_n_weak;;;;;0;1;1;1;0;21;21;21;;;;;;;;;1096.9153664000332;None;1098.901316100033;1099.1989056998864;1099.1989056998864;1099.2071896998677;1099.2071896998677;1099.2480595998932;1099.2480595998932;None;None;0;1099.2480595998932;None;1100.7481350000016;None;['9'];1100.7481350000016;None;;[0.3795489000622183];;;;;;;Emoconpilot025;2021_Oct_19_1106;BackwardMask;2020.2.8;120.05335150070697;
;f;028_y_f_n_a.jpg;neutral;8;21;f;021_o_f_h_a.jpg;happy;incongruent;9;match;;140;150;;18;202;block2_Pilot_2;28;n_h;n_h_strong;;;;;0;1;1;1;0;22;22;22;;;;;;;;;1103.7483121000696;None;1105.4526154000778;1105.7412312000524;1105.7412312000524;1105.8907667999156;1105.8907667999156;1105.9315009000711;1105.9315009000711;None;8;0;1105.9315009000711;None;1107.4314252999611;None;['7'];1107.4314252999611;None;0.604084299877286;[0.42433409998193383];;;;;;;Emoconpilot025;2021_Oct_19_1106;BackwardMask;2020.2.8;120.05335150070697;
;f;028_y_f_s_a.jpg;sad;7;30;f;030_o_f_n_a.jpg;neutral;incongruent;8;match;;130;170;;2;127;block2_Pilot_2;28;s_n;s_n_weak;;;;;0;1;1;1;0;23;23;23;;;;;;;;;1110.4316433998756;None;1111.5014684000053;1111.7911771000363;1111.7911771000363;1111.8074823999777;1111.8074823999777;1111.8484958999325;1111.8484958999325;None;9;0;1111.8484958999325;None;1113.348308299901;None;['8'];1113.348308299901;None;0.7032364001497626;[0.42742870002985];;;;;;;Emoconpilot025;2021_Oct_19_1106;BackwardMask;2020.2.8;120.05335150070697;
;m;004_o_m_n_a.jpg;neutral;8;40;f;040_y_f_n_a.jpg;neutral;congruent;8;mismatch;;140;170;;1;238;block2_Pilot_2;4;n_n;n_n_weak;;;;;0;1;1;1;0;24;24;24;;;;;;;;;1116.348499600077;None;1118.3767802000511;1118.666450599907;1118.666450599907;1118.6742922000121;1118.6742922000121;1118.715119499946;1118.715119499946;None;None;0;1118.715119499946;None;1120.2151093999855;None;['9'];1120.2151093999855;None;;[0.3127118998672813];;;;;;;Emoconpilot025;2021_Oct_19_1106;BackwardMask;2020.2.8;120.05335150070697;
;m;016_y_m_n_a.jpg;neutral;8;16;m;016_y_m_h_a.jpg;happy;incongruent;9;match;;140;150;;18;239;block2_Pilot_2;16;n_h;n_h_weak;;;;;0;1;1;1;0;25;25;25;;;;;;;;;1123.2155238999985;None;1125.2262703999877;1125.5166915000882;1125.5166915000882;1125.6660006998572;1125.6660006998572;1125.7069510000292;1125.7069510000292;None;8;0;1125.7069510000292;None;1127.2070368998684;None;['7'];1127.2070368998684;None;0.5488668999169022;[0.3206987997982651];;;;;;;Emoconpilot025;2021_Oct_19_1106;BackwardMask;2020.2.8;120.05335150070697;
;f;012_o_f_n_a.jpg;neutral;8;33;m;033_o_m_n_a.jpg;neutral;congruent;8;mismatch;;140;170;;3;134;block2_Pilot_2;12;n_n;n_n_weak;;;;;0;1;1;1;0;26;26;26;;;;;;;;;1130.2076683000196;None;1131.3425284000114;1131.6333979000337;1131.6333979000337;1131.657928199973;1131.657928199973;1131.6989879000466;1131.6989879000466;None;8;1;1131.6989879000466;None;1133.1987518998794;None;['8'];1133.1987518998794;None;0.7326239999383688;[0.2569186999462545];;;;;;;Emoconpilot025;2021_Oct_19_1106;BackwardMask;2020.2.8;120.05335150070697;
;m;013_y_m_h_a.jpg;happy;9;27;m;027_o_m_s_a.jpg;sad;incongruent;7;match;;120;160;;2;194;block2_Pilot_2;13;h_s;h_s_strong;;;;;0;1;1;1;0;27;27;27;;;;;;;;;1136.1987821999937;None;1137.8359800998587;1138.125158800045;1138.125158800045;1138.1413201000541;1138.1413201000541;1138.1821973000187;1138.1821973000187;None;9;0;1138.1821973000187;None;1139.6822231998667;None;['7'];1139.6822231998667;None;0.6576459999196231;[0.2775838999077678];;;;;;;Emoconpilot025;2021_Oct_19_1106;BackwardMask;2020.2.8;120.05335150070697;
;m;013_y_m_n_a.jpg;neutral;8;28;f;028_y_f_n_a.jpg;neutral;congruent;8;mismatch;;140;170;;1;238;block2_Pilot_2;13;n_n;n_n_weak;;;;;0;1;1;1;0;28;28;28;;;;;;;;;1142.682219200069;None;1144.6847020999994;1144.9752344998997;1144.9752344998997;1144.9830143998843;1144.9830143998843;1145.0239367999602;1145.0239367999602;None;None;0;1145.0239367999602;None;1146.5242621998768;None;['9'];1146.5242621998768;None;;[0.32353450008668005];;;;;;;Emoconpilot025;2021_Oct_19_1106;BackwardMask;2020.2.8;120.05335150070697;
;f;030_o_f_s_a.jpg;sad;7;33;m;033_o_m_h_a.jpg;happy;incongruent;9;mismatch;;130;150;;3;168;block2_Pilot_2;30;s_h;s_h_weak;;;;;0;1;1;1;0;29;29;29;;;;;;;;;1149.5242014999967;None;1150.9436444998719;1151.2340619000606;1151.2340619000606;1151.258238099981;1151.258238099981;1151.298973100027;1151.298973100027;None;7;0;1151.298973100027;None;1152.799171200022;None;['8'];1152.799171200022;None;1.1648391999769956;[0.28048980003222823];;;;;;;Emoconpilot025;2021_Oct_19_1106;BackwardMask;2020.2.8;120.05335150070697;
;m;008_y_m_n_a.jpg;neutral;8;12;f;012_o_f_n_a.jpg;neutral;congruent;8;mismatch;;140;170;;18;208;block2_Pilot_2;8;n_n;n_n_weak;;;;;0;1;1;1;0;30;30;30;;;;;;;;;1155.8002754000481;None;1157.5525553999469;1157.8421847000718;1157.8421847000718;1157.9917422998697;1157.9917422998697;1158.0325680999085;1158.0325680999085;None;8;1;1158.0325680999085;None;1159.5325794999953;None;['7'];1159.5325794999953;None;0.51910649985075;[0.3072512000799179];;;;;;;Emoconpilot025;2021_Oct_19_1106;BackwardMask;2020.2.8;120.05335150070697;
;m;008_y_m_s_a.jpg;sad;7;4;m;004_o_m_n_a.jpg;neutral;incongruent;8;match;;130;170;;2;231;block2_Pilot_2;8;s_n;s_n_weak;;;;;0;1;1;1;0;31;31;31;;;;;;;;;1162.533301499905;None;1164.4778052999172;1164.7673762999475;1164.7673762999475;1164.783308400074;1164.783308400074;1164.8244181000628;1164.8244181000628;None;None;0;1164.8244181000628;None;1166.3242957999464;None;['9'];1166.3242957999464;None;;[0.28350489982403815];;;;;;;Emoconpilot025;2021_Oct_19_1106;BackwardMask;2020.2.8;120.05335150070697;
;m;016_y_m_n_a.jpg;neutral;8;28;f;028_y_f_n_a.jpg;neutral;congruent;8;mismatch;;140;170;;2;218;block2_Pilot_2;16;n_n;n_n_weak;;;;;0;1;1;1;0;32;32;32;;;;;;;;;1169.3244310000446;None;1171.1598730999976;1171.4507259998936;1171.4507259998936;1171.4671044000424;1171.4671044000424;1171.5079008999746;1171.5079008999746;None;8;1;1171.5079008999746;None;1173.0079874999356;None;['8'];1173.0079874999356;None;0.6918792999349535;[0.25583879998885095];;;;;;;Emoconpilot025;2021_Oct_19_1106;BackwardMask;2020.2.8;120.05335150070697;
;m;033_o_m_n_a.jpg;neutral;8;33;m;033_o_m_s_a.jpg;sad;incongruent;7;match;;140;160;;3;141;block2_Pilot_2;33;n_s;n_s_weak;;;;;0;1;1;1;0;33;33;33;;;;;;;;;1176.0079395000357;None;1177.202238299884;1177.4927517999895;1177.4927517999895;1177.5171622000635;1177.5171622000635;1177.5581376000773;1177.5581376000773;None;7;1;1177.5581376000773;None;1179.0581759000197;None;['8'];1179.0581759000197;None;0.961430300027132;[0.4934996999800205];;;;;;;Emoconpilot025;2021_Oct_19_1106;BackwardMask;2020.2.8;120.05335150070697;
;m;016_y_m_n_a.jpg;neutral;8;13;m;013_y_m_s_a.jpg;sad;incongruent;7;match;;140;160;;1;238;block2_Pilot_2;16;n_s;n_s_weak;;;;;0;1;1;1;0;34;34;34;;;;;;;;;1182.0582651000004;None;1184.060581699945;1184.3510388999712;1184.3510388999712;1184.3588636999484;1184.3588636999484;1184.3999149999581;1184.3999149999581;None;None;0;1184.3999149999581;None;1185.9001507000066;None;['9'];1185.9001507000066;None;;[0.30772550008259714];;;;;;;Emoconpilot025;2021_Oct_19_1106;BackwardMask;2020.2.8;120.05335150070697;
;f;030_o_f_h_a.jpg;happy;9;12;f;012_o_f_n_a.jpg;neutral;incongruent;8;match;;120;170;;3;190;block2_Pilot_2;30;h_n;h_n_weak;;;;;0;1;1;1;0;35;35;35;;;;;;;;;1188.9008170000743;None;1190.5034226998687;1190.7930316000711;1190.7930316000711;1190.8174222998787;1190.8174222998787;1190.8583094999194;1190.8583094999194;None;9;0;1190.8583094999194;None;1192.3583730000537;None;['7'];1192.3583730000537;None;0.5975955999456346;[0.2975037998985499];;;;;;;Emoconpilot025;2021_Oct_19_1106;BackwardMask;2020.2.8;120.05335150070697;
;f;030_o_f_s_a.jpg;sad;7;12;f;012_o_f_n_a.jpg;neutral;incongruent;8;match;;130;170;;3;197;block2_Pilot_2;30;s_n;s_n_strong;;;;;0;1;1;1;0;36;36;36;;;;;;;;;1195.3591793000232;None;1197.01936809998;1197.309863399947;1197.309863399947;1197.3340338999406;1197.3340338999406;1197.3752363999374;1197.3752363999374;None;7;0;1197.3752363999374;None;1198.8750539000612;None;['8'];1198.8750539000612;None;1.4165879001375288;[0.46078389999456704];;;;;;;Emoconpilot025;2021_Oct_19_1106;BackwardMask;2020.2.8;120.05335150070697;
;m;004_o_m_s_a.jpg;sad;7;8;m;008_y_m_h_a.jpg;happy;incongruent;9;match;;130;150;;3;201;block2_Pilot_2;4;s_h;s_h_strong;;;;;0;1;1;1;0;37;37;37;;;;;;;;;1201.8753988000099;None;1203.5574946000706;1203.851313299965;1203.851313299965;1203.876026300015;1203.876026300015;1203.916784599889;1203.916784599889;None;9;1;1203.916784599889;None;1205.4170208000578;None;['8'];1205.4170208000578;None;1.131071399897337;[0.502792599843815];;;;;;;Emoconpilot025;2021_Oct_19_1106;BackwardMask;2020.2.8;120.05335150070697;
;f;040_y_f_n_a.jpg;neutral;8;16;m;016_y_m_n_a.jpg;neutral;congruent;8;mismatch;;140;170;;3;198;block2_Pilot_2;40;n_n;n_n_strong;;;;;0;1;1;1;0;38;38;38;;;;;;;;;1208.4177699000575;None;1210.0891048999038;1210.3851194998715;1210.3851194998715;1210.4095093999058;1210.4095093999058;1210.4503629000392;1210.4503629000392;None;8;1;1210.4503629000392;None;1211.950452500023;None;['8'];1211.950452500023;None;0.72554020001553;[0.24934939993545413];;;;;;;Emoconpilot025;2021_Oct_19_1106;BackwardMask;2020.2.8;120.05335150070697;
;m;027_o_m_n_a.jpg;neutral;8;16;m;016_y_m_s_a.jpg;sad;incongruent;7;match;;140;160;;1;238;block2_Pilot_2;27;n_s;n_s_strong;;;;;0;1;1;1;0;39;39;39;;;;;;;;;1214.9507219998632;None;1216.954128100071;1217.243654599879;1217.243654599879;1217.2512493000831;1217.2512493000831;1217.2923119999468;1217.2923119999468;None;None;0;1217.2923119999468;None;1218.7922312999144;None;['9'];1218.7922312999144;None;;[0.29534119996242225];;;;;;;Emoconpilot025;2021_Oct_19_1106;BackwardMask;2020.2.8;120.05335150070697;
;m;033_o_m_n_a.jpg;neutral;8;40;f;040_y_f_h_a.jpg;happy;incongruent;9;mismatch;;140;150;;2;137;block2_Pilot_2;33;n_h;n_h_strong;;;;;0;1;1;1;0;40;40;40;;;;;;;;;1221.793197199935;None;1222.9550361000001;1223.2436055999715;1223.2436055999715;1223.25974150002;1223.25974150002;1223.300596300047;1223.300596300047;None;7;0;1223.300596300047;None;1224.8007684999611;None;['8'];1224.8007684999611;None;1.059140200028196;[0.5189304000232369];;;;;;;Emoconpilot025;2021_Oct_19_1106;BackwardMask;2020.2.8;120.05335150070697;
;m;004_o_m_s_a.jpg;sad;7;8;m;008_y_m_h_a.jpg;happy;incongruent;9;match;;130;150;;18;193;block2_Pilot_2;4;s_h;s_h_strong;;;;;0;1;1;1;0;41;41;41;;;;;;;;;1227.8007624999154;None;1229.4173735000659;1229.709971099859;1229.709971099859;1229.8599626000505;1229.8599626000505;1229.9005823999178;1229.9005823999178;None;7;0;1229.9005823999178;None;1231.4006274000276;None;['7'];1231.4006274000276;None;0.7471042999532074;[0.3829828999005258];;;;;;;Emoconpilot025;2021_Oct_19_1106;BackwardMask;2020.2.8;120.05335150070697;
;f;012_o_f_h_a.jpg;happy;9;4;m;004_o_m_s_a.jpg;sad;incongruent;7;mismatch;;120;160;;3;198;block2_Pilot_2;12;h_s;h_s_weak;;;;;0;1;1;1;0;42;42;42;;;;;;;;;1234.4009831000585;None;1236.0591444000602;1236.351704499917;1236.351704499917;1236.3768074000254;1236.3768074000254;1236.4173476998694;1236.4173476998694;None;9;0;1236.4173476998694;None;1237.9176515000872;None;['7'];1237.9176515000872;None;0.6782250001560897;[0.3220651000738144];;;;;;;Emoconpilot025;2021_Oct_19_1106;BackwardMask;2020.2.8;120.05335150070697;
;f;012_o_f_n_a.jpg;neutral;8;8;m;008_y_m_s_a.jpg;sad;incongruent;7;mismatch;;140;160;;1;238;block2_Pilot_2;12;n_s;n_s_strong;;;;;0;1;1;1;0;43;43;43;;;;;;;;;1240.91767850006;None;1242.9219621000811;1243.2109693998937;1243.2109693998937;1243.2183528998867;1243.2183528998867;1243.2593058000784;1243.2593058000784;None;None;0;1243.2593058000784;None;1244.759244600078;None;['9'];1244.759244600078;None;;[0.3286332997959107];;;;;;;Emoconpilot025;2021_Oct_19_1106;BackwardMask;2020.2.8;120.05335150070697;
;f;040_y_f_n_a.jpg;neutral;8;8;m;008_y_m_n_a.jpg;neutral;congruent;8;mismatch;;140;170;;3;165;block2_Pilot_2;40;n_n;n_n_weak;;;;;0;1;1;1;0;44;44;44;;;;;;;;;1247.7603652998805;None;1249.1538724000566;1249.4440750000067;1249.4440750000067;1249.468654899858;1249.468654899858;1249.5096100999508;1249.5096100999508;None;8;1;1249.5096100999508;None;1251.009727000026;None;['8'];1251.009727000026;None;0.7220782998483628;[0.2940866001881659];;;;;;;Emoconpilot025;2021_Oct_19_1106;BackwardMask;2020.2.8;120.05335150070697;
;f;028_y_f_h_a.jpg;happy;9;33;m;033_o_m_n_a.jpg;neutral;incongruent;8;mismatch;;120;170;;1;238;block2_Pilot_2;28;h_n;h_n_strong;;;;;0;1;1;1;0;45;45;45;;;;;;;;;1254.010303699877;None;1256.0033787998836;1256.293982699979;1256.293982699979;1256.3020921999123;1256.3020921999123;1256.3428877000697;1256.3428877000697;None;None;0;1256.3428877000697;None;1257.8428420999553;None;['9'];1257.8428420999553;None;;[0.30873669986613095];;;;;;;Emoconpilot025;2021_Oct_19_1106;BackwardMask;2020.2.8;120.05335150070697;
;m;027_o_m_s_a.jpg;sad;7;19;f;019_m_f_n_a.jpg;neutral;incongruent;8;mismatch;;130;170;;2;236;block2_Pilot_2;27;s_n;s_n_weak;;;;;0;1;1;1;0;46;46;46;;;;;;;;;1260.8440851999912;None;1262.8177972999401;1263.1106851999648;1263.1106851999648;1263.127123599872;1263.127123599872;1263.16792659997;1263.16792659997;None;7;0;1263.16792659997;None;1264.6680383000057;None;['8'];1264.6680383000057;None;0.9679483999498188;[0.4437394000124186];;;;;;;Emoconpilot025;2021_Oct_19_1106;BackwardMask;2020.2.8;120.05335150070697;
;m;027_o_m_h_a.jpg;happy;9;19;f;019_m_f_s_a.jpg;sad;incongruent;7;mismatch;;120;160;;1;238;block2_Pilot_2;27;h_s;h_s_strong;;;;;0;1;1;1;0;47;47;47;;;;;;;;;1267.6684031998739;None;1269.6989128000569;1269.9947140999138;1269.9947140999138;1270.00244309986;1270.00244309986;1270.0433491999283;1270.0433491999283;None;None;0;1270.0433491999283;None;1271.5434081000276;None;['9'];1271.5434081000276;None;;[0.2644515000283718];;;;;;;Emoconpilot025;2021_Oct_19_1106;BackwardMask;2020.2.8;120.05335150070697;
;m;016_y_m_h_a.jpg;happy;9;4;m;004_o_m_s_a.jpg;sad;incongruent;7;match;;120;160;;3;227;block2_Pilot_2;16;h_s;h_s_strong;;;;;0;1;1;1;0;48;48;48;;;;;;;;;1274.5439661000855;None;1276.444156799931;1276.735938699916;1276.735938699916;1276.7606812999584;1276.7606812999584;1276.8017041999847;1276.8017041999847;None;9;0;1276.8017041999847;None;1278.3017074998934;None;['7'];1278.3017074998934;None;1.0061362001579255;[0.43407120020128787];;;;;;;Emoconpilot025;2021_Oct_19_1106;BackwardMask;2020.2.8;120.05335150070697;
;f;040_y_f_h_a.jpg;happy;9;13;m;013_y_m_h_a.jpg;happy;congruent;9;mismatch;;120;150;;3;165;block2_Pilot_2;40;h_h;h_h_strong;;;;;0;1;1;1;0;49;49;49;;;;;;;;;1281.301926099928;None;1282.684923700057;1282.9777430999093;1282.9777430999093;1283.0028236999642;1283.0028236999642;1283.0435476999264;1283.0435476999264;None;9;1;1283.0435476999264;None;1284.543471999932;None;['7'];1284.543471999932;None;0.6203016000799835;[0.3121355001349002];;;;;;;Emoconpilot025;2021_Oct_19_1106;BackwardMask;2020.2.8;120.05335150070697;
;m;033_o_m_s_a.jpg;sad;7;28;f;028_y_f_n_a.jpg;neutral;incongruent;8;mismatch;;130;170;;2;227;block2_Pilot_2;33;s_n;s_n_weak;;;;;0;1;1;1;0;50;50;50;;;;;;;;;1287.5444811999332;None;1289.4425923998933;1289.736171900062;1289.736171900062;1289.7526829999406;1289.7526829999406;1289.7937086999882;1289.7937086999882;None;7;0;1289.7937086999882;None;1291.293786099879;None;['8'];1291.293786099879;None;0.8939592998940498;[0.39388820016756654];;;;;;;Emoconpilot025;2021_Oct_19_1106;BackwardMask;2020.2.8;120.05335150070697;
;f;019_m_f_s_a.jpg;sad;7;27;m;027_o_m_h_a.jpg;happy;incongruent;9;mismatch;;130;150;;1;238;block2_Pilot_2;19;s_h;s_h_weak;;;;;0;1;1;1;0;51;51;51;;;;;;;;;1294.2937922999263;None;1296.2999334998894;1296.5951745999046;1296.5951745999046;1296.6028259999584;1296.6028259999584;1296.6436546000186;1296.6436546000186;None;None;0;1296.6436546000186;None;1298.143730700016;None;['9'];1298.143730700016;None;;[0.30414199992083013];;;;;;;Emoconpilot025;2021_Oct_19_1106;BackwardMask;2020.2.8;120.05335150070697;
;m;016_y_m_h_a.jpg;happy;9;19;f;019_m_f_n_a.jpg;neutral;incongruent;8;mismatch;;120;170;;18;238;block2_Pilot_2;16;h_n;h_n_strong;;;;;0;1;1;1;0;52;52;52;;;;;;;;;1301.1448083999567;None;1303.1355725000612;1303.4282893000636;1303.4282893000636;1303.5779385999776;1303.5779385999776;1303.6188143999316;1303.6188143999316;None;9;0;1303.6188143999316;None;1305.1189152000006;None;['7'];1305.1189152000006;None;0.9967900000046939;[0.536828399868682];;;;;;;Emoconpilot025;2021_Oct_19_1106;BackwardMask;2020.2.8;120.05335150070697;
;f;021_o_f_s_a.jpg;sad;7;8;m;008_y_m_n_a.jpg;neutral;incongruent;8;mismatch;;130;170;;1;238;block2_Pilot_2;21;s_n;s_n_strong;;;;;0;1;1;1;0;53;53;53;;;;;;;;;1308.1198201999068;None;1310.1080072999466;1310.4032385000028;1310.4032385000028;1310.4115476999432;1310.4115476999432;1310.4524093999062;1310.4524093999062;None;None;0;1310.4524093999062;None;1311.9524920000695;None;['9'];1311.9524920000695;None;;[0.3111654999665916];;;;;;;Emoconpilot025;2021_Oct_19_1106;BackwardMask;2020.2.8;120.05335150070697;
;f;012_o_f_s_a.jpg;sad;7;33;m;033_o_m_s_a.jpg;sad;congruent;7;mismatch;;130;160;;2;148;block2_Pilot_2;12;s_s;s_s_weak;;;;;0;1;1;1;0;54;54;54;;;;;;;;;1314.952512399992;None;1316.1894296000246;1316.486719599925;1316.486719599925;1316.5032200000715;1316.5032200000715;1316.544180699857;1316.544180699857;None;None;0;1316.544180699857;None;1318.044240300078;None;['9'];1318.044240300078;None;;[0.30753850005567074];;;;;;;Emoconpilot025;2021_Oct_19_1106;BackwardMask;2020.2.8;120.05335150070697;
;f;030_o_f_s_a.jpg;sad;7;40;f;040_y_f_s_a.jpg;sad;congruent;7;match;;130;160;;3;136;block2_Pilot_2;30;s_s;s_s_strong;;;;;0;1;1;1;0;55;55;55;;;;;;;;;1321.0451205999125;None;1322.1986320000142;1322.4872766998596;1322.4872766998596;1322.5119020000566;1322.5119020000566;1322.5527121999767;1322.5527121999767;None;7;1;1322.5527121999767;None;1324.0526216998696;None;['8'];1324.0526216998696;None;0.926889100112021;[0.43526670010760427];;;;;;;Emoconpilot025;2021_Oct_19_1106;BackwardMask;2020.2.8;120.05335150070697;
;m;027_o_m_s_a.jpg;sad;7;28;f;028_y_f_h_a.jpg;happy;incongruent;9;mismatch;;130;150;;1;238;block2_Pilot_2;27;s_h;s_h_weak;;;;;0;1;1;1;0;56;56;56;;;;;;;;;1327.0527216000482;None;1329.044305599993;1329.3370391000062;1329.3370391000062;1329.3452059999108;1329.3452059999108;1329.3861618000083;1329.3861618000083;None;None;0;1329.3861618000083;None;1330.8861767998897;None;['9'];1330.8861767998897;None;;[0.39365880005061626];;;;;;;Emoconpilot025;2021_Oct_19_1106;BackwardMask;2020.2.8;120.05335150070697;
;m;004_o_m_n_a.jpg;neutral;8;8;m;008_y_m_s_a.jpg;sad;incongruent;7;match;;140;160;;3;225;block2_Pilot_2;4;n_s;n_s_strong;;;;;0;1;1;1;0;57;57;57;;;;;;;;;1333.886362500023;None;1335.7821795998607;1336.0708180998918;1336.0708180998918;1336.0953514000867;1336.0953514000867;1336.136293400079;1336.136293400079;None;8;0;1336.136293400079;None;1337.6360865999013;None;['8'];1337.6360865999013;None;0.8233727999031544;[0.6116688998881727];;;;;;;Emoconpilot025;2021_Oct_19_1106;BackwardMask;2020.2.8;120.05335150070697;
;f;012_o_f_s_a.jpg;sad;7;40;f;040_y_f_s_a.jpg;sad;congruent;7;match;;130;160;;1;238;block2_Pilot_2;12;s_s;s_s_strong;;;;;0;1;1;1;0;58;58;58;;;;;;;;;1340.636763599934;None;1342.6225334000774;1342.920535299927;1342.920535299927;1342.9286583000794;1342.9286583000794;1342.9698558000382;1342.9698558000382;None;None;0;1342.9698558000382;None;1344.469807599904;None;['9'];1344.469807599904;None;;[0.4898353999014944];;;;;;;Emoconpilot025;2021_Oct_19_1106;BackwardMask;2020.2.8;120.05335150070697;
;f;021_o_f_h_a.jpg;happy;9;4;m;004_o_m_n_a.jpg;neutral;incongruent;8;mismatch;;120;170;;1;238;block2_Pilot_2;21;h_n;h_n_weak;;;;;0;1;1;1;0;59;59;59;;;;;;;;;1347.4698176998645;None;1349.4736095999833;1349.7630914000329;1349.7630914000329;1349.7706087999977;1349.7706087999977;1349.8116641999222;1349.8116641999222;None;None;0;1349.8116641999222;None;1351.3115441999398;None;['9'];1351.3115441999398;None;;[0.5602546001318842];;;;;;;Emoconpilot025;2021_Oct_19_1106;BackwardMask;2020.2.8;120.05335150070697;
;f;040_y_f_h_a.jpg;happy;9;16;m;016_y_m_n_a.jpg;neutral;incongruent;8;mismatch;;120;170;;2;154;block2_Pilot_2;40;h_n;h_n_weak;;;;;0;1;1;1;0;60;60;60;;;;;;;;;1354.3124303000513;None;1355.6029378999956;1355.895784900058;1355.895784900058;1355.9124664999545;1355.9124664999545;1355.9532709999476;1355.9532709999476;None;9;0;1355.9532709999476;None;1357.4533768000547;None;['7'];1357.4533768000547;None;1.0225174000952393;[0.6983422001358122];;;;;;;Emoconpilot025;2021_Oct_19_1106;BackwardMask;2020.2.8;120.05335150070697;
;m;008_y_m_n_a.jpg;neutral;8;4;m;004_o_m_s_a.jpg;sad;incongruent;7;match;;140;160;;18;145;block2_Pilot_2;8;n_s;n_s_strong;;;;;0;1;1;1;0;61;61;61;;;;;;;;;1360.4534106000792;None;1361.6842996999621;1361.9798175999895;1361.9798175999895;1362.1292490998749;1362.1292490998749;1362.1700122000184;1362.1700122000184;None;8;0;1362.1700122000184;None;1363.6701557999477;None;['7'];1363.6701557999477;None;0.7578225999604911;[0.6895965000148863];;;;;;;Emoconpilot025;2021_Oct_19_1106;BackwardMask;2020.2.8;120.05335150070697;
;f;021_o_f_s_a.jpg;sad;7;33;m;033_o_m_h_a.jpg;happy;incongruent;9;mismatch;;130;150;;1;238;block2_Pilot_2;21;s_h;s_h_strong;;;;;0;1;1;1;0;62;62;62;;;;;;;;;1366.670145999873;None;1368.659349200083;1368.9546878000256;1368.9546878000256;1368.9626340998802;1368.9626340998802;1369.0036993999965;1369.0036993999965;None;None;0;1369.0036993999965;None;1370.5046280999668;None;['9'];1370.5046280999668;None;;[0.32724799984134734];;;;;;;Emoconpilot025;2021_Oct_19_1106;BackwardMask;2020.2.8;120.05335150070697;
;m;033_o_m_n_a.jpg;neutral;8;30;f;030_o_f_h_a.jpg;happy;incongruent;9;mismatch;;140;150;;18;171;block2_Pilot_2;33;n_h;n_h_weak;;;;;0;1;1;1;0;63;63;63;;;;;;;;;1373.504494599998;None;1374.9504924998619;1375.2469158999156;1375.2469158999156;1375.3961646999232;1375.3961646999232;1375.437171400059;1375.437171400059;None;8;0;1375.437171400059;None;1376.937141600065;None;['7'];1376.937141600065;None;0.7306151001248509;[0.334506600163877];;;;;;;Emoconpilot025;2021_Oct_19_1106;BackwardMask;2020.2.8;120.05335150070697;
;m;027_o_m_n_a.jpg;neutral;8;27;m;027_o_m_h_a.jpg;happy;incongruent;9;match;;140;150;;2;164;block2_Pilot_2;27;n_h;n_h_weak;;;;;0;1;1;1;0;64;64;64;;;;;;;;;1379.9381872999948;None;1381.3230496000033;1381.6136459000409;1381.6136459000409;1381.6296530999243;1381.6296530999243;1381.6703534999397;1381.6703534999397;None;None;0;1381.6703534999397;None;1383.1706733000465;None;['9'];1383.1706733000465;None;;[0.40500769997015595];;;;;;;Emoconpilot025;2021_Oct_19_1106;BackwardMask;2020.2.8;120.05335150070697;
;m;008_y_m_n_a.jpg;neutral;8;40;f;040_y_f_n_a.jpg;neutral;congruent;8;mismatch;;140;170;;1;238;block2_Pilot_2;8;n_n;n_n_strong;;;;;0;1;1;1;0;65;65;65;;;;;;;;;1386.171481099911;None;1388.1733981000725;1388.463621800067;1388.463621800067;1388.4714055000804;1388.4714055000804;1388.5122263000812;1388.5122263000812;None;None;0;1388.5122263000812;None;1390.0123212998733;None;['9'];1390.0123212998733;None;;[0.47537750005722046];;;;;;;Emoconpilot025;2021_Oct_19_1106;BackwardMask;2020.2.8;120.05335150070697;
;f;040_y_f_h_a.jpg;happy;9;21;f;021_o_f_n_a.jpg;neutral;incongruent;8;match;;120;170;;18;239;block2_Pilot_2;40;h_n;h_n_strong;;;;;0;1;1;1;0;66;66;66;;;;;;;;;1393.0124526000582;None;1395.0114645999856;1395.3050243000034;1395.3050243000034;1395.4548607000615;1395.4548607000615;1395.4956048999447;1395.4956048999447;None;9;0;1395.4956048999447;None;1396.9959058999084;None;['7'];1396.9959058999084;None;0.9602246000431478;[0.5559316000435501];;;;;;;Emoconpilot025;2021_Oct_19_1106;BackwardMask;2020.2.8;120.05335150070697;
;f;021_o_f_s_a.jpg;sad;7;28;f;028_y_f_h_a.jpg;happy;incongruent;9;match;;130;150;;1;238;block2_Pilot_2;21;s_h;s_h_weak;;;;;0;1;1;1;0;67;67;67;;;;;;;;;1399.996114099864;None;1401.985407799948;1402.2801693999209;1402.2801693999209;1402.2883778999094;1402.2883778999094;1402.3292147999164;1402.3292147999164;None;None;0;1402.3292147999164;None;1403.8293019998819;None;['9'];1403.8293019998819;None;;[0.3144030999392271];;;;;;;Emoconpilot025;2021_Oct_19_1106;BackwardMask;2020.2.8;120.05335150070697;
;f;021_o_f_n_a.jpg;neutral;8;30;f;030_o_f_n_a.jpg;neutral;congruent;8;match;;140;170;;2;209;block2_Pilot_2;21;n_n;n_n_strong;;;;;0;1;1;1;0;68;68;68;;;;;;;;;1406.8302194999997;None;1408.6015707000624;1408.8973008000758;1408.8973008000758;1408.9135272998828;1408.9135272998828;1408.9543804998975;1408.9543804998975;None;8;1;1408.9543804998975;None;1410.4543456998654;None;['8'];1410.4543456998654;None;0.8294070998672396;[0.2974658999592066];;;;;;;Emoconpilot025;2021_Oct_19_1106;BackwardMask;2020.2.8;120.05335150070697;
;f;040_y_f_s_a.jpg;sad;7;13;m;013_y_m_s_a.jpg;sad;congruent;7;mismatch;;130;160;;3;147;block2_Pilot_2;40;s_s;s_s_strong;;;;;0;1;1;1;0;69;69;69;;;;;;;;;1413.455527999904;None;1414.6873820999172;1414.9805000000633;1414.9805000000633;1415.0053041998763;1415.0053041998763;1415.046325800009;1415.046325800009;None;None;0;1415.046325800009;None;1416.5460870999377;None;['9'];1416.5460870999377;None;;[0.5254924998153001];;;;;;;Emoconpilot025;2021_Oct_19_1106;BackwardMask;2020.2.8;120.05335150070697;
;f;040_y_f_s_a.jpg;sad;7;21;f;021_o_f_h_a.jpg;happy;incongruent;9;match;;130;150;;3;172;block2_Pilot_2;40;s_h;s_h_strong;;;;;0;1;1;1;0;70;70;70;;;;;;;;;1419.547356999945;None;1420.987551300088;1421.2805444998667;1421.2805444998667;1421.305374099873;1421.305374099873;1421.3462880000006;1421.3462880000006;None;8;0;1421.3462880000006;None;1422.8463019998744;None;['8'];1422.8463019998744;None;0.8695136001333594;[0.393425100017339];;;;;;;Emoconpilot025;2021_Oct_19_1106;BackwardMask;2020.2.8;120.05335150070697;
