Person;primeGender;prime;primeEmotion;corrAnsPrime;targetPerson;targetGender;target;targetEmotion;Cond;corrAnsTar;gender;condition;ID_primer;ID_target;PrimerTime;PrimerTime120;JitterTime;conditionsFile;primePerson;emotion_condition;Condition;example.thisRepN;example.thisTrialN;example.thisN;example.thisIndex;readinBlocks.thisRepN;readinBlocks.thisTrialN;readinBlocks.thisN;readinBlocks.thisIndex;trials.thisRepN;trials.thisTrialN;trials.thisN;trials.thisIndex;text_intro.started;text_intro.stopped;text_probe.started;text_probe.stopped;key_resp_2.keys;key_resp_2.rt;key_resp_2.started;key_resp_2.stopped;polygon_ISI.started;polygon_ISI.stopped;polygon.started;polygon.stopped;primerImage.started;primerImage.stopped;maskImage.started;maskImage.stopped;response.started;response.stopped;key_resp.keys;key_resp.corr;key_resp.rt;key_resp.started;key_resp.stopped;text.started;text.stopped;key_resp_Rating.keys;key_resp_Rating.rt;key_resp_Rating.started;key_resp_Rating.stopped;text_start.started;text_start.stopped;text_pause.started;text_pause.stopped;participant;date;expName;psychopyVersion;frameRate;
;;;;;;;;;;;;;;;;;;;;;;;;;;;;;;;;;;349.80798100028187;354.77434970019385;354.77434970019385;None;7;9.10964130004868;349.80798100028187;None;;;;;;;;;;;;;;;;;;;;;;;;;;Emoconpilot038;2021_Dec_01_1625;BackwardMask;2020.2.8;120.0474426633815;
2;f;1113_y_f_s_a.jpg;sad;7;1;m;1111_m_m_h_a.jpg;happy;incongruent;9;mix;s+h;130;150;1;2;148;;;;;0;0;0;0;;;;;;;;;;;;;;;;;358.99815340014175;None;360.2513753999956;360.5639950004406;360.5639950004406;360.58032440021634;360.58032440021634;360.61527850013226;360.61527850013226;None;8;0;0.8383227000012994;360.61527850013226;None;362.11708470014855;None;['8'];[0.592451199889183];362.11708470014855;None;;;;;Emoconpilot038;2021_Dec_01_1625;BackwardMask;2020.2.8;120.0474426633815;
2;f;1111_m_m_h_a.jpg;happy;9;3;f;1113_y_f_s_a.jpg;sad;incongruent;7;mix;h+s;120;160;9;18;195;;;;;0;1;1;1;;;;;;;;;;;;;;;;;365.11627500038594;None;366.76832790020853;367.05867619998753;367.05867619998753;367.2081534001045;367.2081534001045;367.2488676002249;367.2488676002249;None;9;0;0.6368527999147773;367.2488676002249;None;368.74893190013245;None;['7'];[0.6727920998819172];368.74893190013245;None;;;;;Emoconpilot038;2021_Dec_01_1625;BackwardMask;2020.2.8;120.0474426633815;
2;f;1112_m_f_n_a.jpg;neutral;8;2;f;1112_m_f_n_a.jpg;neutral;congruent;8;match;n+n;140;170;9;18;134;;;;;0;2;2;2;;;;;;;;;;;;;;;;;371.7493750001304;None;372.89289250038564;373.1837239000015;373.1837239000015;373.33323840005323;373.33323840005323;373.3741101003252;373.3741101003252;None;8;1;0.6234773998148739;373.3741101003252;None;374.87397040007636;None;['7'];[0.5157101000659168];374.87397040007636;None;;;;;Emoconpilot038;2021_Dec_01_1625;BackwardMask;2020.2.8;120.0474426633815;
;m;033_o_m_h_a.jpg;happy;9;30;f;030_o_f_n_a.jpg;neutral;incongruent;8;mismatch;;120;170;;18;238;block1_Pilot_2;33;h_n;h_n_strong;;;;;0;0;0;0;0;0;0;0;;;;;;;;;378.9189344001934;None;380.9102203003131;381.19996170001104;381.19996170001104;381.3500475003384;381.3500475003384;381.3909889003262;381.3909889003262;None;9;0;0.3986609000712633;381.3909889003262;None;382.89148090034723;None;['7'];[0.5062068998813629];382.89148090034723;None;377.87440640013665;None;None;None;Emoconpilot038;2021_Dec_01_1625;BackwardMask;2020.2.8;120.0474426633815;
;m;004_o_m_h_a.jpg;happy;9;12;f;012_o_f_h_a.jpg;happy;congruent;9;mismatch;;120;150;;2;218;block1_Pilot_2;4;h_h;h_h_weak;;;;;0;0;0;0;0;1;1;1;;;;;;;;;385.89201150042936;None;387.74508670018986;388.034025200177;388.034025200177;388.0502357999794;388.0502357999794;388.0910353004001;388.0910353004001;None;9;1;0.642508499789983;388.0910353004001;None;389.5910830004141;None;['8'];[0.26259549986571074];389.5910830004141;None;;;;;Emoconpilot038;2021_Dec_01_1625;BackwardMask;2020.2.8;120.0474426633815;
;f;012_o_f_h_a.jpg;happy;9;33;m;033_o_m_h_a.jpg;happy;congruent;9;mismatch;;120;150;;2;140;block1_Pilot_2;12;h_h;h_h_weak;;;;;0;0;0;0;0;2;2;2;;;;;;;;;392.5923312003724;None;393.7720131999813;394.0671532000415;394.0671532000415;394.0837538000196;394.0837538000196;394.1245763003826;394.1245763003826;None;8;0;1.0650784997269511;394.1245763003826;None;395.62457310035825;None;['8'];[0.4929800000973046];395.62457310035825;None;;;;;Emoconpilot038;2021_Dec_01_1625;BackwardMask;2020.2.8;120.0474426633815;
;f;040_y_f_n_a.jpg;neutral;8;40;f;040_y_f_h_a.jpg;happy;incongruent;9;match;;140;150;;2;192;block1_Pilot_2;40;n_h;n_h_weak;;;;;0;0;0;0;0;3;3;3;;;;;;;;;398.6253418000415;None;400.2841215003282;400.5761432000436;400.5761432000436;400.5919548003003;400.5919548003003;400.6329413000494;400.6329413000494;None;8;0;0.5726327998563647;400.6329413000494;None;402.1328362002969;None;['7'];[0.4328842000104487];402.1328362002969;None;;;;;Emoconpilot038;2021_Dec_01_1625;BackwardMask;2020.2.8;120.0474426633815;
;m;013_y_m_s_a.jpg;sad;7;16;m;016_y_m_n_a.jpg;neutral;incongruent;8;match;;130;170;;3;155;block1_Pilot_2;13;s_n;s_n_weak;;;;;0;0;0;0;0;4;4;4;;;;;;;;;405.1331918002106;None;406.4401632002555;406.73406600020826;406.73406600020826;406.7589327003807;406.7589327003807;406.7996424003504;406.7996424003504;None;7;0;0.7899728002958;406.7996424003504;None;408.300003700424;None;['8'];[0.23365209996700287];408.300003700424;None;;;;;Emoconpilot038;2021_Dec_01_1625;BackwardMask;2020.2.8;120.0474426633815;
;f;012_o_f_h_a.jpg;happy;9;21;f;021_o_f_h_a.jpg;happy;congruent;9;match;;120;150;;2;216;block1_Pilot_2;12;h_h;h_h_strong;;;;;0;0;0;0;0;5;5;5;;;;;;;;;411.3007829003036;None;413.1066895001568;413.4011072004214;413.4011072004214;413.41743400041014;413.41743400041014;413.4581658001989;413.4581658001989;None;9;1;0.5955558000132442;413.4581658001989;None;414.95819390006363;None;['8'];[0.22336139995604753];414.95819390006363;None;;;;;Emoconpilot038;2021_Dec_01_1625;BackwardMask;2020.2.8;120.0474426633815;
;f;040_y_f_s_a.jpg;sad;7;40;f;040_y_f_h_a.jpg;happy;incongruent;9;match;;130;150;;1;238;block1_Pilot_2;40;s_h;s_h_weak;;;;;0;0;0;0;0;6;6;6;;;;;;;;;417.9591247001663;None;419.9587612003088;420.25115620018914;420.25115620018914;420.25931430002674;420.25931430002674;420.29998560016975;420.29998560016975;None;None;0;;420.29998560016975;None;421.80006420006976;None;['9'];[0.3656431999988854];421.80006420006976;None;;;;;Emoconpilot038;2021_Dec_01_1625;BackwardMask;2020.2.8;120.0474426633815;
;m;033_o_m_n_a.jpg;neutral;8;27;m;027_o_m_n_a.jpg;neutral;congruent;8;match;;140;170;;18;238;block1_Pilot_2;33;n_n;n_n_weak;;;;;0;0;0;0;0;7;7;7;;;;;;;;;424.8004509001039;None;426.8145649000071;427.10990240005776;427.10990240005776;427.2594264000654;427.2594264000654;427.3002137001604;427.3002137001604;None;8;1;0.465455399826169;427.3002137001604;None;428.80031650001183;None;['7'];[0.3013087003491819];428.80031650001183;None;;;;;Emoconpilot038;2021_Dec_01_1625;BackwardMask;2020.2.8;120.0474426633815;
;f;040_y_f_h_a.jpg;happy;9;19;f;019_m_f_n_a.jpg;neutral;incongruent;8;match;;120;170;;1;238;block1_Pilot_2;40;h_n;h_n_strong;;;;;0;0;0;0;0;8;8;8;;;;;;;;;431.80178290000185;None;433.7988699004054;434.0930071002804;434.0930071002804;434.10117420041934;434.10117420041934;434.1420410000719;434.1420410000719;None;None;0;;434.1420410000719;None;435.6422212002799;None;['9'];[0.48335180012509227];435.6422212002799;None;;;;;Emoconpilot038;2021_Dec_01_1625;BackwardMask;2020.2.8;120.0474426633815;
;m;013_y_m_h_a.jpg;happy;9;12;f;012_o_f_s_a.jpg;sad;incongruent;7;mismatch;;120;160;;3;198;block1_Pilot_2;13;h_s;h_s_weak;;;;;0;0;0;0;0;9;9;9;;;;;;;;;438.64279830036685;None;440.3181726001203;440.610170900356;440.610170900356;440.6346971001476;440.6346971001476;440.6754196002148;440.6754196002148;None;9;0;0.5622568000108004;440.6754196002148;None;442.175363200251;None;['8'];[0.25434349989518523];442.175363200251;None;;;;;Emoconpilot038;2021_Dec_01_1625;BackwardMask;2020.2.8;120.0474426633815;
;m;008_y_m_h_a.jpg;happy;9;4;m;004_o_m_n_a.jpg;neutral;incongruent;8;match;;120;170;;18;150;block1_Pilot_2;8;h_n;h_n_strong;;;;;0;0;0;0;0;10;10;10;;;;;;;;;445.17627930035815;None;446.44052470009774;446.73482330003753;446.73482330003753;446.88471440039575;446.88471440039575;446.9256771001965;446.9256771001965;None;9;0;0.49583370005711913;446.9256771001965;None;448.42557810014114;None;['7'];[0.2680927999317646];448.42557810014114;None;;;;;Emoconpilot038;2021_Dec_01_1625;BackwardMask;2020.2.8;120.0474426633815;
;f;019_m_f_h_a.jpg;happy;9;27;m;027_o_m_s_a.jpg;sad;incongruent;7;mismatch;;120;160;;1;238;block1_Pilot_2;19;h_s;h_s_weak;;;;;0;0;0;0;0;11;11;11;;;;;;;;;451.4259610003792;None;453.42442430043593;453.7182078002952;453.7182078002952;453.7265392001718;453.7265392001718;453.7674879003316;453.7674879003316;None;None;0;;453.7674879003316;None;455.2674665004015;None;['9'];[0.37804089998826385];455.2674665004015;None;;;;;Emoconpilot038;2021_Dec_01_1625;BackwardMask;2020.2.8;120.0474426633815;
;m;016_y_m_s_a.jpg;sad;7;4;m;004_o_m_s_a.jpg;sad;congruent;7;match;;130;160;;18;142;block1_Pilot_2;16;s_s;s_s_strong;;;;;0;0;0;0;0;12;12;12;;;;;;;;;458.2682931004092;None;459.46556200040504;459.7601585001685;459.7601585001685;459.91018940042704;459.91018940042704;459.9509680001065;459.9509680001065;None;7;1;0.862587200012058;459.9509680001065;None;461.4509412003681;None;['7'];[0.6346888998523355];461.4509412003681;None;;;;;Emoconpilot038;2021_Dec_01_1625;BackwardMask;2020.2.8;120.0474426633815;
;f;021_o_f_n_a.jpg;neutral;8;21;f;021_o_f_h_a.jpg;happy;incongruent;9;match;;140;150;;3;171;block1_Pilot_2;21;n_h;n_h_weak;;;;;0;0;0;0;0;13;13;13;;;;;;;;;464.4511446002871;None;465.9089701003395;466.2026037001051;466.2026037001051;466.22685920028016;466.22685920028016;466.2677498999983;466.2677498999983;None;8;0;0.5697786998935044;466.2677498999983;None;467.76782640023157;None;['8'];[0.25366410007700324];467.76782640023157;None;;;;;Emoconpilot038;2021_Dec_01_1625;BackwardMask;2020.2.8;120.0474426633815;
;f;012_o_f_h_a.jpg;happy;9;13;m;013_y_m_h_a.jpg;happy;congruent;9;mismatch;;120;150;;3;213;block1_Pilot_2;12;h_h;h_h_weak;;;;;0;0;0;0;0;14;14;14;;;;;;;;;470.768592200242;None;472.55087590031326;472.84368780022487;472.84368780022487;472.86846520006657;472.86846520006657;472.90954950032756;472.90954950032756;None;9;1;0.5039543001912534;472.90954950032756;None;474.4100585002452;None;['7'];[0.27558570029214025];474.4100585002452;None;;;;;Emoconpilot038;2021_Dec_01_1625;BackwardMask;2020.2.8;120.0474426633815;
;f;021_o_f_s_a.jpg;sad;7;27;m;027_o_m_n_a.jpg;neutral;incongruent;8;mismatch;;130;170;;3;174;block1_Pilot_2;21;s_n;s_n_weak;;;;;0;0;0;0;0;15;15;15;;;;;;;;;477.41048160009086;None;478.8714892002754;479.16056780004874;479.16056780004874;479.1854662001133;479.1854662001133;479.226309500169;479.226309500169;None;None;0;;479.226309500169;None;480.72635370027274;None;['9'];[0.9112813998945057];480.72635370027274;None;;;;;Emoconpilot038;2021_Dec_01_1625;BackwardMask;2020.2.8;120.0474426633815;
;f;019_m_f_n_a.jpg;neutral;8;19;f;019_m_f_h_a.jpg;happy;incongruent;9;match;;140;150;;3;238;block1_Pilot_2;19;n_h;n_h_weak;;;;;0;0;0;0;0;16;16;16;;;;;;;;;483.72709880024195;None;485.7378374002874;486.0276913000271;486.0276913000271;486.0522058000788;486.0522058000788;486.0931051000953;486.0931051000953;None;8;0;0.6244433000683784;486.0931051000953;None;487.5932463002391;None;['8'];[0.2283166996203363];487.5932463002391;None;;;;;Emoconpilot038;2021_Dec_01_1625;BackwardMask;2020.2.8;120.0474426633815;
;f;028_y_f_n_a.jpg;neutral;8;30;f;030_o_f_s_a.jpg;sad;incongruent;7;match;;140;160;;18;219;block1_Pilot_2;28;n_s;n_s_weak;;;;;0;0;0;0;0;17;17;17;;;;;;;;;490.5932849003002;None;492.4462732002139;492.7360995002091;492.7360995002091;492.88570890016854;492.88570890016854;492.9265415002592;492.9265415002592;None;8;0;0.3910419000312686;492.9265415002592;None;494.4266121000983;None;['7'];[0.39503859961405396];494.4266121000983;None;;;;;Emoconpilot038;2021_Dec_01_1625;BackwardMask;2020.2.8;120.0474426633815;
;m;008_y_m_h_a.jpg;happy;9;8;m;008_y_m_s_a.jpg;sad;incongruent;7;match;;120;160;;3;176;block1_Pilot_2;8;h_s;h_s_weak;;;;;0;0;0;0;0;18;18;18;;;;;;;;;497.4279539003037;None;498.9015120002441;499.1942901001312;499.1942901001312;499.219015000388;499.219015000388;499.2600426003337;499.2600426003337;None;9;0;0.585589500144124;499.2600426003337;None;500.7602265002206;None;['7'];[0.31734889978542924];500.7602265002206;None;;;;;Emoconpilot038;2021_Dec_01_1625;BackwardMask;2020.2.8;120.0474426633815;
;f;019_m_f_h_a.jpg;happy;9;33;m;033_o_m_n_a.jpg;neutral;incongruent;8;mismatch;;120;170;;18;136;block1_Pilot_2;19;h_n;h_n_weak;;;;;0;0;0;0;0;19;19;19;;;;;;;;;503.76095060026273;None;504.9001325001009;505.1942420001142;505.1942420001142;505.3442979003303;505.3442979003303;505.3850868004374;505.3850868004374;None;9;0;0.3564618001691997;505.3850868004374;None;506.88543880032375;None;['7'];[0.22420179983600974];506.88543880032375;None;;;;;Emoconpilot038;2021_Dec_01_1625;BackwardMask;2020.2.8;120.0474426633815;
;m;013_y_m_n_a.jpg;neutral;8;12;f;012_o_f_s_a.jpg;sad;incongruent;7;mismatch;;140;160;;2;132;block1_Pilot_2;13;n_s;n_s_strong;;;;;0;0;0;0;0;20;20;20;;;;;;;;;509.88572140038013;None;511.0223747002892;511.31160600017756;511.31160600017756;511.32772050006315;511.32772050006315;511.36880760034546;511.36880760034546;None;8;0;0.6367114996537566;511.36880760034546;None;512.8687822003849;None;['8'];[0.21686050016433];512.8687822003849;None;;;;;Emoconpilot038;2021_Dec_01_1625;BackwardMask;2020.2.8;120.0474426633815;
;f;040_y_f_s_a.jpg;sad;7;8;m;008_y_m_h_a.jpg;happy;incongruent;9;mismatch;;130;150;;2;175;block1_Pilot_2;40;s_h;s_h_weak;;;;;0;0;0;0;0;21;21;21;;;;;;;;;515.8691959003918;None;517.3353726002388;517.6280116001144;517.6280116001144;517.6443299003877;517.6443299003877;517.6853918000124;517.6853918000124;None;8;0;0.5442578000947833;517.6853918000124;None;519.1855899002403;None;['8'];[0.3880081996321678];519.1855899002403;None;;;;;Emoconpilot038;2021_Dec_01_1625;BackwardMask;2020.2.8;120.0474426633815;
;m;004_o_m_h_a.jpg;happy;9;40;f;040_y_f_s_a.jpg;sad;incongruent;7;mismatch;;120;160;;2;193;block1_Pilot_2;4;h_s;h_s_weak;;;;;0;0;0;0;0;22;22;22;;;;;;;;;522.1855587000027;None;523.8417231002823;524.1368970000185;524.1368970000185;524.1530011002906;524.1530011002906;524.1937311002985;524.1937311002985;None;9;0;0.5718487999401987;524.1937311002985;None;525.694405300077;None;['8'];[0.223433299921453];525.694405300077;None;;;;;Emoconpilot038;2021_Dec_01_1625;BackwardMask;2020.2.8;120.0474426633815;
;f;028_y_f_s_a.jpg;sad;7;13;m;013_y_m_n_a.jpg;neutral;incongruent;8;mismatch;;130;170;;2;126;block1_Pilot_2;28;s_n;s_n_weak;;;;;0;0;0;0;0;23;23;23;;;;;;;;;528.6946272002533;None;529.7621041000821;530.0531826000661;530.0531826000661;530.0698029003106;530.0698029003106;530.1105798003264;530.1105798003264;None;8;1;0.6310352999716997;530.1105798003264;None;531.610781100113;None;['8'];[0.0586887001991272];531.610781100113;None;;;;;Emoconpilot038;2021_Dec_01_1625;BackwardMask;2020.2.8;120.0474426633815;
;m;004_o_m_h_a.jpg;happy;9;40;f;040_y_f_n_a.jpg;neutral;incongruent;8;mismatch;;120;170;;3;146;block1_Pilot_2;4;h_n;h_n_strong;;;;;0;0;0;0;0;24;24;24;;;;;;;;;534.6121721002273;None;535.8494883002713;536.1455107000656;536.1455107000656;536.1700026001781;536.1700026001781;536.2106139999814;536.2106139999814;None;9;0;0.8350210003554821;536.2106139999814;None;537.7107530999929;None;['7'];[0.39093369990587234];537.7107530999929;None;;;;;Emoconpilot038;2021_Dec_01_1625;BackwardMask;2020.2.8;120.0474426633815;
;m;008_y_m_s_a.jpg;sad;7;30;f;030_o_f_n_a.jpg;neutral;incongruent;8;mismatch;;130;170;;3;132;block1_Pilot_2;8;s_n;s_n_strong;;;;;0;0;0;0;0;25;25;25;;;;;;;;;540.7116034002975;None;541.8376798001118;542.1290145004168;542.1290145004168;542.1533931000158;542.1533931000158;542.1940235001966;542.1940235001966;None;7;0;0.6836065999232233;542.1940235001966;None;543.6951552000828;None;['7'];[0.27839520014822483];543.6951552000828;None;;;;;Emoconpilot038;2021_Dec_01_1625;BackwardMask;2020.2.8;120.0474426633815;
;f;040_y_f_n_a.jpg;neutral;8;40;f;040_y_f_s_a.jpg;sad;incongruent;7;match;;140;160;;2;123;block1_Pilot_2;40;n_s;n_s_weak;;;;;0;0;0;0;0;26;26;26;;;;;;;;;546.6950067002326;None;547.7386680003256;548.0288354000077;548.0288354000077;548.0452001001686;548.0452001001686;548.0860485001467;548.0860485001467;None;8;0;0.6715293996967375;548.0860485001467;None;549.5862701004371;None;['8'];[0.43542049964889884];549.5862701004371;None;;;;;Emoconpilot038;2021_Dec_01_1625;BackwardMask;2020.2.8;120.0474426633815;
;f;028_y_f_s_a.jpg;sad;7;27;m;027_o_m_s_a.jpg;sad;congruent;7;mismatch;;130;160;;3;159;block1_Pilot_2;28;s_s;s_s_weak;;;;;0;0;0;0;0;27;27;27;;;;;;;;;552.5870847003534;None;553.9228327004239;554.2121375002898;554.2121375002898;554.2369667002931;554.2369667002931;554.2777575002983;554.2777575002983;None;7;1;0.9917203998193145;554.2777575002983;None;555.7777765002102;None;['7'];[0.6837029000744224];555.7777765002102;None;;;;;Emoconpilot038;2021_Dec_01_1625;BackwardMask;2020.2.8;120.0474426633815;
;f;012_o_f_s_a.jpg;sad;7;27;m;027_o_m_s_a.jpg;sad;congruent;7;mismatch;;130;160;;18;166;block1_Pilot_2;12;s_s;s_s_weak;;;;;0;0;0;0;0;28;28;28;;;;;;;;;558.7789946002886;None;560.1757598002441;560.4701179000549;560.4701179000549;560.6201735003851;560.6201735003851;560.6611101999879;560.6611101999879;None;7;1;0.5443780003115535;560.6611101999879;None;562.1612878004089;None;['7'];[0.540428000036627];562.1612878004089;None;;;;;Emoconpilot038;2021_Dec_01_1625;BackwardMask;2020.2.8;120.0474426633815;
;f;028_y_f_n_a.jpg;neutral;8;28;f;028_y_f_h_a.jpg;happy;incongruent;9;match;;140;150;;2;186;block1_Pilot_2;28;n_h;n_h_weak;;;;;0;0;0;0;0;29;29;29;;;;;;;;;565.1613148003817;None;566.7322945999913;567.0209111003205;567.0209111003205;567.03690070007;567.03690070007;567.0777736003511;567.0777736003511;None;8;0;0.8958425000309944;567.0777736003511;None;568.5779756000265;None;['8'];[0.29975710017606616];568.5779756000265;None;;;;;Emoconpilot038;2021_Dec_01_1625;BackwardMask;2020.2.8;120.0474426633815;
;m;027_o_m_n_a.jpg;neutral;8;16;m;016_y_m_n_a.jpg;neutral;congruent;8;match;;140;170;;2;188;block1_Pilot_2;27;n_n;n_n_weak;;;;;0;0;0;0;0;30;30;30;;;;;;;;;571.5778940003365;None;573.1715920004062;573.4628763003275;573.4628763003275;573.4786968003027;573.4786968003027;573.5196584002115;573.5196584002115;None;8;1;0.5499585000798106;573.5196584002115;None;575.0198869002052;None;['8'];[0.27383860014379025];575.0198869002052;None;;;;;Emoconpilot038;2021_Dec_01_1625;BackwardMask;2020.2.8;120.0474426633815;
;f;012_o_f_s_a.jpg;sad;7;13;m;013_y_m_n_a.jpg;neutral;incongruent;8;mismatch;;130;170;;3;162;block1_Pilot_2;12;s_n;s_n_strong;;;;;0;0;0;0;0;31;31;31;;;;;;;;;578.0198809001595;None;579.3731351001188;579.6706489003263;579.6706489003263;579.6955409003422;579.6955409003422;579.7364688999951;579.7364688999951;None;7;0;0.8210855997167528;579.7364688999951;None;581.2365026003681;None;['8'];[0.20109539991244674];581.2365026003681;None;;;;;Emoconpilot038;2021_Dec_01_1625;BackwardMask;2020.2.8;120.0474426633815;
;f;012_o_f_s_a.jpg;sad;7;16;m;016_y_m_h_a.jpg;happy;incongruent;9;mismatch;;130;150;;1;238;block1_Pilot_2;12;s_h;s_h_strong;;;;;0;0;0;0;0;32;32;32;;;;;;;;;584.2366205002181;None;586.222643500194;586.52086780034;586.52086780034;586.5290441000834;586.5290441000834;586.5698704002425;586.5698704002425;None;None;0;;586.5698704002425;None;588.0701133999974;None;['9'];[0.3915336998179555];588.0701133999974;None;;;;;Emoconpilot038;2021_Dec_01_1625;BackwardMask;2020.2.8;120.0474426633815;
;f;028_y_f_n_a.jpg;neutral;8;21;f;021_o_f_n_a.jpg;neutral;congruent;8;match;;140;170;;3;220;block1_Pilot_2;28;n_n;n_n_weak;;;;;0;0;0;0;0;33;33;33;;;;;;;;;591.0702848001383;None;592.9235169002786;593.213145900052;593.213145900052;593.2375160004012;593.2375160004012;593.2784406002611;593.2784406002611;None;8;1;0.5991050000302494;593.2784406002611;None;594.7783871004358;None;['7'];[0.2993618999607861];594.7783871004358;None;;;;;Emoconpilot038;2021_Dec_01_1625;BackwardMask;2020.2.8;120.0474426633815;
;f;040_y_f_h_a.jpg;happy;9;33;m;033_o_m_s_a.jpg;sad;incongruent;7;mismatch;;120;160;;2;194;block1_Pilot_2;40;h_s;h_s_weak;;;;;0;0;0;0;0;34;34;34;;;;;;;;;597.7785064000636;None;599.4029835001566;599.6961222002283;599.6961222002283;599.712658200413;599.712658200413;599.7534931004047;599.7534931004047;None;9;0;0.7641977998428047;599.7534931004047;None;601.2534494004212;None;['7'];[0.2882248000241816];601.2534494004212;None;;;;;Emoconpilot038;2021_Dec_01_1625;BackwardMask;2020.2.8;120.0474426633815;
;f;028_y_f_h_a.jpg;happy;9;8;m;008_y_m_n_a.jpg;neutral;incongruent;8;mismatch;;120;170;;3;162;block1_Pilot_2;28;h_n;h_n_weak;;;;;0;0;0;0;0;35;35;35;;;;;;;;;604.2537242001854;None;605.6187058002688;605.9129410004243;605.9129410004243;605.937844300177;605.937844300177;605.9787042001262;605.9787042001262;None;9;0;0.5070295999757946;605.9787042001262;None;607.4787834002636;None;['7'];[0.8707925998605788];607.4787834002636;None;;;;;Emoconpilot038;2021_Dec_01_1625;BackwardMask;2020.2.8;120.0474426633815;
;m;013_y_m_n_a.jpg;neutral;8;27;m;027_o_m_n_a.jpg;neutral;congruent;8;match;;140;170;;2;126;block1_Pilot_2;13;n_n;n_n_strong;;;;;0;0;0;0;0;36;36;36;;;;;;;;;610.4789039003663;None;611.5745883001946;611.8634554003365;611.8634554003365;611.8794668000191;611.8794668000191;611.9204291002825;611.9204291002825;None;8;1;0.7252116003073752;611.9204291002825;None;613.4202825999819;None;['8'];[0.6333967000246048];613.4202825999819;None;;;;;Emoconpilot038;2021_Dec_01_1625;BackwardMask;2020.2.8;120.0474426633815;
;f;028_y_f_s_a.jpg;sad;7;19;f;019_m_f_n_a.jpg;neutral;incongruent;8;match;;130;170;;2;156;block1_Pilot_2;28;s_n;s_n_strong;;;;;0;0;0;0;0;37;37;37;;;;;;;;;616.4207288003527;None;617.7307915003039;618.0215700003318;618.0215700003318;618.0380005002953;618.0380005002953;618.0788352000527;618.0788352000527;None;8;1;0.5266681998036802;618.0788352000527;None;619.5789388003759;None;['8'];[0.8907459997572005];619.5789388003759;None;;;;;Emoconpilot038;2021_Dec_01_1625;BackwardMask;2020.2.8;120.0474426633815;
;m;016_y_m_s_a.jpg;sad;7;19;f;019_m_f_n_a.jpg;neutral;incongruent;8;mismatch;;130;170;;3;138;block1_Pilot_2;16;s_n;s_n_weak;;;;;0;0;0;0;0;38;38;38;;;;;;;;;622.5791458003223;None;623.7372558000498;624.0300330002792;624.0300330002792;624.0548172001727;624.0548172001727;624.0957794003189;624.0957794003189;None;8;1;0.9019013997167349;624.0957794003189;None;625.5957051999867;None;['8'];[0.4499526000581682];625.5957051999867;None;;;;;Emoconpilot038;2021_Dec_01_1625;BackwardMask;2020.2.8;120.0474426633815;
;m;033_o_m_s_a.jpg;sad;7;27;m;027_o_m_n_a.jpg;neutral;incongruent;8;match;;130;170;;3;120;block1_Pilot_2;33;s_n;s_n_strong;;;;;0;0;0;0;0;39;39;39;;;;;;;;;628.5963991000317;None;629.6119436002336;629.9051183001138;629.9051183001138;629.9299672003835;629.9299672003835;629.9707242003642;629.9707242003642;None;8;1;0.5708789997734129;629.9707242003642;None;631.4709967002273;None;['8'];[0.5505182999186218];631.4709967002273;None;;;;;Emoconpilot038;2021_Dec_01_1625;BackwardMask;2020.2.8;120.0474426633815;
;f;040_y_f_s_a.jpg;sad;7;33;m;033_o_m_n_a.jpg;neutral;incongruent;8;mismatch;;130;170;;1;238;block1_Pilot_2;40;s_n;s_n_weak;;;;;0;0;0;0;0;40;40;40;;;;;;;;;634.4710868000984;None;636.461329900194;636.7553892000578;636.7553892000578;636.7633741004393;636.7633741004393;636.8043106002733;636.8043106002733;None;None;0;;636.8043106002733;None;638.3044659001753;None;['9'];[0.44506550021469593];638.3044659001753;None;;;;;Emoconpilot038;2021_Dec_01_1625;BackwardMask;2020.2.8;120.0474426633815;
;f;021_o_f_n_a.jpg;neutral;8;19;f;019_m_f_s_a.jpg;sad;incongruent;7;match;;140;160;;1;238;block1_Pilot_2;21;n_s;n_s_strong;;;;;0;0;0;0;0;41;41;41;;;;;;;;;641.3046913002618;None;643.3596022999845;643.6558187999763;643.6558187999763;643.6635432001203;643.6635432001203;643.7045622002333;643.7045622002333;None;None;0;;643.7045622002333;None;645.2045466001146;None;['9'];[0.40116729959845543];645.2045466001146;None;;;;;Emoconpilot038;2021_Dec_01_1625;BackwardMask;2020.2.8;120.0474426633815;
;m;033_o_m_h_a.jpg;happy;9;27;m;027_o_m_h_a.jpg;happy;congruent;9;match;;120;150;;3;134;block1_Pilot_2;33;h_h;h_h_weak;;;;;0;0;0;0;0;42;42;42;;;;;;;;;648.2047017002478;None;649.3284855000675;649.6222578003071;649.6222578003071;649.6470726002008;649.6470726002008;649.6878923000768;649.6878923000768;None;9;1;0.581769899930805;649.6878923000768;None;651.1880278000608;None;['7'];[0.28961290000006557];651.1880278000608;None;;;;;Emoconpilot038;2021_Dec_01_1625;BackwardMask;2020.2.8;120.0474426633815;
;f;040_y_f_s_a.jpg;sad;7;4;m;004_o_m_h_a.jpg;happy;incongruent;9;mismatch;;130;150;;2;225;block1_Pilot_2;40;s_h;s_h_strong;;;;;0;0;0;0;0;43;43;43;;;;;;;;;654.188190500252;None;656.0700288000517;656.363970100414;656.363970100414;656.3804642003961;656.3804642003961;656.4213457000442;656.4213457000442;None;8;0;0.704131499864161;656.4213457000442;None;657.9215597002767;None;['8'];[0.2680850001052022];657.9215597002767;None;;;;;Emoconpilot038;2021_Dec_01_1625;BackwardMask;2020.2.8;120.0474426633815;
;m;027_o_m_s_a.jpg;sad;7;21;f;021_o_f_n_a.jpg;neutral;incongruent;8;mismatch;;130;170;;18;238;block1_Pilot_2;27;s_n;s_n_weak;;;;;0;0;0;0;0;44;44;44;;;;;;;;;660.922010499984;None;662.9190036002547;663.2141733001918;663.2141733001918;663.3639460001141;663.3639460001141;663.4048338001594;663.4048338001594;None;7;0;0.832833300344646;663.4048338001594;None;664.9050243003294;None;['7'];[0.2686915001831949];664.9050243003294;None;;;;;Emoconpilot038;2021_Dec_01_1625;BackwardMask;2020.2.8;120.0474426633815;
;m;016_y_m_h_a.jpg;happy;9;16;m;016_y_m_n_a.jpg;neutral;incongruent;8;match;;120;170;;3;202;block1_Pilot_2;16;h_n;h_n_weak;;;;;0;0;0;0;0;45;45;45;;;;;;;;;667.905063400045;None;669.6009011003189;669.889408600051;669.889408600051;669.9140108004212;669.9140108004212;669.9550270000473;669.9550270000473;None;9;0;0.5145875001326203;669.9550270000473;None;671.4552515000105;None;['7'];[0.28631290001794696];671.4552515000105;None;;;;;Emoconpilot038;2021_Dec_01_1625;BackwardMask;2020.2.8;120.0474426633815;
;m;033_o_m_h_a.jpg;happy;9;13;m;013_y_m_n_a.jpg;neutral;incongruent;8;match;;120;170;;2;150;block1_Pilot_2;33;h_n;h_n_weak;;;;;0;0;0;0;0;46;46;46;;;;;;;;;674.4551967000589;None;675.7117821001448;676.0060501000844;676.0060501000844;676.022644400131;676.022644400131;676.0634150002152;676.0634150002152;None;9;0;0.710345699917525;676.0634150002152;None;677.5635060002096;None;['7'];[0.2982107000425458];677.5635060002096;None;;;;;Emoconpilot038;2021_Dec_01_1625;BackwardMask;2020.2.8;120.0474426633815;
;f;012_o_f_n_a.jpg;neutral;8;16;m;016_y_m_n_a.jpg;neutral;congruent;8;mismatch;;140;170;;1;238;block1_Pilot_2;12;n_n;n_n_strong;;;;;0;0;0;0;0;47;47;47;;;;;;;;;680.5636946000159;None;682.6015452002175;682.890070500318;682.890070500318;682.8976534004323;682.8976534004323;682.9386215000413;682.9386215000413;None;None;0;;682.9386215000413;None;684.4388468000107;None;['9'];[0.48681339994072914];684.4388468000107;None;;;;;Emoconpilot038;2021_Dec_01_1625;BackwardMask;2020.2.8;120.0474426633815;
;f;040_y_f_n_a.jpg;neutral;8;30;f;030_o_f_h_a.jpg;happy;incongruent;9;match;;140;150;;2;194;block1_Pilot_2;40;n_h;n_h_strong;;;;;0;0;0;0;0;48;48;48;;;;;;;;;687.4389246003702;None;689.0738225001842;689.3650572001934;689.3650572001934;689.3811135003343;689.3811135003343;689.4221638003364;689.4221638003364;None;8;0;0.6393627999350429;689.4221638003364;None;690.9221993000247;None;['8'];[0.5394784002564847];690.9221993000247;None;;;;;Emoconpilot038;2021_Dec_01_1625;BackwardMask;2020.2.8;120.0474426633815;
;m;013_y_m_n_a.jpg;neutral;8;12;f;012_o_f_s_a.jpg;sad;incongruent;7;mismatch;;140;160;;18;238;block1_Pilot_2;13;n_s;n_s_weak;;;;;0;0;0;0;0;49;49;49;;;;;;;;;693.9223112002946;None;695.9246256002225;696.2152579003014;696.2152579003014;696.3646332002245;696.3646332002245;696.4054581001401;696.4054581001401;None;8;0;0.46429200004786253;696.4054581001401;None;697.9058067002334;None;['7'];[0.3079383000731468];697.9058067002334;None;;;;;Emoconpilot038;2021_Dec_01_1625;BackwardMask;2020.2.8;120.0474426633815;
;f;012_o_f_h_a.jpg;happy;9;12;f;012_o_f_n_a.jpg;neutral;incongruent;8;match;;120;170;;2;125;block1_Pilot_2;12;h_n;h_n_strong;;;;;0;0;0;0;0;50;50;50;;;;;;;;;700.9057444999926;None;701.9548241002485;702.2483051000163;702.2483051000163;702.2647216003388;702.2647216003388;702.305710399989;702.305710399989;None;9;0;0.5159757002256811;702.305710399989;None;703.8057145001367;None;None;;703.8057145001367;None;;;;;Emoconpilot038;2021_Dec_01_1625;BackwardMask;2020.2.8;120.0474426633815;
;m;008_y_m_s_a.jpg;sad;7;19;f;019_m_f_s_a.jpg;sad;congruent;7;mismatch;;130;160;;2;202;block1_Pilot_2;8;s_s;s_s_strong;;;;;0;0;0;0;0;51;51;51;;;;;;;;;706.805989400018;None;708.5131252002902;708.8070523003116;708.8070523003116;708.8232472003438;708.8232472003438;708.8640374001116;708.8640374001116;None;7;1;0.6615083003416657;708.8640374001116;None;710.3642576001585;None;['8'];[0.23339099995791912];710.3642576001585;None;;;;;Emoconpilot038;2021_Dec_01_1625;BackwardMask;2020.2.8;120.0474426633815;
;f;028_y_f_n_a.jpg;neutral;8;12;f;012_o_f_n_a.jpg;neutral;congruent;8;match;;140;170;;2;214;block1_Pilot_2;28;n_n;n_n_strong;;;;;0;0;0;0;0;52;52;52;;;;;;;;;713.3644406003878;None;715.1659416002221;715.4573319000192;715.4573319000192;715.473340800032;715.473340800032;715.5142336003482;715.5142336003482;None;None;0;;715.5142336003482;None;717.014289600309;None;['9'];[0.5913704000413418];717.014289600309;None;;;;;Emoconpilot038;2021_Dec_01_1625;BackwardMask;2020.2.8;120.0474426633815;
;m;027_o_m_h_a.jpg;happy;9;19;f;019_m_f_h_a.jpg;happy;congruent;9;mismatch;;120;150;;3;165;block1_Pilot_2;27;h_h;h_h_strong;;;;;0;0;0;0;0;53;53;53;;;;;;;;;720.0144739001989;None;721.429589100182;721.7242668000981;721.7242668000981;721.7485208003782;721.7485208003782;721.7894339002669;721.7894339002669;None;9;1;0.5842204997316003;721.7894339002669;None;723.2894166000187;None;['7'];[0.34822170017287135];723.2894166000187;None;;;;;Emoconpilot038;2021_Dec_01_1625;BackwardMask;2020.2.8;120.0474426633815;
;m;008_y_m_s_a.jpg;sad;7;13;m;013_y_m_h_a.jpg;happy;incongruent;9;match;;130;150;;18;200;block1_Pilot_2;8;s_h;s_h_strong;;;;;0;0;0;0;0;54;54;54;;;;;;;;;726.2895975001156;None;727.9760177000426;728.2660748003982;728.2660748003982;728.4152346001938;728.4152346001938;728.4561804002151;728.4561804002151;None;7;0;0.48546670004725456;728.4561804002151;None;729.9562059002928;None;['7'];[0.25750349974259734];729.9562059002928;None;;;;;Emoconpilot038;2021_Dec_01_1625;BackwardMask;2020.2.8;120.0474426633815;
;f;030_o_f_n_a.jpg;neutral;8;28;f;028_y_f_s_a.jpg;sad;incongruent;7;match;;140;160;;18;238;block1_Pilot_2;30;n_s;n_s_weak;;;;;0;0;0;0;0;55;55;55;;;;;;;;;732.9564050002955;None;734.9656464001164;735.2577441004105;735.2577441004105;735.4070248003118;735.4070248003118;735.4480161000974;735.4480161000974;None;8;0;0.6695757997222245;735.4480161000974;None;736.9480248000473;None;['7'];[0.2575539997778833];736.9480248000473;None;;;;;Emoconpilot038;2021_Dec_01_1625;BackwardMask;2020.2.8;120.0474426633815;
;f;019_m_f_h_a.jpg;happy;9;27;m;027_o_m_h_a.jpg;happy;congruent;9;mismatch;;120;150;;1;238;block1_Pilot_2;19;h_h;h_h_strong;;;;;0;0;0;0;0;56;56;56;;;;;;;;;739.9482375001535;None;741.9392702002078;742.232363300398;742.232363300398;742.240648300387;742.240648300387;742.2815782004036;742.2815782004036;None;None;0;;742.2815782004036;None;743.781573400367;None;['9'];[0.5279688998125494];743.781573400367;None;;;;;Emoconpilot038;2021_Dec_01_1625;BackwardMask;2020.2.8;120.0474426633815;
;m;004_o_m_s_a.jpg;sad;7;4;m;004_o_m_h_a.jpg;happy;incongruent;9;match;;130;150;;18;155;block1_Pilot_2;4;s_h;s_h_weak;;;;;0;0;0;0;0;57;57;57;;;;;;;;;746.7817109003663;None;748.0874021002091;748.3825689000078;748.3825689000078;748.532537500374;748.532537500374;748.5732508003712;748.5732508003712;None;7;0;0.6724662999622524;748.5732508003712;None;750.07334500039;None;['7'];[0.2761428998783231];750.07334500039;None;;;;;Emoconpilot038;2021_Dec_01_1625;BackwardMask;2020.2.8;120.0474426633815;
;f;021_o_f_s_a.jpg;sad;7;27;m;027_o_m_n_a.jpg;neutral;incongruent;8;mismatch;;130;170;;3;224;block1_Pilot_2;21;s_n;s_n_weak;;;;;0;0;0;0;0;58;58;58;;;;;;;;;753.0735585000366;None;754.9461201000959;755.2408659001812;755.2408659001812;755.2657885001972;755.2657885001972;755.3068937002681;755.3068937002681;None;8;1;0.9866988002322614;755.3068937002681;None;756.8068010001443;None;['8'];[1.0948195001110435];756.8068010001443;None;;;;;Emoconpilot038;2021_Dec_01_1625;BackwardMask;2020.2.8;120.0474426633815;
;f;021_o_f_h_a.jpg;happy;9;27;m;027_o_m_n_a.jpg;neutral;incongruent;8;mismatch;;120;170;;2;147;block1_Pilot_2;21;h_n;h_n_strong;;;;;0;0;0;0;0;59;59;59;;;;;;;;;759.8069679001346;None;761.07450600015;761.3667142000049;761.3667142000049;761.3825783003122;761.3825783003122;761.4235696000978;761.4235696000978;None;9;0;0.5100998999550939;761.4235696000978;None;762.9236937002279;None;['7'];[0.29003109969198704];762.9236937002279;None;;;;;Emoconpilot038;2021_Dec_01_1625;BackwardMask;2020.2.8;120.0474426633815;
;f;040_y_f_n_a.jpg;neutral;8;13;m;013_y_m_h_a.jpg;happy;incongruent;9;mismatch;;140;150;;3;237;block1_Pilot_2;40;n_h;n_h_strong;;;;;0;0;0;0;0;60;60;60;;;;;;;;;765.9237517002039;None;767.9178325003013;768.208342100028;768.208342100028;768.2327821999788;768.2327821999788;768.2736058002338;768.2736058002338;None;8;0;0.548072500154376;768.2736058002338;None;769.7737336000428;None;['8'];[0.2559311999939382];769.7737336000428;None;;;;;Emoconpilot038;2021_Dec_01_1625;BackwardMask;2020.2.8;120.0474426633815;
;m;027_o_m_n_a.jpg;neutral;8;19;f;019_m_f_h_a.jpg;happy;incongruent;9;mismatch;;140;150;;3;199;block1_Pilot_2;27;n_h;n_h_strong;;;;;0;0;0;0;0;61;61;61;;;;;;;;;772.7738556000404;None;774.4519927999936;774.7418422000483;774.7418422000483;774.7662217002362;774.7662217002362;774.8071358003654;774.8071358003654;None;8;0;0.5744708003476262;774.8071358003654;None;776.3071996001527;None;['7'];[0.43439480010420084];776.3071996001527;None;;;;;Emoconpilot038;2021_Dec_01_1625;BackwardMask;2020.2.8;120.0474426633815;
;m;027_o_m_h_a.jpg;happy;9;21;f;021_o_f_s_a.jpg;sad;incongruent;7;mismatch;;120;160;;2;169;block1_Pilot_2;27;h_s;h_s_strong;;;;;0;0;0;0;0;62;62;62;;;;;;;;;779.3072409001179;None;780.7342187003233;781.0256126001477;781.0256126001477;781.0415709000081;781.0415709000081;781.0821501002647;781.0821501002647;None;9;0;1.043485399801284;781.0821501002647;None;782.5823968001641;None;['8'];[0.49523100024089217];782.5823968001641;None;;;;;Emoconpilot038;2021_Dec_01_1625;BackwardMask;2020.2.8;120.0474426633815;
;m;013_y_m_n_a.jpg;neutral;8;33;m;033_o_m_h_a.jpg;happy;incongruent;9;match;;140;150;;18;238;block1_Pilot_2;13;n_h;n_h_strong;;;;;0;0;0;0;0;63;63;63;;;;;;;;;785.5825989004225;None;787.5850146003067;787.8753620004281;787.8753620004281;788.024816500023;788.024816500023;788.0657792002894;788.0657792002894;None;8;0;0.37175989989191294;788.0657792002894;None;789.5658483002335;None;['7'];[0.3277280000038445];789.5658483002335;None;;;;;Emoconpilot038;2021_Dec_01_1625;BackwardMask;2020.2.8;120.0474426633815;
;m;033_o_m_n_a.jpg;neutral;8;30;f;030_o_f_s_a.jpg;sad;incongruent;7;mismatch;;140;160;;1;238;block1_Pilot_2;33;n_s;n_s_weak;;;;;0;0;0;0;0;64;64;64;;;;;;;;;792.5659578000195;None;794.568612200208;794.8589612999931;794.8589612999931;794.8667360004038;794.8667360004038;794.9075015000999;794.9075015000999;None;None;0;;794.9075015000999;None;796.4076656000689;None;['9'];[0.33392230002209544];796.4076656000689;None;;;;;Emoconpilot038;2021_Dec_01_1625;BackwardMask;2020.2.8;120.0474426633815;
;m;033_o_m_s_a.jpg;sad;7;4;m;004_o_m_s_a.jpg;sad;congruent;7;match;;130;160;;18;146;block1_Pilot_2;33;s_s;s_s_weak;;;;;0;0;0;0;0;65;65;65;;;;;;;;;799.4081822000444;None;800.632995299995;800.9253800003789;800.9253800003789;801.0750392000191;801.0750392000191;801.1159858000465;801.1159858000465;None;8;0;0.5216864002868533;801.1159858000465;None;802.6161023001187;None;['7'];[0.3096113000065088];802.6161023001187;None;;;;;Emoconpilot038;2021_Dec_01_1625;BackwardMask;2020.2.8;120.0474426633815;
;m;016_y_m_s_a.jpg;sad;7;28;f;028_y_f_h_a.jpg;happy;incongruent;9;mismatch;;130;150;;18;238;block1_Pilot_2;16;s_h;s_h_strong;;;;;0;0;0;0;0;66;66;66;;;;;;;;;805.6162459002808;None;807.6071755001321;807.9004818000831;807.9004818000831;808.0502181001939;808.0502181001939;808.0911152004264;808.0911152004264;None;7;0;0.5783702000044286;808.0911152004264;None;809.5911175003275;None;['7'];[0.3105668998323381];809.5911175003275;None;;;;;Emoconpilot038;2021_Dec_01_1625;BackwardMask;2020.2.8;120.0474426633815;
;f;030_o_f_h_a.jpg;happy;9;28;f;028_y_f_h_a.jpg;happy;congruent;9;match;;120;150;;3;234;block1_Pilot_2;30;h_h;h_h_weak;;;;;0;0;0;0;0;67;67;67;;;;;;;;;812.5915717002936;None;814.5705824000761;814.8593904003501;814.8593904003501;814.8837386001833;814.8837386001833;814.924637300428;814.924637300428;None;9;1;0.5050066998228431;814.924637300428;None;816.4247072003782;None;['7'];[0.27688900008797646];816.4247072003782;None;;;;;Emoconpilot038;2021_Dec_01_1625;BackwardMask;2020.2.8;120.0474426633815;
;m;013_y_m_h_a.jpg;happy;9;4;m;004_o_m_h_a.jpg;happy;congruent;9;match;;120;150;;2;141;block1_Pilot_2;13;h_h;h_h_strong;;;;;0;0;0;0;0;68;68;68;;;;;;;;;819.4248293000273;None;820.6190420002677;820.9091278002597;820.9091278002597;820.9256490003318;820.9256490003318;820.9664858002216;820.9664858002216;None;9;1;0.6312219998799264;820.9664858002216;None;822.4665606003255;None;['8'];[0.33122409973293543];822.4665606003255;None;;;;;Emoconpilot038;2021_Dec_01_1625;BackwardMask;2020.2.8;120.0474426633815;
;f;028_y_f_s_a.jpg;sad;7;8;m;008_y_m_s_a.jpg;sad;congruent;7;mismatch;;130;160;;1;238;block1_Pilot_2;28;s_s;s_s_strong;;;;;0;0;0;0;0;69;69;69;;;;;;;;;825.4668135000393;None;827.4626595000736;827.7508972003125;827.7508972003125;827.7590674003586;827.7590674003586;827.7999348002486;827.7999348002486;None;None;0;;827.7999348002486;None;829.2999582001939;None;['9'];[0.5135882003232837];829.2999582001939;None;;;;;Emoconpilot038;2021_Dec_01_1625;BackwardMask;2020.2.8;120.0474426633815;
;f;028_y_f_s_a.jpg;sad;7;30;f;030_o_f_h_a.jpg;happy;incongruent;9;match;;130;150;;2;199;block1_Pilot_2;28;s_h;s_h_weak;;;;;0;0;0;0;0;70;70;70;;;;;;;;;832.3001148002222;None;833.9677662001923;834.2593407002278;834.2593407002278;834.2757451003417;834.2757451003417;834.3167045000009;834.3167045000009;None;None;0;;834.3167045000009;None;835.8167973002419;None;['9'];[0.48483219975605607];835.8167973002419;None;;;;;Emoconpilot038;2021_Dec_01_1625;BackwardMask;2020.2.8;120.0474426633815;
;m;008_y_m_h_a.jpg;happy;9;21;f;021_o_f_n_a.jpg;neutral;incongruent;8;mismatch;;120;170;;2;137;block1_Pilot_2;8;h_n;h_n_weak;;;;;0;0;0;0;0;71;71;71;;;;;;;;;838.8168326001614;None;839.9670887002721;840.2595127001405;840.2595127001405;840.2759458003566;840.2759458003566;840.3169715004042;840.3169715004042;None;9;0;0.5925978003069758;840.3169715004042;None;841.8170131002553;None;['7'];[0.3327068001963198];841.8170131002553;None;;;;;Emoconpilot038;2021_Dec_01_1625;BackwardMask;2020.2.8;120.0474426633815;
;f;012_o_f_n_a.jpg;neutral;8;8;m;008_y_m_s_a.jpg;sad;incongruent;7;mismatch;;140;160;;2;208;block1_Pilot_2;12;n_s;n_s_weak;;;;;0;0;0;0;0;72;72;72;;;;;;;;;844.8170816004276;None;846.6058275001124;846.901695900131;846.901695900131;846.9176413002424;846.9176413002424;846.9586326000281;846.9586326000281;None;8;0;0.6070785000920296;846.9586326000281;None;848.4587205001153;None;['8'];[0.29899389995262027];848.4587205001153;None;;;;;Emoconpilot038;2021_Dec_01_1625;BackwardMask;2020.2.8;120.0474426633815;
;m;016_y_m_n_a.jpg;neutral;8;8;m;008_y_m_n_a.jpg;neutral;congruent;8;match;;140;170;;3;211;block1_Pilot_2;16;n_n;n_n_strong;;;;;0;0;0;0;0;73;73;73;;;;;;;;;851.4588957000524;None;853.245511200279;853.5350087000988;853.5350087000988;853.5595493000001;853.5595493000001;853.6003871001303;853.6003871001303;None;8;1;0.5332983997650445;853.6003871001303;None;855.1006368002854;None;['8'];[0.5450464002788067];855.1006368002854;None;;;;;Emoconpilot038;2021_Dec_01_1625;BackwardMask;2020.2.8;120.0474426633815;
;m;016_y_m_h_a.jpg;happy;9;13;m;013_y_m_s_a.jpg;sad;incongruent;7;match;;120;160;;3;138;block1_Pilot_2;16;h_s;h_s_weak;;;;;0;0;0;0;0;74;74;74;;;;;;;;;858.1006200001575;None;859.2584178000689;859.5516023002565;859.5516023002565;859.5763157000765;859.5763157000765;859.6172314002179;859.6172314002179;None;9;0;0.5164832998998463;859.6172314002179;None;861.1175859002396;None;['7'];[0.28801009990274906];861.1175859002396;None;;;;;Emoconpilot038;2021_Dec_01_1625;BackwardMask;2020.2.8;120.0474426633815;
;m;016_y_m_n_a.jpg;neutral;8;19;f;019_m_f_s_a.jpg;sad;incongruent;7;mismatch;;140;160;;2;185;block1_Pilot_2;16;n_s;n_s_strong;;;;;0;0;0;0;0;75;75;75;;;;;;;;;864.1174504002556;None;865.6809084000997;865.9771919003688;865.9771919003688;865.9930961001664;865.9930961001664;866.0340130003169;866.0340130003169;None;8;0;0.5716094998642802;866.0340130003169;None;867.5341461002827;None;['7'];[0.49544059997424483];867.5341461002827;None;;;;;Emoconpilot038;2021_Dec_01_1625;BackwardMask;2020.2.8;120.0474426633815;
;m;027_o_m_s_a.jpg;sad;7;8;m;008_y_m_s_a.jpg;sad;congruent;7;match;;130;160;;1;238;block1_Pilot_2;27;s_s;s_s_strong;;;;;0;0;0;0;0;76;76;76;;;;;;;;;870.5341270002536;None;872.5250002001412;872.8184883003123;872.8184883003123;872.8266881001182;872.8266881001182;872.8675913000479;872.8675913000479;None;None;0;;872.8675913000479;None;874.3676354000345;None;['9'];[0.43003750033676624];874.3676354000345;None;;;;;Emoconpilot038;2021_Dec_01_1625;BackwardMask;2020.2.8;120.0474426633815;
;f;019_m_f_n_a.jpg;neutral;8;27;m;027_o_m_n_a.jpg;neutral;congruent;8;mismatch;;140;170;;3;186;block1_Pilot_2;19;n_n;n_n_strong;;;;;0;0;0;0;0;77;77;77;;;;;;;;;877.3676858004183;None;878.9384121000767;879.2273633000441;879.2273633000441;879.2517008003779;879.2517008003779;879.2926766001619;879.2926766001619;None;8;1;0.6009076000191271;879.2926766001619;None;880.7928646001965;None;['7'];[0.38885590014979243];880.7928646001965;None;;;;;Emoconpilot038;2021_Dec_01_1625;BackwardMask;2020.2.8;120.0474426633815;
;m;004_o_m_s_a.jpg;sad;7;12;f;012_o_f_s_a.jpg;sad;congruent;7;mismatch;;130;160;;1;238;block1_Pilot_2;4;s_s;s_s_strong;;;;;0;0;0;0;0;78;78;78;;;;;;;;;883.7929004002362;None;885.7837915001437;886.0770806004293;886.0770806004293;886.0852920003235;886.0852920003235;886.1260371999815;886.1260371999815;None;None;0;;886.1260371999815;None;887.6262560002506;None;['9'];[0.34745429968461394];887.6262560002506;None;;;;;Emoconpilot038;2021_Dec_01_1625;BackwardMask;2020.2.8;120.0474426633815;
;f;019_m_f_n_a.jpg;neutral;8;13;m;013_y_m_s_a.jpg;sad;incongruent;7;mismatch;;140;160;;3;207;block1_Pilot_2;19;n_s;n_s_strong;;;;;0;0;0;0;0;79;79;79;;;;;;;;;890.6263946001418;None;892.3719093999825;892.66090610018;892.66090610018;892.6852628001943;892.6852628001943;892.7261989000253;892.7261989000253;None;8;0;0.591512399725616;892.7261989000253;None;894.2264237003401;None;['7'];[0.5232270997948945];894.2264237003401;None;;;;;Emoconpilot038;2021_Dec_01_1625;BackwardMask;2020.2.8;120.0474426633815;
;m;027_o_m_h_a.jpg;happy;9;33;m;033_o_m_h_a.jpg;happy;congruent;9;match;;120;150;;1;238;block1_Pilot_2;27;h_h;h_h_strong;;;;;0;0;0;0;0;80;80;80;;;;;;;;;897.2264917003922;None;899.228548400104;899.5192866004072;899.5192866004072;899.5273305000737;899.5273305000737;899.5680810003541;899.5680810003541;None;None;0;;899.5680810003541;None;901.0681607001461;None;['9'];[0.37744320044294];901.0681607001461;None;;;;;Emoconpilot038;2021_Dec_01_1625;BackwardMask;2020.2.8;120.0474426633815;
;m;027_o_m_h_a.jpg;happy;9;21;f;021_o_f_s_a.jpg;sad;incongruent;7;mismatch;;120;160;;1;238;block1_Pilot_2;27;h_s;h_s_weak;;;;;0;0;0;0;0;81;81;81;;;;;;;;;904.0682640001178;None;906.0717688002624;906.3613045001402;906.3613045001402;906.3689724002033;906.3689724002033;906.4098583003506;906.4098583003506;None;None;0;;906.4098583003506;None;907.9100933000445;None;['9'];[0.5275806002318859];907.9100933000445;None;;;;;Emoconpilot038;2021_Dec_01_1625;BackwardMask;2020.2.8;120.0474426633815;
;m;033_o_m_s_a.jpg;sad;7;40;f;040_y_f_n_a.jpg;neutral;incongruent;8;mismatch;;130;170;;3;146;block1_Pilot_2;33;s_n;s_n_weak;;;;;0;0;0;0;0;82;82;82;;;;;;;;;910.9102557003498;None;912.1348180002533;912.4275415004231;912.4275415004231;912.4524344000965;912.4524344000965;912.4933243002743;912.4933243002743;None;8;1;0.6243000999093056;912.4933243002743;None;913.9934318000451;None;['7'];[0.8921835999935865];913.9934318000451;None;;;;;Emoconpilot038;2021_Dec_01_1625;BackwardMask;2020.2.8;120.0474426633815;
;m;008_y_m_h_a.jpg;happy;9;4;m;004_o_m_s_a.jpg;sad;incongruent;7;match;;120;160;;2;225;block1_Pilot_2;8;h_s;h_s_weak;;;;;0;0;0;0;0;83;83;83;;;;;;;;;916.9934865003452;None;918.8752488000318;919.1694371001795;919.1694371001795;919.1859012003988;919.1859012003988;919.2268365002237;919.2268365002237;None;9;0;0.6028621001169086;919.2268365002237;None;920.7269162000157;None;['7'];[0.3426732001826167];920.7269162000157;None;;;;;Emoconpilot038;2021_Dec_01_1625;BackwardMask;2020.2.8;120.0474426633815;
;f;012_o_f_n_a.jpg;neutral;8;4;m;004_o_m_s_a.jpg;sad;incongruent;7;mismatch;;140;160;;3;150;block1_Pilot_2;12;n_s;n_s_strong;;;;;0;0;0;0;0;84;84;84;;;;;;;;;923.7271771002561;None;924.9997604000382;925.2949521001428;925.2949521001428;925.3193474002182;925.3193474002182;925.3602676000446;925.3602676000446;None;8;0;0.5655109998770058;925.3602676000446;None;926.8603897001594;None;['7'];[0.689372600056231];926.8603897001594;None;;;;;Emoconpilot038;2021_Dec_01_1625;BackwardMask;2020.2.8;120.0474426633815;
;f;021_o_f_s_a.jpg;sad;7;40;f;040_y_f_n_a.jpg;neutral;incongruent;8;match;;130;170;;2;156;block1_Pilot_2;21;s_n;s_n_strong;;;;;0;0;0;0;0;85;85;85;;;;;;;;;929.8604920003563;None;931.1662456002086;931.4612571001053;931.4612571001053;931.4780036001466;931.4780036001466;931.5188309000805;931.5188309000805;None;9;0;1.0466527002863586;931.5188309000805;None;933.0187753001228;None;['8'];[0.28293289989233017];933.0187753001228;None;;;;;Emoconpilot038;2021_Dec_01_1625;BackwardMask;2020.2.8;120.0474426633815;
;m;004_o_m_n_a.jpg;neutral;8;13;m;013_y_m_n_a.jpg;neutral;congruent;8;match;;140;170;;2;225;block1_Pilot_2;4;n_n;n_n_strong;;;;;0;0;0;0;0;86;86;86;;;;;;;;;936.0189545000903;None;937.9240360003896;938.2205264000222;938.2205264000222;938.2362030004151;938.2362030004151;938.2770629003644;938.2770629003644;None;None;0;;938.2770629003644;None;939.7772659002803;None;['9'];[0.26838239980861545];939.7772659002803;None;;;;;Emoconpilot038;2021_Dec_01_1625;BackwardMask;2020.2.8;120.0474426633815;
;m;016_y_m_n_a.jpg;neutral;8;16;m;016_y_m_h_a.jpg;happy;incongruent;9;match;;140;150;;18;193;block1_Pilot_2;16;n_h;n_h_strong;;;;;0;0;0;0;0;87;87;87;;;;;;;;;942.7775280000642;None;944.4051674003713;944.6954218000174;944.6954218000174;944.8446514001116;944.8446514001116;944.8855687002651;944.8855687002651;None;8;0;0.4000726002268493;944.8855687002651;None;946.3857602002099;None;['7'];[0.2998728998936713];946.3857602002099;None;;;;;Emoconpilot038;2021_Dec_01_1625;BackwardMask;2020.2.8;120.0474426633815;
;m;033_o_m_h_a.jpg;happy;9;4;m;004_o_m_h_a.jpg;happy;congruent;9;match;;120;150;;2;195;block1_Pilot_2;33;h_h;h_h_strong;;;;;0;0;0;0;0;88;88;88;;;;;;;;;949.385913300328;None;951.0187717000954;951.3117511002347;951.3117511002347;951.3283002004027;951.3283002004027;951.369065400213;951.369065400213;None;9;1;0.5566982999444008;951.369065400213;None;952.8692132001743;None;['7'];[0.27253910014405847];952.8692132001743;None;;;;;Emoconpilot038;2021_Dec_01_1625;BackwardMask;2020.2.8;120.0474426633815;
;m;027_o_m_h_a.jpg;happy;9;16;m;016_y_m_h_a.jpg;happy;congruent;9;match;;120;150;;3;209;block1_Pilot_2;27;h_h;h_h_weak;;;;;0;0;0;0;0;89;89;89;;;;;;;;;955.8694321000949;None;957.643764400389;957.9372855001129;957.9372855001129;957.9617490000091;957.9617490000091;958.0025210999884;958.0025210999884;None;9;1;0.8191569996997714;958.0025210999884;None;959.5025108000264;None;['8'];[0.33502979995682836];959.5025108000264;None;;;;;Emoconpilot038;2021_Dec_01_1625;BackwardMask;2020.2.8;120.0474426633815;
;m;033_o_m_s_a.jpg;sad;7;16;m;016_y_m_s_a.jpg;sad;congruent;7;match;;130;160;;3;128;block1_Pilot_2;33;s_s;s_s_strong;;;;;0;0;0;0;0;90;90;90;;;;;;;;;962.5027673002332;None;963.5769836003892;963.8703450001776;963.8703450001776;963.8951659002341;963.8951659002341;963.9360639001243;963.9360639001243;None;8;0;0.5255455002188683;963.9360639001243;None;965.4361849003471;None;['7'];[0.3293367000296712];965.4361849003471;None;;;;;Emoconpilot038;2021_Dec_01_1625;BackwardMask;2020.2.8;120.0474426633815;
;f;021_o_f_s_a.jpg;sad;7;30;f;030_o_f_s_a.jpg;sad;congruent;7;match;;130;160;;1;238;block1_Pilot_2;21;s_s;s_s_strong;;;;;0;0;0;0;0;91;91;91;;;;;;;;;968.4362803003751;None;970.4247169001028;970.7204485000111;970.7204485000111;970.728635000065;970.728635000065;970.7695115003735;970.7695115003735;None;None;0;;970.7695115003735;None;972.2698924001306;None;['9'];[0.4637215002439916];972.2698924001306;None;;;;;Emoconpilot038;2021_Dec_01_1625;BackwardMask;2020.2.8;120.0474426633815;
;m;033_o_m_n_a.jpg;neutral;8;28;f;028_y_f_s_a.jpg;sad;incongruent;7;mismatch;;140;160;;18;166;block1_Pilot_2;33;n_s;n_s_strong;;;;;0;0;0;0;0;92;92;92;;;;;;;;;975.2702083000913;None;976.6746768001467;976.9709738004021;976.9709738004021;977.1203695000149;977.1203695000149;977.1612265002914;977.1612265002914;None;8;0;0.5164434001781046;977.1612265002914;None;978.6614749003202;None;['7'];[0.3362439996562898];978.6614749003202;None;;;;;Emoconpilot038;2021_Dec_01_1625;BackwardMask;2020.2.8;120.0474426633815;
;f;019_m_f_n_a.jpg;neutral;8;30;f;030_o_f_n_a.jpg;neutral;congruent;8;match;;140;170;;18;228;block1_Pilot_2;19;n_n;n_n_weak;;;;;0;0;0;0;0;93;93;93;;;;;;;;;981.6615483001806;None;983.5803508004174;983.8713955003768;983.8713955003768;984.0205545001663;984.0205545001663;984.061361500062;984.061361500062;None;8;1;0.5282183000817895;984.061361500062;None;985.5623753000982;None;['7'];[0.2830848000012338];985.5623753000982;None;;;;;Emoconpilot038;2021_Dec_01_1625;BackwardMask;2020.2.8;120.0474426633815;
;m;008_y_m_s_a.jpg;sad;7;12;f;012_o_f_h_a.jpg;happy;incongruent;9;mismatch;;130;150;;3;130;block1_Pilot_2;8;s_h;s_h_weak;;;;;0;0;0;0;0;94;94;94;;;;;;;;;988.562360800337;None;989.665429700166;989.9546599001624;989.9546599001624;989.9792909002863;989.9792909002863;990.0201857001521;990.0201857001521;None;7;0;0.8815091997385025;990.0201857001521;None;991.5201550000347;None;['7'];[0.3895778004080057];991.5201550000347;None;;;;;Emoconpilot038;2021_Dec_01_1625;BackwardMask;2020.2.8;120.0474426633815;
;m;016_y_m_n_a.jpg;neutral;8;28;f;028_y_f_n_a.jpg;neutral;congruent;8;mismatch;;140;170;;18;189;block1_Pilot_2;16;n_n;n_n_strong;;;;;0;0;0;0;0;95;95;95;;;;;;;;;994.520752100274;None;996.113797200378;996.4048278001137;996.4048278001137;996.554395200219;996.554395200219;996.5953537002206;996.5953537002206;None;8;1;0.37036369973793626;996.5953537002206;None;998.0953055000864;None;['7'];[0.28652389999479055];998.0953055000864;None;;;;;Emoconpilot038;2021_Dec_01_1625;BackwardMask;2020.2.8;120.0474426633815;
;f;012_o_f_s_a.jpg;sad;7;16;m;016_y_m_h_a.jpg;happy;incongruent;9;mismatch;;130;150;;3;238;block1_Pilot_2;12;s_h;s_h_strong;;;;;0;0;0;0;0;96;96;96;;;;;;;;;1001.0963473999873;None;1003.0821641003713;1003.3795994999819;1003.3795994999819;1003.404609600082;1003.404609600082;1003.4455638001673;1003.4455638001673;None;7;0;0.744064399972558;1003.4455638001673;None;1004.9456273000687;None;['8'];[0.2840547999367118];1004.9456273000687;None;;;;;Emoconpilot038;2021_Dec_01_1625;BackwardMask;2020.2.8;120.0474426633815;
;m;013_y_m_h_a.jpg;happy;9;27;m;027_o_m_h_a.jpg;happy;congruent;9;match;;120;150;;18;238;block1_Pilot_2;13;h_h;h_h_strong;;;;;0;0;0;0;0;97;97;97;;;;;;;;;1007.9460989004001;None;1009.9670385001227;1010.2636508001015;1010.2636508001015;1010.412956900429;1010.412956900429;1010.4539026999846;1010.4539026999846;None;9;1;0.3678766000084579;1010.4539026999846;None;1011.9540195004083;None;['7'];[0.6357057997956872];1011.9540195004083;None;;;;;Emoconpilot038;2021_Dec_01_1625;BackwardMask;2020.2.8;120.0474426633815;
;m;016_y_m_s_a.jpg;sad;7;33;m;033_o_m_n_a.jpg;neutral;incongruent;8;match;;130;170;;1;238;block1_Pilot_2;16;s_n;s_n_weak;;;;;0;0;0;0;0;98;98;98;;;;;;;;;1014.9546290002763;None;1016.9449680000544;1017.2383346999995;1017.2383346999995;1017.2465605000034;1017.2465605000034;1017.287304200232;1017.287304200232;None;None;0;;1017.287304200232;None;1018.7873495002277;None;['9'];[0.3463546000421047];1018.7873495002277;None;;;;;Emoconpilot038;2021_Dec_01_1625;BackwardMask;2020.2.8;120.0474426633815;
;m;008_y_m_n_a.jpg;neutral;8;30;f;030_o_f_n_a.jpg;neutral;congruent;8;mismatch;;140;170;;1;238;block1_Pilot_2;8;n_n;n_n_weak;;;;;0;0;0;0;0;99;99;99;;;;;;;;;1021.7874428001232;None;1023.8024949003011;1024.0973616000265;1024.0973616000265;1024.1049692002125;1024.1049692002125;1024.1457897000946;1024.1457897000946;None;None;0;;1024.1457897000946;None;1025.6458854000084;None;['9'];[0.4638376999646425];1025.6458854000084;None;;;;;Emoconpilot038;2021_Dec_01_1625;BackwardMask;2020.2.8;120.0474426633815;
;m;008_y_m_s_a.jpg;sad;7;30;f;030_o_f_s_a.jpg;sad;congruent;7;mismatch;;130;160;;2;133;block1_Pilot_2;8;s_s;s_s_weak;;;;;0;0;0;0;0;100;100;100;;;;;;;;;1028.6461729002185;None;1029.7733061001636;1030.064124100376;1030.064124100376;1030.0801484002732;1030.0801484002732;1030.1210735002533;1030.1210735002533;None;7;1;0.6845956998877227;1030.1210735002533;None;1031.6209396002814;None;['8'];[0.3046686998568475];1031.6209396002814;None;;;;;Emoconpilot038;2021_Dec_01_1625;BackwardMask;2020.2.8;120.0474426633815;
;f;040_y_f_n_a.jpg;neutral;8;30;f;030_o_f_s_a.jpg;sad;incongruent;7;match;;140;160;;3;197;block1_Pilot_2;40;n_s;n_s_strong;;;;;0;0;0;0;0;101;101;101;;;;;;;;;1034.6219370001927;None;1036.2819460001774;1036.572625800036;1036.572625800036;1036.5969269000925;1036.5969269000925;1036.6378550003283;1036.6378550003283;None;8;0;0.6637332001700997;1036.6378550003283;None;1038.1377157000825;None;['7'];[0.32404009997844696];1038.1377157000825;None;;;;;Emoconpilot038;2021_Dec_01_1625;BackwardMask;2020.2.8;120.0474426633815;
;m;004_o_m_h_a.jpg;happy;9;30;f;030_o_f_s_a.jpg;sad;incongruent;7;mismatch;;120;160;;3;121;block1_Pilot_2;4;h_s;h_s_strong;;;;;0;0;0;0;0;102;102;102;;;;;;;;;1041.1394366002642;None;1042.1742278002203;1042.464384900406;1042.464384900406;1042.4887647000141;1042.4887647000141;1042.5296467002481;1042.5296467002481;None;9;0;0.45211909990757704;1042.5296467002481;None;1044.0295663001016;None;['7'];[0.24822780024260283];1044.0295663001016;None;;;;;Emoconpilot038;2021_Dec_01_1625;BackwardMask;2020.2.8;120.0474426633815;
;f;040_y_f_h_a.jpg;happy;9;8;m;008_y_m_h_a.jpg;happy;congruent;9;mismatch;;120;150;;18;211;block1_Pilot_2;40;h_h;h_h_weak;;;;;0;0;0;0;0;103;103;103;;;;;;;;;1047.0297918003052;None;1048.7958387001418;1049.0890044001862;1049.0890044001862;1049.238675300032;1049.238675300032;1049.2798645002767;1049.2798645002767;None;9;1;0.5737590999342501;1049.2798645002767;None;1050.7799716000445;None;['7'];[0.3376377997919917];1050.7799716000445;None;;;;;Emoconpilot038;2021_Dec_01_1625;BackwardMask;2020.2.8;120.0474426633815;
;f;019_m_f_s_a.jpg;sad;7;16;m;016_y_m_n_a.jpg;neutral;incongruent;8;mismatch;;130;170;;2;198;block1_Pilot_2;19;s_n;s_n_strong;;;;;0;0;0;0;0;104;104;104;;;;;;;;;1053.779792400077;None;1055.4578121001832;1055.7478849003091;1055.7478849003091;1055.7637855000794;1055.7637855000794;1055.804884900339;1055.804884900339;None;None;0;;1055.804884900339;None;1057.3051602002233;None;['9'];[0.38840969977900386];1057.3051602002233;None;;;;;Emoconpilot038;2021_Dec_01_1625;BackwardMask;2020.2.8;120.0474426633815;
;f;040_y_f_s_a.jpg;sad;7;12;f;012_o_f_s_a.jpg;sad;congruent;7;match;;130;160;;18;240;block1_Pilot_2;40;s_s;s_s_strong;;;;;0;0;0;0;0;105;105;105;;;;;;;;;1060.30490810005;None;1062.3126996001229;1062.6059485999867;1062.6059485999867;1062.7558371000923;1062.7558371000923;1062.7966905999929;1062.7966905999929;None;7;1;0.6010985998436809;1062.7966905999929;None;1064.296593400184;None;['7'];[0.2929728999733925];1064.296593400184;None;;;;;Emoconpilot038;2021_Dec_01_1625;BackwardMask;2020.2.8;120.0474426633815;
;f;040_y_f_n_a.jpg;neutral;8;33;m;033_o_m_s_a.jpg;sad;incongruent;7;mismatch;;140;160;;3;188;block1_Pilot_2;40;n_s;n_s_weak;;;;;0;0;0;0;0;106;106;106;;;;;;;;;1067.2969119003974;None;1068.9007616001181;1069.1901722000912;1069.1901722000912;1069.2141410000622;1069.2141410000622;1069.2552291001193;1069.2552291001193;None;8;0;0.6542865000665188;1069.2552291001193;None;1070.7553128004074;None;['7'];[0.29033719981089234];1070.7553128004074;None;;;;;Emoconpilot038;2021_Dec_01_1625;BackwardMask;2020.2.8;120.0474426633815;
;f;028_y_f_h_a.jpg;happy;9;21;f;021_o_f_s_a.jpg;sad;incongruent;7;match;;120;160;;3;193;block1_Pilot_2;28;h_s;h_s_strong;;;;;0;0;0;0;0;107;107;107;;;;;;;;;1073.7558724000119;None;1075.3737884000875;1075.6642387001775;1075.6642387001775;1075.6890505002812;1075.6890505002812;1075.729790700134;1075.729790700134;None;9;0;0.4997489000670612;1075.729790700134;None;1077.2301631001756;None;['7'];[0.3113522999919951];1077.2301631001756;None;;;;;Emoconpilot038;2021_Dec_01_1625;BackwardMask;2020.2.8;120.0474426633815;
;f;040_y_f_s_a.jpg;sad;7;13;m;013_y_m_n_a.jpg;neutral;incongruent;8;mismatch;;130;170;;2;198;block1_Pilot_2;40;s_n;s_n_strong;;;;;0;0;0;0;0;108;108;108;;;;;;;;;1080.2300786999986;None;1081.8876635003835;1082.1809738003649;1082.1809738003649;1082.1974023003131;1082.1974023003131;1082.2382198004052;1082.2382198004052;None;8;1;0.6153927003033459;1082.2382198004052;None;1083.738367000129;None;['8'];[0.27514890022575855];1083.738367000129;None;;;;;Emoconpilot038;2021_Dec_01_1625;BackwardMask;2020.2.8;120.0474426633815;
;f;030_o_f_n_a.jpg;neutral;8;33;m;033_o_m_s_a.jpg;sad;incongruent;7;mismatch;;140;160;;1;238;block1_Pilot_2;30;n_s;n_s_strong;;;;;0;0;0;0;0;109;109;109;;;;;;;;;1086.7384736002423;None;1088.7710669999942;1089.064861400053;1089.064861400053;1089.0726237003691;1089.0726237003691;1089.113415400032;1089.113415400032;None;None;0;;1089.113415400032;None;1090.6135003003292;None;['9'];[0.41618309961631894];1090.6135003003292;None;;;;;Emoconpilot038;2021_Dec_01_1625;BackwardMask;2020.2.8;120.0474426633815;
;f;021_o_f_h_a.jpg;happy;9;40;f;040_y_f_n_a.jpg;neutral;incongruent;8;match;;120;170;;2;125;block1_Pilot_2;21;h_n;h_n_weak;;;;;0;0;0;0;0;110;110;110;;;;;;;;;1093.6136219003238;None;1094.6762006999925;1094.9650439000688;1094.9650439000688;1094.9810441001318;1094.9810441001318;1095.0217936001718;1095.0217936001718;None;None;0;;1095.0217936001718;None;1096.5219664000906;None;['9'];[0.31559620006009936];1096.5219664000906;None;;;;;Emoconpilot038;2021_Dec_01_1625;BackwardMask;2020.2.8;120.0474426633815;
;f;021_o_f_h_a.jpg;happy;9;16;m;016_y_m_s_a.jpg;sad;incongruent;7;mismatch;;120;160;;1;238;block1_Pilot_2;21;h_s;h_s_strong;;;;;0;0;0;0;0;111;111;111;;;;;;;;;1099.5232548001222;None;1101.5255293999799;1101.8155673001893;1101.8155673001893;1101.8230052003637;1101.8230052003637;1101.8641751999967;1101.8641751999967;None;None;0;;1101.8641751999967;None;1103.3642385001294;None;['9'];[0.48154739988967776];1103.3642385001294;None;;;;;Emoconpilot038;2021_Dec_01_1625;BackwardMask;2020.2.8;120.0474426633815;
;f;012_o_f_h_a.jpg;happy;9;8;m;008_y_m_s_a.jpg;sad;incongruent;7;mismatch;;120;160;;1;238;block1_Pilot_2;12;h_s;h_s_weak;;;;;0;0;0;0;0;112;112;112;;;;;;;;;1106.3650744003244;None;1108.3557955999859;1108.6485594003461;1108.6485594003461;1108.6567075001076;1108.6567075001076;1108.6978394002654;1108.6978394002654;None;None;0;;1108.6978394002654;None;1110.1974933003075;None;['9'];[0.40016070008277893];1110.1974933003075;None;;;;;Emoconpilot038;2021_Dec_01_1625;BackwardMask;2020.2.8;120.0474426633815;
;m;013_y_m_h_a.jpg;happy;9;16;m;016_y_m_s_a.jpg;sad;incongruent;7;match;;120;160;;3;202;block1_Pilot_2;13;h_s;h_s_weak;;;;;0;0;0;0;0;113;113;113;;;;;;;;;1113.1976485000923;None;1114.9018420004286;1115.1911257002503;1115.1911257002503;1115.215142400004;1115.215142400004;1115.2560995002277;1115.2560995002277;None;9;0;0.5416102004237473;1115.2560995002277;None;1116.7560925004072;None;['7'];[0.3055989001877606];1116.7560925004072;None;;;;;Emoconpilot038;2021_Dec_01_1625;BackwardMask;2020.2.8;120.0474426633815;
;f;019_m_f_s_a.jpg;sad;7;4;m;004_o_m_n_a.jpg;neutral;incongruent;8;mismatch;;130;170;;1;238;block1_Pilot_2;19;s_n;s_n_strong;;;;;0;0;0;0;0;114;114;114;;;;;;;;;1119.7560604000464;None;1121.7584220999852;1122.0488921003416;1122.0488921003416;1122.0565328001976;1122.0565328001976;1122.097373700235;1122.097373700235;None;None;0;;1122.097373700235;None;1123.5975044001825;None;['9'];[0.4880087999626994];1123.5975044001825;None;;;;;Emoconpilot038;2021_Dec_01_1625;BackwardMask;2020.2.8;120.0474426633815;
;f;028_y_f_n_a.jpg;neutral;8;27;m;027_o_m_s_a.jpg;sad;incongruent;7;mismatch;;140;160;;18;238;block1_Pilot_2;28;n_s;n_s_strong;;;;;0;0;0;0;0;115;115;115;;;;;;;;;1126.5976619999856;None;1128.5992476004176;1128.8905864004046;1128.8905864004046;1129.0400207000785;1129.0400207000785;1129.0808558003046;1129.0808558003046;None;8;0;0.44476209999993443;1129.0808558003046;None;1130.581022800412;None;['7'];[0.2964776000007987];1130.581022800412;None;;;;;Emoconpilot038;2021_Dec_01_1625;BackwardMask;2020.2.8;120.0474426633815;
;m;013_y_m_s_a.jpg;sad;7;12;f;012_o_f_h_a.jpg;happy;incongruent;9;mismatch;;130;150;;1;238;block1_Pilot_2;13;s_h;s_h_strong;;;;;0;0;0;0;0;116;116;116;;;;;;;;;1133.5811473000795;None;1135.5714852004312;1135.8655384001322;1135.8655384001322;1135.8737342003733;1135.8737342003733;1135.9145699003711;1135.9145699003711;None;None;0;;1135.9145699003711;None;1137.41457980033;None;['9'];[0.38309659995138645];1137.41457980033;None;;;;;Emoconpilot038;2021_Dec_01_1625;BackwardMask;2020.2.8;120.0474426633815;
;m;016_y_m_s_a.jpg;sad;7;19;f;019_m_f_h_a.jpg;happy;incongruent;9;mismatch;;130;150;;1;238;block1_Pilot_2;16;s_h;s_h_strong;;;;;0;0;0;0;0;117;117;117;;;;;;;;;1140.4147376003675;None;1142.4052488002926;1142.6993557000533;1142.6993557000533;1142.7073923000135;1142.7073923000135;1142.7483909004368;1142.7483909004368;None;None;0;;1142.7483909004368;None;1144.2483801003546;None;['9'];[0.4853547001257539];1144.2483801003546;None;;;;;Emoconpilot038;2021_Dec_01_1625;BackwardMask;2020.2.8;120.0474426633815;
;m;013_y_m_s_a.jpg;sad;7;21;f;021_o_f_h_a.jpg;happy;incongruent;9;mismatch;;130;150;;18;238;block1_Pilot_2;13;s_h;s_h_strong;;;;;0;0;0;0;0;118;118;118;;;;;;;;;1147.2500857003033;None;1149.2388256001286;1149.5325617003255;1149.5325617003255;1149.682242800016;1149.682242800016;1149.7229828001;1149.7229828001;None;7;0;0.7787259998731315;1149.7229828001;None;1151.2236620001495;None;['7'];[0.25386760011315346];1151.2236620001495;None;;;;;Emoconpilot038;2021_Dec_01_1625;BackwardMask;2020.2.8;120.0474426633815;
;f;012_o_f_s_a.jpg;sad;7;13;m;013_y_m_h_a.jpg;happy;incongruent;9;mismatch;;130;150;;3;235;block1_Pilot_2;12;s_h;s_h_weak;;;;;0;0;0;0;0;119;119;119;;;;;;;;;1154.2235644999892;None;1156.185825300403;1156.4828023002483;1156.4828023002483;1156.50776399998;1156.50776399998;1156.5486469999887;1156.5486469999887;None;7;0;0.7370313000865281;1156.5486469999887;None;1158.0485436003655;None;['8'];[0.29298319993540645];1158.0485436003655;None;;;;;Emoconpilot038;2021_Dec_01_1625;BackwardMask;2020.2.8;120.0474426633815;
;f;019_m_f_s_a.jpg;sad;7;30;f;030_o_f_h_a.jpg;happy;incongruent;9;match;;130;150;;3;235;block2_Pilot_2;19;s_h;s_h_strong;;;;;0;1;1;1;0;0;0;0;;;;;;;;;1181.084423399996;None;1183.1252063000575;1183.4168604002334;1183.4168604002334;1183.4410622003488;1183.4410622003488;1183.4818880003877;1183.4818880003877;None;7;0;0.6595179000869393;1183.4818880003877;None;1184.9820158001967;None;['8'];[0.4156061001121998];1184.9820158001967;None;;;1161.0491952002048;None;Emoconpilot038;2021_Dec_01_1625;BackwardMask;2020.2.8;120.0474426633815;
;m;008_y_m_n_a.jpg;neutral;8;40;f;040_y_f_h_a.jpg;happy;incongruent;9;mismatch;;140;150;;2;121;block2_Pilot_2;8;n_h;n_h_strong;;;;;0;1;1;1;0;1;1;1;;;;;;;;;1187.9824147000909;None;1189.012304500211;1189.3087013000622;1189.3087013000622;1189.324700300116;1189.324700300116;1189.3655179003254;1189.3655179003254;None;8;0;0.7759373998269439;1189.3655179003254;None;1190.8657052000053;None;['7'];[0.5398435997776687];1190.8657052000053;None;;;;;Emoconpilot038;2021_Dec_01_1625;BackwardMask;2020.2.8;120.0474426633815;
;f;012_o_f_h_a.jpg;happy;9;27;m;027_o_m_n_a.jpg;neutral;incongruent;8;mismatch;;120;170;;2;240;block2_Pilot_2;12;h_n;h_n_weak;;;;;0;1;1;1;0;2;2;2;;;;;;;;;1193.8661699001677;None;1195.8743843003176;1196.1674925000407;1196.1674925000407;1196.183491700329;1196.183491700329;1196.2238669004291;1196.2238669004291;None;9;0;0.5975958998315036;1196.2238669004291;None;1197.7269598999992;None;['8'];[0.26254469994455576];1197.7269598999992;None;;;;;Emoconpilot038;2021_Dec_01_1625;BackwardMask;2020.2.8;120.0474426633815;
;m;008_y_m_h_a.jpg;happy;9;40;f;040_y_f_h_a.jpg;happy;congruent;9;mismatch;;120;150;;18;195;block2_Pilot_2;8;h_h;h_h_strong;;;;;0;1;1;1;0;3;3;3;;;;;;;;;1200.7242591003887;None;1202.3564272001386;1202.64994940022;1202.64994940022;1202.8002443001606;1202.8002443001606;1202.8408244000748;1202.8408244000748;None;9;1;0.37280459981411695;1202.8408244000748;None;1204.3408639002591;None;['7', '7'];[0.10460529988631606, 0.6887372997589409];1204.3408639002591;None;;;;;Emoconpilot038;2021_Dec_01_1625;BackwardMask;2020.2.8;120.0474426633815;
;m;004_o_m_n_a.jpg;neutral;8;33;m;033_o_m_s_a.jpg;sad;incongruent;7;match;;140;160;;18;126;block2_Pilot_2;4;n_s;n_s_weak;;;;;0;1;1;1;0;4;4;4;;;;;;;;;1207.3409766000696;None;1208.4493147004396;1208.7424884000793;1208.7424884000793;1208.8918815003708;1208.8918815003708;1208.9325195001438;1208.9325195001438;None;8;0;0.5850176000967622;1208.9325195001438;None;1210.4329595002346;None;['7'];[0.4765848000533879];1210.4329595002346;None;;;;;Emoconpilot038;2021_Dec_01_1625;BackwardMask;2020.2.8;120.0474426633815;
;f;028_y_f_s_a.jpg;sad;7;27;m;027_o_m_n_a.jpg;neutral;incongruent;8;mismatch;;130;170;;18;225;block2_Pilot_2;28;s_n;s_n_strong;;;;;0;1;1;1;0;5;5;5;;;;;;;;;1213.4327023001388;None;1215.3199510001577;1215.608977400232;1215.608977400232;1215.7589605003595;1215.7589605003595;1215.7995416000485;1215.7995416000485;None;7;0;0.6459630001336336;1215.7995416000485;None;1217.2994844000787;None;['7'];[0.3222452001646161];1217.2994844000787;None;;;;;Emoconpilot038;2021_Dec_01_1625;BackwardMask;2020.2.8;120.0474426633815;
;m;027_o_m_s_a.jpg;sad;7;30;f;030_o_f_h_a.jpg;happy;incongruent;9;mismatch;;130;150;;18;238;block2_Pilot_2;27;s_h;s_h_weak;;;;;0;1;1;1;0;6;6;6;;;;;;;;;1220.2995961001143;None;1222.2924613002688;1222.5840769000351;1222.5840769000351;1222.7338994001038;1222.7338994001038;1222.774504300207;1222.774504300207;None;7;0;0.5029877000488341;1222.774504300207;None;1224.2746106004342;None;['7'];[0.2830236000008881];1224.2746106004342;None;;;;;Emoconpilot038;2021_Dec_01_1625;BackwardMask;2020.2.8;120.0474426633815;
;m;033_o_m_h_a.jpg;happy;9;40;f;040_y_f_s_a.jpg;sad;incongruent;7;mismatch;;120;160;;1;238;block2_Pilot_2;33;h_s;h_s_strong;;;;;0;1;1;1;0;7;7;7;;;;;;;;;1227.2748871999793;None;1229.2663568002172;1229.5594751001336;1229.5594751001336;1229.5676155001856;1229.5676155001856;1229.6083929003216;1229.6083929003216;None;None;0;;1229.6083929003216;None;1231.1081684003584;None;['9'];[0.5855608000420034];1231.1081684003584;None;;;;;Emoconpilot038;2021_Dec_01_1625;BackwardMask;2020.2.8;120.0474426633815;
;f;012_o_f_n_a.jpg;neutral;8;12;f;012_o_f_h_a.jpg;happy;incongruent;9;match;;140;150;;2;200;block2_Pilot_2;12;n_h;n_h_weak;;;;;0;1;1;1;0;8;8;8;;;;;;;;;1234.1094777002;None;1235.8506406000815;1236.1432517999783;1236.1432517999783;1236.1596177001484;1236.1596177001484;1236.2002124004066;1236.2002124004066;None;None;0;;1236.2002124004066;None;1237.7004464003257;None;['9'];[0.45714010018855333];1237.7004464003257;None;;;;;Emoconpilot038;2021_Dec_01_1625;BackwardMask;2020.2.8;120.0474426633815;
;f;030_o_f_n_a.jpg;neutral;8;19;f;019_m_f_n_a.jpg;neutral;congruent;8;match;;140;170;;1;238;block2_Pilot_2;30;n_n;n_n_weak;;;;;0;1;1;1;0;9;9;9;;;;;;;;;1240.7011035000905;None;1242.704925400205;1242.9933823002502;1242.9933823002502;1243.001172200311;1243.001172200311;1243.0421146000735;1243.0421146000735;None;None;0;;1243.0421146000735;None;1244.5420913002454;None;['9'];[0.5276506999507546];1244.5420913002454;None;;;;;Emoconpilot038;2021_Dec_01_1625;BackwardMask;2020.2.8;120.0474426633815;
;m;013_y_m_h_a.jpg;happy;9;8;m;008_y_m_n_a.jpg;neutral;incongruent;8;match;;120;170;;1;238;block2_Pilot_2;13;h_n;h_n_strong;;;;;0;1;1;1;0;10;10;10;;;;;;;;;1247.5423570000567;None;1249.545332300011;1249.835102900397;1249.835102900397;1249.8428751002066;1249.8428751002066;1249.8837765003555;1249.8837765003555;None;None;0;;1249.8837765003555;None;1251.384051500354;None;['9'];[0.48571399971842766];1251.384051500354;None;;;;;Emoconpilot038;2021_Dec_01_1625;BackwardMask;2020.2.8;120.0474426633815;
;f;040_y_f_h_a.jpg;happy;9;19;f;019_m_f_s_a.jpg;sad;incongruent;7;match;;120;160;;3;133;block2_Pilot_2;40;h_s;h_s_strong;;;;;0;1;1;1;0;11;11;11;;;;;;;;;1254.3841358004138;None;1255.5004410999827;1255.7933486001566;1255.7933486001566;1255.81813280005;1255.81813280005;1255.8589956001379;1255.8589956001379;None;9;0;0.6907083997502923;1255.8589956001379;None;1257.3589782002382;None;['7'];[0.3907274999655783];1257.3589782002382;None;;;;;Emoconpilot038;2021_Dec_01_1625;BackwardMask;2020.2.8;120.0474426633815;
;f;040_y_f_h_a.jpg;happy;9;13;m;013_y_m_s_a.jpg;sad;incongruent;7;mismatch;;120;160;;3;226;block2_Pilot_2;40;h_s;h_s_strong;;;;;0;1;1;1;0;12;12;12;;;;;;;;;1260.3598519000225;None;1262.249871500302;1262.5433976002969;1262.5433976002969;1262.5682831001468;1262.5682831001468;1262.6089881001972;1262.6089881001972;None;9;0;0.4925877000205219;1262.6089881001972;None;1264.109254500363;None;['7'];[0.3203343003988266];1264.109254500363;None;;;;;Emoconpilot038;2021_Dec_01_1625;BackwardMask;2020.2.8;120.0474426633815;
;f;030_o_f_s_a.jpg;sad;7;27;m;027_o_m_h_a.jpg;happy;incongruent;9;mismatch;;130;150;;1;238;block2_Pilot_2;30;s_h;s_h_strong;;;;;0;1;1;1;0;13;13;13;;;;;;;;;1267.1099710999988;None;1269.1433681002818;1269.435678299982;1269.435678299982;1269.443401500117;1269.443401500117;1269.4841392003;1269.4841392003;None;None;0;;1269.4841392003;None;1270.9840844003484;None;['9'];[0.49366800021380186];1270.9840844003484;None;;;;;Emoconpilot038;2021_Dec_01_1625;BackwardMask;2020.2.8;120.0474426633815;
;m;033_o_m_h_a.jpg;happy;9;30;f;030_o_f_s_a.jpg;sad;incongruent;7;mismatch;;120;160;;1;238;block2_Pilot_2;33;h_s;h_s_weak;;;;;0;1;1;1;0;14;14;14;;;;;;;;;1273.9853653004393;None;1275.9757371000014;1276.2687265002169;1276.2687265002169;1276.276934100315;1276.276934100315;1276.3177676000632;1276.3177676000632;None;None;0;;1276.3177676000632;None;1277.8178063002415;None;['9'];[0.40401909966021776];1277.8178063002415;None;;;;;Emoconpilot038;2021_Dec_01_1625;BackwardMask;2020.2.8;120.0474426633815;
;f;030_o_f_s_a.jpg;sad;7;28;f;028_y_f_n_a.jpg;neutral;incongruent;8;match;;130;170;;3;198;block2_Pilot_2;30;s_n;s_n_weak;;;;;0;1;1;1;0;15;15;15;;;;;;;;;1280.818699900061;None;1282.4967139000073;1282.7860669000074;1282.7860669000074;1282.8102929000743;1282.8102929000743;1282.8511260002851;1282.8511260002851;None;7;0;0.6746012000367045;1282.8511260002851;None;1284.3515083002858;None;['8'];[0.3581645996309817];1284.3515083002858;None;;;;;Emoconpilot038;2021_Dec_01_1625;BackwardMask;2020.2.8;120.0474426633815;
;f;030_o_f_s_a.jpg;sad;7;33;m;033_o_m_h_a.jpg;happy;incongruent;9;mismatch;;130;150;;3;175;block2_Pilot_2;30;s_h;s_h_weak;;;;;0;1;1;1;0;16;16;16;;;;;;;;;1287.3513218001463;None;1288.8288494003937;1289.1192442001775;1289.1192442001775;1289.1435810001567;1289.1435810001567;1289.1846343004145;1289.1846343004145;None;7;0;0.88519879989326;1289.1846343004145;None;1290.6846532002091;None;['8'];[0.3449905999004841];1290.6846532002091;None;;;;;Emoconpilot038;2021_Dec_01_1625;BackwardMask;2020.2.8;120.0474426633815;
;f;021_o_f_h_a.jpg;happy;9;30;f;030_o_f_h_a.jpg;happy;congruent;9;match;;120;150;;2;194;block2_Pilot_2;21;h_h;h_h_strong;;;;;0;1;1;1;0;17;17;17;;;;;;;;;1293.6855279002339;None;1295.3206241000444;1295.6111485003494;1295.6111485003494;1295.6272276001982;1295.6272276001982;1295.6682021003217;1295.6682021003217;None;9;1;0.7774626999162138;1295.6682021003217;None;1297.1683314000256;None;['8'];[0.46939710015431046];1297.1683314000256;None;;;;;Emoconpilot038;2021_Dec_01_1625;BackwardMask;2020.2.8;120.0474426633815;
;f;019_m_f_n_a.jpg;neutral;8;16;m;016_y_m_s_a.jpg;sad;incongruent;7;mismatch;;140;160;;18;163;block2_Pilot_2;19;n_s;n_s_weak;;;;;0;1;1;1;0;18;18;18;;;;;;;;;1300.168979700189;None;1301.5454921000637;1301.8363126004115;1301.8363126004115;1301.9858611002564;1301.9858611002564;1302.0266929999925;1302.0266929999925;None;8;0;0.5310387997888029;1302.0266929999925;None;1303.5268008001149;None;['7'];[0.45487040001899004];1303.5268008001149;None;;;;;Emoconpilot038;2021_Dec_01_1625;BackwardMask;2020.2.8;120.0474426633815;
;m;033_o_m_n_a.jpg;neutral;8;13;m;013_y_m_n_a.jpg;neutral;congruent;8;match;;140;170;;2;217;block2_Pilot_2;33;n_n;n_n_strong;;;;;0;1;1;1;0;19;19;19;;;;;;;;;1306.5270767002366;None;1308.3540430003777;1308.6447240002453;1308.6447240002453;1308.6608530003577;1308.6608530003577;1308.7017662003636;1308.7017662003636;None;8;1;0.5600954997353256;1308.7017662003636;None;1310.2017211001366;None;['8'];[0.275827799923718];1310.2017211001366;None;;;;;Emoconpilot038;2021_Dec_01_1625;BackwardMask;2020.2.8;120.0474426633815;
;m;033_o_m_h_a.jpg;happy;9;13;m;013_y_m_n_a.jpg;neutral;incongruent;8;match;;120;170;;2;227;block2_Pilot_2;33;h_n;h_n_weak;;;;;0;1;1;1;0;20;20;20;;;;;;;;;1313.2026515002362;None;1315.1023172000423;1315.394511200022;1315.394511200022;1315.411012200173;1315.411012200173;1315.45190980006;1315.45190980006;None;9;0;0.8817799999378622;1315.45190980006;None;1316.9518078002147;None;['8'];[0.31774850003421307];1316.9518078002147;None;;;;;Emoconpilot038;2021_Dec_01_1625;BackwardMask;2020.2.8;120.0474426633815;
;f;012_o_f_s_a.jpg;sad;7;16;m;016_y_m_n_a.jpg;neutral;incongruent;8;mismatch;;130;170;;1;238;block2_Pilot_2;12;s_n;s_n_weak;;;;;0;1;1;1;0;21;21;21;;;;;;;;;1319.9526389003731;None;1321.939355400391;1322.2360074003227;1322.2360074003227;1322.2444842001423;1322.2444842001423;1322.2855035001412;1322.2855035001412;None;None;0;;1322.2855035001412;None;1323.7854127003811;None;['9'];[0.4202881003729999];1323.7854127003811;None;;;;;Emoconpilot038;2021_Dec_01_1625;BackwardMask;2020.2.8;120.0474426633815;
;f;028_y_f_n_a.jpg;neutral;8;21;f;021_o_f_h_a.jpg;happy;incongruent;9;match;;140;150;;18;202;block2_Pilot_2;28;n_h;n_h_strong;;;;;0;1;1;1;0;22;22;22;;;;;;;;;1326.7867595003918;None;1328.5008258000016;1328.7951977001503;1328.7951977001503;1328.9444506000727;1328.9444506000727;1328.9855035003275;1328.9855035003275;None;8;0;0.42026569973677397;1328.9855035003275;None;1330.4855119003914;None;['7'];[0.2883187001571059];1330.4855119003914;None;;;;;Emoconpilot038;2021_Dec_01_1625;BackwardMask;2020.2.8;120.0474426633815;
;f;028_y_f_s_a.jpg;sad;7;30;f;030_o_f_n_a.jpg;neutral;incongruent;8;match;;130;170;;2;127;block2_Pilot_2;28;s_n;s_n_weak;;;;;0;1;1;1;0;23;23;23;;;;;;;;;1333.4873378002085;None;1334.5555412000977;1334.8449030001648;1334.8449030001648;1334.861341800075;1334.861341800075;1334.9020714000799;1334.9020714000799;None;8;1;0.911699399817735;1334.9020714000799;None;1336.402186400257;None;['8'];[0.2595178000628948];1336.402186400257;None;;;;;Emoconpilot038;2021_Dec_01_1625;BackwardMask;2020.2.8;120.0474426633815;
;m;004_o_m_n_a.jpg;neutral;8;40;f;040_y_f_n_a.jpg;neutral;congruent;8;mismatch;;140;170;;1;238;block2_Pilot_2;4;n_n;n_n_weak;;;;;0;1;1;1;0;24;24;24;;;;;;;;;1339.4028819003142;None;1341.420465900097;1341.7121892003343;1341.7121892003343;1341.719692000188;1341.719692000188;1341.7607768001035;1341.7607768001035;None;None;0;;1341.7607768001035;None;1343.2608588002622;None;['9'];[0.48881789995357394];1343.2608588002622;None;;;;;Emoconpilot038;2021_Dec_01_1625;BackwardMask;2020.2.8;120.0474426633815;
;m;016_y_m_n_a.jpg;neutral;8;16;m;016_y_m_h_a.jpg;happy;incongruent;9;match;;140;150;;18;239;block2_Pilot_2;16;n_h;n_h_weak;;;;;0;1;1;1;0;25;25;25;;;;;;;;;1346.2609409000725;None;1348.271557400003;1348.5622233003378;1348.5622233003378;1348.711553500034;1348.711553500034;1348.75255500013;1348.75255500013;None;8;0;0.5331803001463413;1348.75255500013;None;1350.2525568003766;None;['7'];[0.33698369981721044];1350.2525568003766;None;;;;;Emoconpilot038;2021_Dec_01_1625;BackwardMask;2020.2.8;120.0474426633815;
;f;012_o_f_n_a.jpg;neutral;8;33;m;033_o_m_n_a.jpg;neutral;congruent;8;mismatch;;140;170;;3;134;block2_Pilot_2;12;n_n;n_n_weak;;;;;0;1;1;1;0;26;26;26;;;;;;;;;1353.2525696000084;None;1354.3885371000506;1354.6791894002818;1354.6791894002818;1354.7034076000564;1354.7034076000564;1354.7444660002366;1354.7444660002366;None;8;1;0.581209400203079;1354.7444660002366;None;1356.2442476004362;None;['7'];[0.36953580006957054];1356.2442476004362;None;;;;;Emoconpilot038;2021_Dec_01_1625;BackwardMask;2020.2.8;120.0474426633815;
;m;013_y_m_h_a.jpg;happy;9;27;m;027_o_m_s_a.jpg;sad;incongruent;7;match;;120;160;;2;194;block2_Pilot_2;13;h_s;h_s_strong;;;;;0;1;1;1;0;27;27;27;;;;;;;;;1359.2456617001444;None;1360.8810565001331;1361.170985000208;1361.170985000208;1361.1869025002234;1361.1869025002234;1361.2278464999981;1361.2278464999981;None;9;0;0.6819050000049174;1361.2278464999981;None;1362.7278634002432;None;['7'];[0.4618123001419008];1362.7278634002432;None;;;;;Emoconpilot038;2021_Dec_01_1625;BackwardMask;2020.2.8;120.0474426633815;
;m;013_y_m_n_a.jpg;neutral;8;28;f;028_y_f_n_a.jpg;neutral;congruent;8;mismatch;;140;170;;1;238;block2_Pilot_2;13;n_n;n_n_weak;;;;;0;1;1;1;0;28;28;28;;;;;;;;;1365.7286451002583;None;1367.730602500029;1368.0208217999898;1368.0208217999898;1368.0287275002338;1368.0287275002338;1368.0696131000295;1368.0696131000295;None;None;0;;1368.0696131000295;None;1369.56942980038;None;['9'];[0.4042189000174403];1369.56942980038;None;;;;;Emoconpilot038;2021_Dec_01_1625;BackwardMask;2020.2.8;120.0474426633815;
;f;030_o_f_s_a.jpg;sad;7;33;m;033_o_m_h_a.jpg;happy;incongruent;9;mismatch;;130;150;;3;168;block2_Pilot_2;30;s_h;s_h_weak;;;;;0;1;1;1;0;29;29;29;;;;;;;;;1372.5705692004412;None;1373.9891411000863;1374.2794284000993;1374.2794284000993;1374.3038208000362;1374.3038208000362;1374.3447640002705;1374.3447640002705;None;7;0;0.7731980001553893;1374.3447640002705;None;1375.8449029000476;None;['8'];[0.41668569995090365];1375.8449029000476;None;;;;;Emoconpilot038;2021_Dec_01_1625;BackwardMask;2020.2.8;120.0474426633815;
;m;008_y_m_n_a.jpg;neutral;8;12;f;012_o_f_n_a.jpg;neutral;congruent;8;mismatch;;140;170;;18;208;block2_Pilot_2;8;n_n;n_n_weak;;;;;0;1;1;1;0;30;30;30;;;;;;;;;1378.8456455999985;None;1380.5985535001382;1380.88794910023;1380.88794910023;1381.0374349001795;1381.0374349001795;1381.0782368001528;1381.0782368001528;None;8;1;0.6554469000548124;1381.0782368001528;None;1382.578334600199;None;['7'];[0.5233602998778224];1382.578334600199;None;;;;;Emoconpilot038;2021_Dec_01_1625;BackwardMask;2020.2.8;120.0474426633815;
;m;008_y_m_s_a.jpg;sad;7;4;m;004_o_m_n_a.jpg;neutral;incongruent;8;match;;130;170;;2;231;block2_Pilot_2;8;s_n;s_n_weak;;;;;0;1;1;1;0;31;31;31;;;;;;;;;1385.5793301002122;None;1387.5238701002672;1387.8129668002948;1387.8129668002948;1387.829180400353;1387.829180400353;1387.8701751003973;1387.8701751003973;None;7;0;0.7515432997606695;1387.8701751003973;None;1389.3700848002918;None;['8'];[0.41957930009812117];1389.3700848002918;None;;;;;Emoconpilot038;2021_Dec_01_1625;BackwardMask;2020.2.8;120.0474426633815;
;m;016_y_m_n_a.jpg;neutral;8;28;f;028_y_f_n_a.jpg;neutral;congruent;8;mismatch;;140;170;;2;218;block2_Pilot_2;16;n_n;n_n_weak;;;;;0;1;1;1;0;32;32;32;;;;;;;;;1392.3708526003174;None;1394.205723500345;1394.4964263001457;1394.4964263001457;1394.5126472003758;1394.5126472003758;1394.5535214003175;1394.5535214003175;None;8;1;0.6601875997148454;1394.5535214003175;None;1396.0535117001273;None;['7'];[1.0402005999349058];1396.0535117001273;None;;;;;Emoconpilot038;2021_Dec_01_1625;BackwardMask;2020.2.8;120.0474426633815;
;m;033_o_m_n_a.jpg;neutral;8;33;m;033_o_m_s_a.jpg;sad;incongruent;7;match;;140;160;;3;141;block2_Pilot_2;33;n_s;n_s_weak;;;;;0;1;1;1;0;33;33;33;;;;;;;;;1399.0540746999905;None;1400.2475739000365;1400.5384368002415;1400.5384368002415;1400.5626672999933;1400.5626672999933;1400.603586900048;1400.603586900048;None;8;0;0.5621571000665426;1400.603586900048;None;1402.1035233000293;None;['7'];[0.3982156999409199];1402.1035233000293;None;;;;;Emoconpilot038;2021_Dec_01_1625;BackwardMask;2020.2.8;120.0474426633815;
;m;016_y_m_n_a.jpg;neutral;8;13;m;013_y_m_s_a.jpg;sad;incongruent;7;match;;140;160;;1;238;block2_Pilot_2;16;n_s;n_s_weak;;;;;0;1;1;1;0;34;34;34;;;;;;;;;1405.1035987003706;None;1407.1067806002684;1407.3968670000322;1407.3968670000322;1407.4045479004271;1407.4045479004271;1407.4454404003918;1407.4454404003918;None;None;0;;1407.4454404003918;None;1408.945375600364;None;['9'];[0.5563861997798085];1408.945375600364;None;;;;;Emoconpilot038;2021_Dec_01_1625;BackwardMask;2020.2.8;120.0474426633815;
;f;030_o_f_h_a.jpg;happy;9;12;f;012_o_f_n_a.jpg;neutral;incongruent;8;match;;120;170;;3;190;block2_Pilot_2;30;h_n;h_n_weak;;;;;0;1;1;1;0;35;35;35;;;;;;;;;1411.94709350029;None;1413.5481975004077;1413.8387061003596;1413.8387061003596;1413.8631833000109;1413.8631833000109;1413.9041648004204;1413.9041648004204;None;9;0;0.6056246999651194;1413.9041648004204;None;1415.403906200081;None;['7'];[0.3538917996920645];1415.403906200081;None;;;;;Emoconpilot038;2021_Dec_01_1625;BackwardMask;2020.2.8;120.0474426633815;
;f;030_o_f_s_a.jpg;sad;7;12;f;012_o_f_n_a.jpg;neutral;incongruent;8;match;;130;170;;3;197;block2_Pilot_2;30;s_n;s_n_strong;;;;;0;1;1;1;0;36;36;36;;;;;;;;;1418.404078700114;None;1420.0642709000967;1420.3555677002296;1420.3555677002296;1420.3797640004195;1420.3797640004195;1420.4207035000436;1420.4207035000436;None;7;0;0.7208476001396775;1420.4207035000436;None;1421.9207832003012;None;['8'];[0.5729380999691784];1421.9207832003012;None;;;;;Emoconpilot038;2021_Dec_01_1625;BackwardMask;2020.2.8;120.0474426633815;
;m;004_o_m_s_a.jpg;sad;7;8;m;008_y_m_h_a.jpg;happy;incongruent;9;match;;130;150;;3;201;block2_Pilot_2;4;s_h;s_h_strong;;;;;0;1;1;1;0;37;37;37;;;;;;;;;1424.9217519001104;None;1426.603904900141;1426.8967050001957;1426.8967050001957;1426.9214035002515;1426.9214035002515;1426.9625115999952;1426.9625115999952;None;7;0;0.7152418000623584;1426.9625115999952;None;1428.4626364000142;None;['7'];[0.44711400009691715];1428.4626364000142;None;;;;;Emoconpilot038;2021_Dec_01_1625;BackwardMask;2020.2.8;120.0474426633815;
;f;040_y_f_n_a.jpg;neutral;8;16;m;016_y_m_n_a.jpg;neutral;congruent;8;mismatch;;140;170;;3;198;block2_Pilot_2;40;n_n;n_n_strong;;;;;0;1;1;1;0;38;38;38;;;;;;;;;1431.4627051004209;None;1433.1602894002572;1433.4557268000208;1433.4557268000208;1433.4801016002893;1433.4801016002893;1433.5210045999847;1433.5210045999847;None;8;1;0.5487323999404907;1433.5210045999847;None;1435.021223500371;None;['8'];[0.296418400015682];1435.021223500371;None;;;;;Emoconpilot038;2021_Dec_01_1625;BackwardMask;2020.2.8;120.0474426633815;
;m;027_o_m_n_a.jpg;neutral;8;16;m;016_y_m_s_a.jpg;sad;incongruent;7;match;;140;160;;1;238;block2_Pilot_2;27;n_s;n_s_strong;;;;;0;1;1;1;0;39;39;39;;;;;;;;;1438.0212523001246;None;1440.0255541000515;1440.314227099996;1440.314227099996;1440.3219630001113;1440.3219630001113;1440.3629467003047;1440.3629467003047;None;None;0;;1440.3629467003047;None;1441.8629217003472;None;['9'];[0.4707506997510791];1441.8629217003472;None;;;;;Emoconpilot038;2021_Dec_01_1625;BackwardMask;2020.2.8;120.0474426633815;
;m;033_o_m_n_a.jpg;neutral;8;40;f;040_y_f_h_a.jpg;happy;incongruent;9;mismatch;;140;150;;2;137;block2_Pilot_2;33;n_h;n_h_strong;;;;;0;1;1;1;0;40;40;40;;;;;;;;;1444.863570000045;None;1446.0247213002294;1446.3141843001358;1446.3141843001358;1446.330388800241;1446.330388800241;1446.371178700123;1446.371178700123;None;8;0;0.7065141000784934;1446.371178700123;None;1447.8712475001812;None;['8'];[0.2545815999619663];1447.8712475001812;None;;;;;Emoconpilot038;2021_Dec_01_1625;BackwardMask;2020.2.8;120.0474426633815;
;m;004_o_m_s_a.jpg;sad;7;8;m;008_y_m_h_a.jpg;happy;incongruent;9;match;;130;150;;18;193;block2_Pilot_2;4;s_h;s_h_strong;;;;;0;1;1;1;0;41;41;41;;;;;;;;;1450.8716874001548;None;1452.4885782003403;1452.780661100056;1452.780661100056;1452.930560500361;1452.930560500361;1452.9712593001314;1452.9712593001314;None;7;0;0.5304278000257909;1452.9712593001314;None;1454.4714597002603;None;['7'];[0.3024401003494859];1454.4714597002603;None;;;;;Emoconpilot038;2021_Dec_01_1625;BackwardMask;2020.2.8;120.0474426633815;
;f;012_o_f_h_a.jpg;happy;9;4;m;004_o_m_s_a.jpg;sad;incongruent;7;mismatch;;120;160;;3;198;block2_Pilot_2;12;h_s;h_s_weak;;;;;0;1;1;1;0;42;42;42;;;;;;;;;1457.472216800321;None;1459.1300650001504;1459.4225151003338;1459.4225151003338;1459.447249900084;1459.447249900084;1459.4882675004192;1459.4882675004192;None;9;0;0.525308100041002;1459.4882675004192;None;1460.988114300184;None;['7'];[0.39377239998430014];1460.988114300184;None;;;;;Emoconpilot038;2021_Dec_01_1625;BackwardMask;2020.2.8;120.0474426633815;
;f;012_o_f_n_a.jpg;neutral;8;8;m;008_y_m_s_a.jpg;sad;incongruent;7;mismatch;;140;160;;1;238;block2_Pilot_2;12;n_s;n_s_strong;;;;;0;1;1;1;0;43;43;43;;;;;;;;;1463.989304000046;None;1465.992868100293;1466.281404600013;1466.281404600013;1466.2891599000432;1466.2891599000432;1466.3299473002553;1466.3299473002553;None;None;0;;1466.3299473002553;None;1467.8299206001684;None;['9'];[0.47986820014193654];1467.8299206001684;None;;;;;Emoconpilot038;2021_Dec_01_1625;BackwardMask;2020.2.8;120.0474426633815;
;f;040_y_f_n_a.jpg;neutral;8;8;m;008_y_m_n_a.jpg;neutral;congruent;8;mismatch;;140;170;;3;165;block2_Pilot_2;40;n_n;n_n_weak;;;;;0;1;1;1;0;44;44;44;;;;;;;;;1470.8308263001963;None;1472.2245307001285;1472.5147597002797;1472.5147597002797;1472.5393085000105;1472.5393085000105;1472.5801735999994;1472.5801735999994;None;8;1;0.8655131999403238;1472.5801735999994;None;1474.0802021003328;None;['7'];[0.6453458000905812];1474.0802021003328;None;;;;;Emoconpilot038;2021_Dec_01_1625;BackwardMask;2020.2.8;120.0474426633815;
;f;028_y_f_h_a.jpg;happy;9;33;m;033_o_m_n_a.jpg;neutral;incongruent;8;mismatch;;120;170;;1;238;block2_Pilot_2;28;h_n;h_n_strong;;;;;0;1;1;1;0;45;45;45;;;;;;;;;1477.0808698004112;None;1479.0760731003247;1479.3646371001378;1479.3646371001378;1479.3726408001967;1479.3726408001967;1479.413595100399;1479.413595100399;None;None;0;;1479.413595100399;None;1480.9136588000692;None;['9'];[0.42805169988423586];1480.9136588000692;None;;;;;Emoconpilot038;2021_Dec_01_1625;BackwardMask;2020.2.8;120.0474426633815;
;m;027_o_m_s_a.jpg;sad;7;19;f;019_m_f_n_a.jpg;neutral;incongruent;8;mismatch;;130;170;;2;236;block2_Pilot_2;27;s_n;s_n_weak;;;;;0;1;1;1;0;46;46;46;;;;;;;;;1483.9145069001243;None;1485.8880279003642;1486.1814767001197;1486.1814767001197;1486.1977020003833;1486.1977020003833;1486.2388310004026;1486.2388310004026;None;8;1;0.6627385998144746;1486.2388310004026;None;1487.7388397003524;None;['8'];[0.2989162001758814];1487.7388397003524;None;;;;;Emoconpilot038;2021_Dec_01_1625;BackwardMask;2020.2.8;120.0474426633815;
;m;027_o_m_h_a.jpg;happy;9;19;f;019_m_f_s_a.jpg;sad;incongruent;7;mismatch;;120;160;;1;238;block2_Pilot_2;27;h_s;h_s_strong;;;;;0;1;1;1;0;47;47;47;;;;;;;;;1490.739838800393;None;1492.758260700386;1493.0487003000453;1493.0487003000453;1493.0564259001985;1493.0564259001985;1493.0973885999992;1493.0973885999992;None;None;0;;1493.0973885999992;None;1494.5972486003302;None;['9'];[0.50450270017609];1494.5972486003302;None;;;;;Emoconpilot038;2021_Dec_01_1625;BackwardMask;2020.2.8;120.0474426633815;
;m;016_y_m_h_a.jpg;happy;9;4;m;004_o_m_s_a.jpg;sad;incongruent;7;match;;120;160;;3;227;block2_Pilot_2;16;h_s;h_s_strong;;;;;0;1;1;1;0;48;48;48;;;;;;;;;1497.5982051002793;None;1499.4966216003522;1499.79017520044;1499.79017520044;1499.8148399000056;1499.8148399000056;1499.8556067002937;1499.8556067002937;None;9;0;0.4859946998767555;1499.8556067002937;None;1501.3556170002557;None;['7'];[0.3221160997636616];1501.3556170002557;None;;;;;Emoconpilot038;2021_Dec_01_1625;BackwardMask;2020.2.8;120.0474426633815;
;f;040_y_f_h_a.jpg;happy;9;13;m;013_y_m_h_a.jpg;happy;congruent;9;mismatch;;120;150;;3;165;block2_Pilot_2;40;h_h;h_h_strong;;;;;0;1;1;1;0;49;49;49;;;;;;;;;1504.3560004001483;None;1505.737402100116;1506.0317722000182;1506.0317722000182;1506.056689800229;1506.056689800229;1506.0976698002778;1506.0976698002778;None;9;1;0.5080403001047671;1506.0976698002778;None;1507.5974081000313;None;['7'];[0.29614470014348626];1507.5974081000313;None;;;;;Emoconpilot038;2021_Dec_01_1625;BackwardMask;2020.2.8;120.0474426633815;
;m;033_o_m_s_a.jpg;sad;7;28;f;028_y_f_n_a.jpg;neutral;incongruent;8;mismatch;;130;170;;2;227;block2_Pilot_2;33;s_n;s_n_weak;;;;;0;1;1;1;0;50;50;50;;;;;;;;;1510.5985587001778;None;1512.4972576000728;1512.7902518003248;1512.7902518003248;1512.8067249003798;1512.8067249003798;1512.847642000299;1512.847642000299;None;8;1;0.6620445000007749;1512.847642000299;None;1514.3475262001157;None;['8'];[0.8502221000380814];1514.3475262001157;None;;;;;Emoconpilot038;2021_Dec_01_1625;BackwardMask;2020.2.8;120.0474426633815;
;f;019_m_f_s_a.jpg;sad;7;27;m;027_o_m_h_a.jpg;happy;incongruent;9;mismatch;;130;150;;1;238;block2_Pilot_2;19;s_h;s_h_weak;;;;;0;1;1;1;0;51;51;51;;;;;;;;;1517.3486399003305;None;1519.3540155002847;1519.6491738003679;1519.6491738003679;1519.6569625004195;1519.6569625004195;1519.697816700209;1519.697816700209;None;None;0;;1519.697816700209;None;1521.1978077003732;None;['9'];[0.5200180001556873];1521.1978077003732;None;;;;;Emoconpilot038;2021_Dec_01_1625;BackwardMask;2020.2.8;120.0474426633815;
;m;016_y_m_h_a.jpg;happy;9;19;f;019_m_f_n_a.jpg;neutral;incongruent;8;mismatch;;120;170;;18;238;block2_Pilot_2;16;h_n;h_n_strong;;;;;0;1;1;1;0;52;52;52;;;;;;;;;1524.1979734003544;None;1526.1886956002563;1526.4821039000526;1526.4821039000526;1526.6322237001732;1526.6322237001732;1526.6729927002452;1526.6729927002452;None;9;0;0.42076299991458654;1526.6729927002452;None;1528.1731422003359;None;['7'];[0.31268269987776875];1528.1731422003359;None;;;;;Emoconpilot038;2021_Dec_01_1625;BackwardMask;2020.2.8;120.0474426633815;
;f;021_o_f_s_a.jpg;sad;7;8;m;008_y_m_n_a.jpg;neutral;incongruent;8;mismatch;;130;170;;1;238;block2_Pilot_2;21;s_n;s_n_strong;;;;;0;1;1;1;0;53;53;53;;;;;;;;;1531.1741583002731;None;1533.162487800233;1533.457353700418;1533.457353700418;1533.465661200229;1533.465661200229;1533.506371400319;1533.506371400319;None;None;0;;1533.506371400319;None;1535.0063546001911;None;['9'];[0.471433499827981];1535.0063546001911;None;;;;;Emoconpilot038;2021_Dec_01_1625;BackwardMask;2020.2.8;120.0474426633815;
;f;012_o_f_s_a.jpg;sad;7;33;m;033_o_m_s_a.jpg;sad;congruent;7;mismatch;;130;160;;2;148;block2_Pilot_2;12;s_s;s_s_weak;;;;;0;1;1;1;0;54;54;54;;;;;;;;;1538.0065512000583;None;1539.2432209001854;1539.5406792000867;1539.5406792000867;1539.5571718001738;1539.5571718001738;1539.5982881002128;1539.5982881002128;None;None;0;;1539.5982881002128;None;1541.0984181002714;None;['9'];[0.347327200230211];1541.0984181002714;None;;;;;Emoconpilot038;2021_Dec_01_1625;BackwardMask;2020.2.8;120.0474426633815;
;f;030_o_f_s_a.jpg;sad;7;40;f;040_y_f_s_a.jpg;sad;congruent;7;match;;130;160;;3;136;block2_Pilot_2;30;s_s;s_s_strong;;;;;0;1;1;1;0;55;55;55;;;;;;;;;1544.0991342002526;None;1545.2556035001762;1545.5497667002492;1545.5497667002492;1545.5738746002316;1545.5738746002316;1545.6149385003373;1545.6149385003373;None;None;0;;1545.6149385003373;None;1547.1150061003864;None;['8'];[0.3308185003697872];1547.1150061003864;None;;;;;Emoconpilot038;2021_Dec_01_1625;BackwardMask;2020.2.8;120.0474426633815;
;m;027_o_m_s_a.jpg;sad;7;28;f;028_y_f_h_a.jpg;happy;incongruent;9;mismatch;;130;150;;1;238;block2_Pilot_2;27;s_h;s_h_weak;;;;;0;1;1;1;0;56;56;56;;;;;;;;;1550.1152121000923;None;1552.1066914000548;1552.3993533002213;1552.3993533002213;1552.4076227000915;1552.4076227000915;1552.4484012001194;1552.4484012001194;None;None;0;;1552.4484012001194;None;1553.9484223001637;None;['9'];[0.36934349965304136];1553.9484223001637;None;;;;;Emoconpilot038;2021_Dec_01_1625;BackwardMask;2020.2.8;120.0474426633815;
;m;004_o_m_n_a.jpg;neutral;8;8;m;008_y_m_s_a.jpg;sad;incongruent;7;match;;140;160;;3;225;block2_Pilot_2;4;n_s;n_s_strong;;;;;0;1;1;1;0;57;57;57;;;;;;;;;1556.9485437003896;None;1558.8575276001357;1559.1498897001147;1559.1498897001147;1559.174476500135;1559.174476500135;1559.2152525000274;1559.2152525000274;None;8;0;0.6303963996469975;1559.2152525000274;None;1560.7153584002517;None;['8'];[0.9303869996219873];1560.7153584002517;None;;;;;Emoconpilot038;2021_Dec_01_1625;BackwardMask;2020.2.8;120.0474426633815;
;f;012_o_f_s_a.jpg;sad;7;40;f;040_y_f_s_a.jpg;sad;congruent;7;match;;130;160;;1;238;block2_Pilot_2;12;s_s;s_s_strong;;;;;0;1;1;1;0;58;58;58;;;;;;;;;1563.7161306003109;None;1565.7024469003081;1565.999526700005;1565.999526700005;1566.0076922001317;1566.0076922001317;1566.048514700029;1566.048514700029;None;None;0;;1566.048514700029;None;1567.5487173004076;None;['9'];[0.4087618002668023];1567.5487173004076;None;;;;;Emoconpilot038;2021_Dec_01_1625;BackwardMask;2020.2.8;120.0474426633815;
;f;021_o_f_h_a.jpg;happy;9;4;m;004_o_m_n_a.jpg;neutral;incongruent;8;mismatch;;120;170;;1;238;block2_Pilot_2;21;h_n;h_n_weak;;;;;0;1;1;1;0;59;59;59;;;;;;;;;1570.5496817003004;None;1572.5527885002084;1572.8418561001308;1572.8418561001308;1572.8497798000462;1572.8497798000462;1572.8905989001505;1572.8905989001505;None;None;0;;1572.8905989001505;None;1574.3904900001362;None;['9'];[0.4711183998733759];1574.3904900001362;None;;;;;Emoconpilot038;2021_Dec_01_1625;BackwardMask;2020.2.8;120.0474426633815;
;f;040_y_f_h_a.jpg;happy;9;16;m;016_y_m_n_a.jpg;neutral;incongruent;8;mismatch;;120;170;;2;154;block2_Pilot_2;40;h_n;h_n_weak;;;;;0;1;1;1;0;60;60;60;;;;;;;;;1577.3914542002603;None;1578.6816728999838;1578.9750784002244;1578.9750784002244;1578.99140430009;1578.99140430009;1579.0323236002587;1579.0323236002587;None;9;0;0.6374902999959886;1579.0323236002587;None;1580.5323960003443;None;['8'];[0.3531392002478242];1580.5323960003443;None;;;;;Emoconpilot038;2021_Dec_01_1625;BackwardMask;2020.2.8;120.0474426633815;
;m;008_y_m_n_a.jpg;neutral;8;4;m;004_o_m_s_a.jpg;sad;incongruent;7;match;;140;160;;18;145;block2_Pilot_2;8;n_s;n_s_strong;;;;;0;1;1;1;0;61;61;61;;;;;;;;;1583.5324204000644;None;1584.7880045999773;1585.0839224001393;1585.0839224001393;1585.2332230000757;1585.2332230000757;1585.2740835002623;1585.2740835002623;None;8;0;0.6835121000185609;1585.2740835002623;None;1586.7742747003213;None;['7'];[0.3275891998782754];1586.7742747003213;None;;;;;Emoconpilot038;2021_Dec_01_1625;BackwardMask;2020.2.8;120.0474426633815;
;f;021_o_f_s_a.jpg;sad;7;33;m;033_o_m_h_a.jpg;happy;incongruent;9;mismatch;;130;150;;1;238;block2_Pilot_2;21;s_h;s_h_strong;;;;;0;1;1;1;0;62;62;62;;;;;;;;;1589.7744072000496;None;1591.763933500275;1592.0584468999878;1592.0584468999878;1592.0667791003361;1592.0667791003361;1592.1076205000281;1592.1076205000281;None;None;0;;1592.1076205000281;None;1593.6077451002784;None;['9'];[0.6139508001506329];1593.6077451002784;None;;;;;Emoconpilot038;2021_Dec_01_1625;BackwardMask;2020.2.8;120.0474426633815;
;m;033_o_m_n_a.jpg;neutral;8;30;f;030_o_f_h_a.jpg;happy;incongruent;9;mismatch;;140;150;;18;171;block2_Pilot_2;33;n_h;n_h_weak;;;;;0;1;1;1;0;63;63;63;;;;;;;;;1596.6077354000881;None;1598.0538122002035;1598.342489800416;1598.342489800416;1598.4918726002797;1598.4918726002797;1598.5326596000232;1598.5326596000232;None;8;0;0.5450573000125587;1598.5326596000232;None;1600.0327893001959;None;['7'];[0.5729492995887995];1600.0327893001959;None;;;;;Emoconpilot038;2021_Dec_01_1625;BackwardMask;2020.2.8;120.0474426633815;
;m;027_o_m_n_a.jpg;neutral;8;27;m;027_o_m_h_a.jpg;happy;incongruent;9;match;;140;150;;2;164;block2_Pilot_2;27;n_h;n_h_weak;;;;;0;1;1;1;0;64;64;64;;;;;;;;;1603.0336576001719;None;1604.4188248002902;1604.7092195004225;1604.7092195004225;1604.7253349004313;1604.7253349004313;1604.7660726001486;1604.7660726001486;None;None;0;;1604.7660726001486;None;1606.2661631000228;None;['9'];[0.49953650031238794];1606.2661631000228;None;;;;;Emoconpilot038;2021_Dec_01_1625;BackwardMask;2020.2.8;120.0474426633815;
;m;008_y_m_n_a.jpg;neutral;8;40;f;040_y_f_n_a.jpg;neutral;congruent;8;mismatch;;140;170;;1;238;block2_Pilot_2;8;n_n;n_n_strong;;;;;0;1;1;1;0;65;65;65;;;;;;;;;1609.2662809002213;None;1611.2690805001184;1611.559277600143;1611.559277600143;1611.5670533003286;1611.5670533003286;1611.6079432000406;1611.6079432000406;None;None;0;;1611.6079432000406;None;1613.108399800025;None;['9'];[0.3772887997329235];1613.108399800025;None;;;;;Emoconpilot038;2021_Dec_01_1625;BackwardMask;2020.2.8;120.0474426633815;
;f;040_y_f_h_a.jpg;happy;9;21;f;021_o_f_n_a.jpg;neutral;incongruent;8;match;;120;170;;18;239;block2_Pilot_2;40;h_n;h_n_strong;;;;;0;1;1;1;0;66;66;66;;;;;;;;;1616.1080390000716;None;1618.107473500073;1618.400729200337;1618.400729200337;1618.5506031000987;1618.5506031000987;1618.5914330002852;1618.5914330002852;None;9;0;0.5023557003587484;1618.5914330002852;None;1620.0914617003873;None;['7'];[0.3780648000538349];1620.0914617003873;None;;;;;Emoconpilot038;2021_Dec_01_1625;BackwardMask;2020.2.8;120.0474426633815;
;f;021_o_f_s_a.jpg;sad;7;28;f;028_y_f_h_a.jpg;happy;incongruent;9;match;;130;150;;1;238;block2_Pilot_2;21;s_h;s_h_weak;;;;;0;1;1;1;0;67;67;67;;;;;;;;;1623.0920391003601;None;1625.0805741003715;1625.3759502000175;1625.3759502000175;1625.384104900062;1625.384104900062;1625.4247186002322;1625.4247186002322;None;None;0;;1625.4247186002322;None;1626.9249293003231;None;['9'];[0.5609221998602152];1626.9249293003231;None;;;;;Emoconpilot038;2021_Dec_01_1625;BackwardMask;2020.2.8;120.0474426633815;
;f;021_o_f_n_a.jpg;neutral;8;30;f;030_o_f_n_a.jpg;neutral;congruent;8;match;;140;170;;2;209;block2_Pilot_2;21;n_n;n_n_strong;;;;;0;1;1;1;0;68;68;68;;;;;;;;;1629.9251461001113;None;1631.6997286002152;1631.9933576001786;1631.9933576001786;1632.00920030009;1632.00920030009;1632.0501363002695;1632.0501363002695;None;None;0;;1632.0501363002695;None;1633.5503707001917;None;['9'];[0.4153486001305282];1633.5503707001917;None;;;;;Emoconpilot038;2021_Dec_01_1625;BackwardMask;2020.2.8;120.0474426633815;
;f;040_y_f_s_a.jpg;sad;7;13;m;013_y_m_s_a.jpg;sad;congruent;7;mismatch;;130;160;;3;147;block2_Pilot_2;40;s_s;s_s_strong;;;;;0;1;1;1;0;69;69;69;;;;;;;;;1636.5507606002502;None;1637.7831821003929;1638.076186900027;1638.076186900027;1638.1010594000109;1638.1010594000109;1638.1419071001;1638.1419071001;None;7;1;0.8718170002102852;1638.1419071001;None;1639.641972000245;None;['8'];[0.31568680005148053];1639.641972000245;None;;;;;Emoconpilot038;2021_Dec_01_1625;BackwardMask;2020.2.8;120.0474426633815;
;f;040_y_f_s_a.jpg;sad;7;21;f;021_o_f_h_a.jpg;happy;incongruent;9;match;;130;150;;3;172;block2_Pilot_2;40;s_h;s_h_strong;;;;;0;1;1;1;0;70;70;70;;;;;;;;;1642.6422377000563;None;1644.0833404003642;1644.3763185003772;1644.3763185003772;1644.4012662000023;1644.4012662000023;1644.4419876001775;1644.4419876001775;None;7;0;0.6755168996751308;1644.4419876001775;None;1645.9421227001585;None;['8'];[0.15960039990022779];1645.9421227001585;None;;;;;Emoconpilot038;2021_Dec_01_1625;BackwardMask;2020.2.8;120.0474426633815;
;m;013_y_m_s_a.jpg;sad;7;16;m;016_y_m_n_a.jpg;neutral;incongruent;8;match;;130;170;;1;238;block2_Pilot_2;13;s_n;s_n_strong;;;;;0;1;1;1;0;71;71;71;;;;;;;;;1648.9430653001182;None;1650.9327536001801;1651.2266174000688;1651.2266174000688;1651.2345696003176;1651.2345696003176;1651.2755709001794;1651.2755709001794;None;None;0;;1651.2755709001794;None;1652.775461500045;None;['9'];[0.6142739998176694];1652.775461500045;None;;;;;Emoconpilot038;2021_Dec_01_1625;BackwardMask;2020.2.8;120.0474426633815;
