Person;primeGender;prime;primeEmotion;corrAnsPrime;targetPerson;targetGender;target;targetEmotion;Cond;corrAnsTar;gender;condition;ID_primer;ID_target;PrimerTime;PrimerTime120;JitterTime;conditionsFile;primePerson;emotion_condition;Condition;example.thisRepN;example.thisTrialN;example.thisN;example.thisIndex;readinBlocks.thisRepN;readinBlocks.thisTrialN;readinBlocks.thisN;readinBlocks.thisIndex;trials.thisRepN;trials.thisTrialN;trials.thisN;trials.thisIndex;text_intro.started;text_intro.stopped;text_probe.started;text_probe.stopped;key_resp_2.keys;key_resp_2.rt;key_resp_2.started;key_resp_2.stopped;polygon_ISI.started;polygon_ISI.stopped;polygon.started;polygon.stopped;primerImage.started;primerImage.stopped;maskImage.started;maskImage.stopped;response.started;response.stopped;key_resp.keys;key_resp.corr;key_resp.rt;key_resp.started;key_resp.stopped;text.started;text.stopped;key_resp_Rating.keys;key_resp_Rating.rt;key_resp_Rating.started;key_resp_Rating.stopped;text_start.started;text_start.stopped;text_pause.started;text_pause.stopped;text_ende.started;text_ende.stopped;participant;date;expName;psychopyVersion;frameRate;
;;;;;;;;;;;;;;;;;;;;;;;;;;;;;;;;;;20.53674260014668;25.504316499922425;25.504316499922425;None;8;14.38843460008502;20.53674260014668;None;;;;;;;;;;;;;;;;;;;;;;;;;;;;Emoconpilot034;2021_Dec_01_1718;BackwardMask;2020.2.8;119.93988606232843;
2;f;1113_y_f_s_a.jpg;sad;7;1;m;1111_m_m_h_a.jpg;happy;incongruent;9;mix;s+h;130;150;1;2;148;;;;;0;0;0;0;;;;;;;;;;;;;;;;;34.95659920014441;None;36.21628369996324;36.525227199774235;36.525227199774235;36.55345330014825;36.55345330014825;36.587194699794054;36.587194699794054;None;8;0;1.3139388002455235;36.587194699794054;None;38.08881019987166;None;['8'];[1.4043648997321725];38.08881019987166;None;;;;;;;Emoconpilot034;2021_Dec_01_1718;BackwardMask;2020.2.8;119.93988606232843;
2;f;1111_m_m_h_a.jpg;happy;9;3;f;1113_y_f_s_a.jpg;sad;incongruent;7;mix;h+s;120;160;9;18;195;;;;;0;1;1;1;;;;;;;;;;;;;;;;;41.08819749997929;None;42.73541169986129;43.03044759994373;43.03044759994373;43.17993550002575;43.17993550002575;43.22076960001141;43.22076960001141;None;9;0;1.2164984000846744;43.22076960001141;None;44.72078280011192;None;['7'];[1.388396699912846];44.72078280011192;None;;;;;;;Emoconpilot034;2021_Dec_01_1718;BackwardMask;2020.2.8;119.93988606232843;
2;f;1112_m_f_n_a.jpg;neutral;8;2;f;1112_m_f_n_a.jpg;neutral;congruent;8;match;n+n;140;170;9;18;134;;;;;0;2;2;2;;;;;;;;;;;;;;;;;47.721040800213814;None;48.860164400190115;49.15571289975196;49.15571289975196;49.305075199808925;49.305075199808925;49.345842599868774;49.345842599868774;None;8;1;0.9634636999107897;49.345842599868774;None;50.84623460005969;None;['7'];[2.55087919998914];50.84623460005969;None;;;;;;;Emoconpilot034;2021_Dec_01_1718;BackwardMask;2020.2.8;119.93988606232843;
;m;033_o_m_h_a.jpg;happy;9;30;f;030_o_f_n_a.jpg;neutral;incongruent;8;mismatch;;120;170;;18;238;block1_Pilot_2;33;h_n;h_n_strong;;;;;0;0;0;0;0;0;0;0;;;;;;;;;54.883066500071436;None;56.877806399948895;57.172374499961734;57.172374499961734;57.32231379998848;57.32231379998848;57.362712000031024;57.362712000031024;None;9;0;1.1542728999629617;57.362712000031024;None;58.86307490011677;None;['7'];[1.2220752001740038];58.86307490011677;None;53.84623260004446;None;None;None;;;Emoconpilot034;2021_Dec_01_1718;BackwardMask;2020.2.8;119.93988606232843;
;m;004_o_m_h_a.jpg;happy;9;12;f;012_o_f_h_a.jpg;happy;congruent;9;mismatch;;120;150;;2;218;block1_Pilot_2;4;h_h;h_h_weak;;;;;0;0;0;0;0;1;1;1;;;;;;;;;61.86356810014695;None;63.72528239991516;64.01425429992378;64.01425429992378;64.03036839980632;64.03036839980632;64.07133929990232;64.07133929990232;None;None;0;;64.07133929990232;None;65.57128359982744;None;"['8', '9']";"[1.4578763996250927, 2.5538407997228205]";65.57128359982744;None;;;;;;;Emoconpilot034;2021_Dec_01_1718;BackwardMask;2020.2.8;119.93988606232843;
;f;012_o_f_h_a.jpg;happy;9;33;m;033_o_m_h_a.jpg;happy;congruent;9;mismatch;;120;150;;2;140;block1_Pilot_2;12;h_h;h_h_weak;;;;;0;0;0;0;0;2;2;2;;;;;;;;;68.57157680019736;None;69.74779010005295;70.0390699999407;70.0390699999407;70.05571749992669;70.05571749992669;70.0964576001279;70.0964576001279;None;9;1;1.188624800182879;70.0964576001279;None;71.59641399979591;None;['7'];[0.9527439000084996];71.59641399979591;None;;;;;;;Emoconpilot034;2021_Dec_01_1718;BackwardMask;2020.2.8;119.93988606232843;
;f;040_y_f_n_a.jpg;neutral;8;40;f;040_y_f_h_a.jpg;happy;incongruent;9;match;;140;150;;2;192;block1_Pilot_2;40;n_h;n_h_weak;;;;;0;0;0;0;0;3;3;3;;;;;;;;;74.59745070012286;None;76.2382661998272;76.53111919993535;76.53111919993535;76.54709539981559;76.54709539981559;76.588254599832;76.588254599832;None;8;0;1.2888186001218855;76.588254599832;None;78.08822449995205;None;['8'];[0.6529377000406384];78.08822449995205;None;;;;;;;Emoconpilot034;2021_Dec_01_1718;BackwardMask;2020.2.8;119.93988606232843;
;m;013_y_m_s_a.jpg;sad;7;16;m;016_y_m_n_a.jpg;neutral;incongruent;8;match;;130;170;;3;155;block1_Pilot_2;13;s_n;s_n_weak;;;;;0;0;0;0;0;4;4;4;;;;;;;;;81.08918379992247;None;82.3875242001377;82.6811644998379;82.6811644998379;82.70576989976689;82.70576989976689;82.74652370018885;82.74652370018885;None;8;1;0.9546586000360548;82.74652370018885;None;84.24687540018931;None;['7'];[0.9823345998302102];84.24687540018931;None;;;;;;;Emoconpilot034;2021_Dec_01_1718;BackwardMask;2020.2.8;119.93988606232843;
;f;012_o_f_h_a.jpg;happy;9;21;f;021_o_f_h_a.jpg;happy;congruent;9;match;;120;150;;2;216;block1_Pilot_2;12;h_h;h_h_strong;;;;;0;0;0;0;0;5;5;5;;;;;;;;;87.24690929986537;None;89.0551279000938;89.34778469987214;89.34778469987214;89.36418349994346;89.36418349994346;89.40511280018836;89.40511280018836;None;9;1;1.0240667997859418;89.40511280018836;None;90.90521730016917;None;['7'];[0.5798793998546898];90.90521730016917;None;;;;;;;Emoconpilot034;2021_Dec_01_1718;BackwardMask;2020.2.8;119.93988606232843;
;f;040_y_f_s_a.jpg;sad;7;40;f;040_y_f_h_a.jpg;happy;incongruent;9;match;;130;150;;1;238;block1_Pilot_2;40;s_h;s_h_weak;;;;;0;0;0;0;0;6;6;6;;;;;;;;;93.90531030017883;None;95.89675310021266;96.18935590004548;96.18935590004548;96.19759579980746;96.19759579980746;96.23879820015281;96.23879820015281;None;None;0;;96.23879820015281;None;97.73870069999248;None;['9'];[1.1624500001780689];97.73870069999248;None;;;;;;;Emoconpilot034;2021_Dec_01_1718;BackwardMask;2020.2.8;119.93988606232843;
;m;033_o_m_n_a.jpg;neutral;8;27;m;027_o_m_n_a.jpg;neutral;congruent;8;match;;140;170;;18;238;block1_Pilot_2;33;n_n;n_n_weak;;;;;0;0;0;0;0;7;7;7;;;;;;;;;100.73940380010754;None;102.74962250003591;103.04013990005478;103.04013990005478;103.18961159978062;103.18961159978062;103.23027729988098;103.23027729988098;None;8;1;1.1429324001073837;103.23027729988098;None;104.73121490003541;None;['7'];[1.0418210998177528];104.73121490003541;None;;;;;;;Emoconpilot034;2021_Dec_01_1718;BackwardMask;2020.2.8;119.93988606232843;
;f;040_y_f_h_a.jpg;happy;9;19;f;019_m_f_n_a.jpg;neutral;incongruent;8;match;;120;170;;1;238;block1_Pilot_2;40;h_n;h_n_strong;;;;;0;0;0;0;0;8;8;8;;;;;;;;;107.73054380016401;None;109.72221220005304;110.0147664998658;110.0147664998658;110.02303649997339;110.02303649997339;110.06392979994416;110.06392979994416;None;None;0;;110.06392979994416;None;111.56392840016633;None;['8'];[0.5212089996784925];111.56392840016633;None;;;;;;;Emoconpilot034;2021_Dec_01_1718;BackwardMask;2020.2.8;119.93988606232843;
;m;013_y_m_h_a.jpg;happy;9;12;f;012_o_f_s_a.jpg;sad;incongruent;7;mismatch;;120;160;;3;198;block1_Pilot_2;13;h_s;h_s_weak;;;;;0;0;0;0;0;9;9;9;;;;;;;;;114.56469460017979;None;116.26294030016288;116.55709239980206;116.55709239980206;116.58145719999447;116.58145719999447;116.62231400003657;116.62231400003657;None;9;0;0.9349863003008068;116.62231400003657;None;118.12271129991859;None;['7'];[0.5943383001722395];118.12271129991859;None;;;;;;;Emoconpilot034;2021_Dec_01_1718;BackwardMask;2020.2.8;119.93988606232843;
;m;008_y_m_h_a.jpg;happy;9;4;m;004_o_m_n_a.jpg;neutral;incongruent;8;match;;120;170;;18;150;block1_Pilot_2;8;h_n;h_n_strong;;;;;0;0;0;0;0;10;10;10;;;;;;;;;121.12338439980522;None;122.38236630009487;122.67343810014427;122.67343810014427;122.82356599997729;122.82356599997729;122.86421159980819;122.86421159980819;None;9;0;0.8130759997293353;122.86421159980819;None;124.3640401000157;None;['7'];[0.5450617000460625];124.3640401000157;None;;;;;;;Emoconpilot034;2021_Dec_01_1718;BackwardMask;2020.2.8;119.93988606232843;
;f;019_m_f_h_a.jpg;happy;9;27;m;027_o_m_s_a.jpg;sad;incongruent;7;mismatch;;120;160;;1;238;block1_Pilot_2;19;h_s;h_s_weak;;;;;0;0;0;0;0;11;11;11;;;;;;;;;127.3650239999406;None;129.35590780014172;129.64873360004276;129.64873360004276;129.65671260003;129.65671260003;129.69764829985797;129.69764829985797;None;None;0;;129.69764829985797;None;131.19790429994464;None;['9'];[1.1992794000543654];131.19790429994464;None;;;;;;;Emoconpilot034;2021_Dec_01_1718;BackwardMask;2020.2.8;119.93988606232843;
;m;016_y_m_s_a.jpg;sad;7;4;m;004_o_m_s_a.jpg;sad;congruent;7;match;;130;160;;18;142;block1_Pilot_2;16;s_s;s_s_strong;;;;;0;0;0;0;0;12;12;12;;;;;;;;;134.1984198000282;None;135.3895698999986;135.68210439989343;135.68210439989343;135.83205429976806;135.83205429976806;135.87286250013858;135.87286250013858;None;7;1;0.9403117001056671;135.87286250013858;None;137.37285970011726;None;['7'];[1.1363494000397623];137.37285970011726;None;;;;;;;Emoconpilot034;2021_Dec_01_1718;BackwardMask;2020.2.8;119.93988606232843;
;f;021_o_f_n_a.jpg;neutral;8;21;f;021_o_f_h_a.jpg;happy;incongruent;9;match;;140;150;;3;171;block1_Pilot_2;21;n_h;n_h_weak;;;;;0;0;0;0;0;13;13;13;;;;;;;;;140.37356580002233;None;141.87362439977005;142.16596060013399;142.16596060013399;142.19035919988528;142.19035919988528;142.2310326001607;142.2310326001607;None;None;0;;142.2310326001607;None;143.73132340004668;None;['9'];[1.713872800115496];143.73132340004668;None;;;;;;;Emoconpilot034;2021_Dec_01_1718;BackwardMask;2020.2.8;119.93988606232843;
;f;012_o_f_h_a.jpg;happy;9;13;m;013_y_m_h_a.jpg;happy;congruent;9;mismatch;;120;150;;3;213;block1_Pilot_2;12;h_h;h_h_weak;;;;;0;0;0;0;0;14;14;14;;;;;;;;;146.73134669987485;None;148.51530640013516;148.80739540001377;148.80739540001377;148.8321043998003;148.8321043998003;148.87316890014336;148.87316890014336;None;9;1;0.9640379003249109;148.87316890014336;None;150.37300379993394;None;['7'];[0.5441769999451935];150.37300379993394;None;;;;;;;Emoconpilot034;2021_Dec_01_1718;BackwardMask;2020.2.8;119.93988606232843;
;f;021_o_f_s_a.jpg;sad;7;27;m;027_o_m_n_a.jpg;neutral;incongruent;8;mismatch;;130;170;;3;174;block1_Pilot_2;21;s_n;s_n_weak;;;;;0;0;0;0;0;15;15;15;;;;;;;;;153.37399929994717;None;154.82996430015191;155.1239924998954;155.1239924998954;155.14900820003822;155.14900820003822;155.1897859000601;155.1897859000601;None;9;0;1.2313227001577616;155.1897859000601;None;156.6898245997727;None;['7'];[0.6192427002824843];156.6898245997727;None;;;;;;;Emoconpilot034;2021_Dec_01_1718;BackwardMask;2020.2.8;119.93988606232843;
;f;019_m_f_n_a.jpg;neutral;8;19;f;019_m_f_h_a.jpg;happy;incongruent;9;match;;140;150;;3;238;block1_Pilot_2;19;n_h;n_h_weak;;;;;0;0;0;0;0;16;16;16;;;;;;;;;159.68989869998768;None;161.73811230016872;162.03291179984808;162.03291179984808;162.05742050008848;162.05742050008848;162.0981844998896;162.0981844998896;None;8;0;0.7469585002399981;162.0981844998896;None;163.59817750006914;None;['7'];[0.5508094998076558];163.59817750006914;None;;;;;;;Emoconpilot034;2021_Dec_01_1718;BackwardMask;2020.2.8;119.93988606232843;
;f;028_y_f_n_a.jpg;neutral;8;30;f;030_o_f_s_a.jpg;sad;incongruent;7;match;;140;160;;18;219;block1_Pilot_2;28;n_s;n_s_weak;;;;;0;0;0;0;0;17;17;17;;;;;;;;;166.59914520010352;None;168.44661680003628;168.74149210006;168.74149210006;168.89093889994547;168.89093889994547;168.93173429975286;168.93173429975286;None;8;0;0.5374360997229815;168.93173429975286;None;170.43167810002342;None;['7'];[0.3415383002720773];170.43167810002342;None;;;;;;;Emoconpilot034;2021_Dec_01_1718;BackwardMask;2020.2.8;119.93988606232843;
;m;008_y_m_h_a.jpg;happy;9;8;m;008_y_m_s_a.jpg;sad;incongruent;7;match;;120;160;;3;176;block1_Pilot_2;8;h_s;h_s_weak;;;;;0;0;0;0;0;18;18;18;;;;;;;;;173.43321949988604;None;174.92028759978712;175.21627019997686;175.21627019997686;175.24109369982034;175.24109369982034;175.2817957000807;175.2817957000807;None;9;0;1.0271558999083936;175.2817957000807;None;176.78173599997535;None;['7'];[0.9914428000338376];176.78173599997535;None;;;;;;;Emoconpilot034;2021_Dec_01_1718;BackwardMask;2020.2.8;119.93988606232843;
;f;019_m_f_h_a.jpg;happy;9;33;m;033_o_m_n_a.jpg;neutral;incongruent;8;mismatch;;120;170;;18;136;block1_Pilot_2;19;h_n;h_n_weak;;;;;0;0;0;0;0;19;19;19;;;;;;;;;179.78319210000336;None;180.92354089999571;181.2163114999421;181.2163114999421;181.36614749999717;181.36614749999717;181.407048500143;181.407048500143;None;9;0;0.8059323998168111;181.407048500143;None;182.90696129994467;None;['7'];[0.45816659973934293];182.90696129994467;None;;;;;;;Emoconpilot034;2021_Dec_01_1718;BackwardMask;2020.2.8;119.93988606232843;
;m;013_y_m_n_a.jpg;neutral;8;12;f;012_o_f_s_a.jpg;sad;incongruent;7;mismatch;;140;160;;2;132;block1_Pilot_2;13;n_s;n_s_strong;;;;;0;0;0;0;0;20;20;20;;;;;;;;;185.9079256998375;None;187.07145630009472;187.36666879989207;187.36666879989207;187.38298049988225;187.38298049988225;187.42378119984642;187.42378119984642;None;8;0;0.9413234000094235;187.42378119984642;None;188.9236913002096;None;['7'];[0.5615312000736594];188.9236913002096;None;;;;;;;Emoconpilot034;2021_Dec_01_1718;BackwardMask;2020.2.8;119.93988606232843;
;f;040_y_f_s_a.jpg;sad;7;8;m;008_y_m_h_a.jpg;happy;incongruent;9;mismatch;;130;150;;2;175;block1_Pilot_2;40;s_h;s_h_weak;;;;;0;0;0;0;0;21;21;21;;;;;;;;;191.9247710001655;None;193.39199050003663;193.68324200017378;193.68324200017378;193.69977860013023;193.69977860013023;193.7405333998613;193.7405333998613;None;8;0;1.360742200165987;193.7405333998613;None;195.24127139989287;None;['8'];[1.2359623000957072];195.24127139989287;None;;;;;;;Emoconpilot034;2021_Dec_01_1718;BackwardMask;2020.2.8;119.93988606232843;
;m;004_o_m_h_a.jpg;happy;9;40;f;040_y_f_s_a.jpg;sad;incongruent;7;mismatch;;120;160;;2;193;block1_Pilot_2;4;h_s;h_s_weak;;;;;0;0;0;0;0;22;22;22;;;;;;;;;198.2407260001637;None;199.8940310999751;200.183767599985;200.183767599985;200.19971469976008;200.19971469976008;200.24082140019163;200.24082140019163;None;9;0;0.7962275999598205;200.24082140019163;None;201.74070020020008;None;['7'];[0.5044098999351263];201.74070020020008;None;;;;;;;Emoconpilot034;2021_Dec_01_1718;BackwardMask;2020.2.8;119.93988606232843;
;f;028_y_f_s_a.jpg;sad;7;13;m;013_y_m_n_a.jpg;neutral;incongruent;8;mismatch;;130;170;;2;126;block1_Pilot_2;28;s_n;s_n_weak;;;;;0;0;0;0;0;23;23;23;;;;;;;;;204.7416433999315;None;205.80403449991718;206.1003650999628;206.1003650999628;206.116656600032;206.116656600032;206.1574756000191;206.1574756000191;None;8;1;1.1034974004141986;206.1574756000191;None;207.65752879995853;None;['8'];[0.37950489996001124];207.65752879995853;None;;;;;;;Emoconpilot034;2021_Dec_01_1718;BackwardMask;2020.2.8;119.93988606232843;
;m;004_o_m_h_a.jpg;happy;9;40;f;040_y_f_n_a.jpg;neutral;incongruent;8;mismatch;;120;170;;3;146;block1_Pilot_2;4;h_n;h_n_strong;;;;;0;0;0;0;0;24;24;24;;;;;;;;;210.65828920016065;None;211.91022050008178;212.2004366000183;212.2004366000183;212.22517189988866;212.22517189988866;212.2659156001173;212.2659156001173;None;9;0;0.5872431001625955;212.2659156001173;None;213.7659749998711;None;['7'];[0.5750617003068328];213.7659749998711;None;;;;;;;Emoconpilot034;2021_Dec_01_1718;BackwardMask;2020.2.8;119.93988606232843;
;m;008_y_m_s_a.jpg;sad;7;30;f;030_o_f_n_a.jpg;neutral;incongruent;8;mismatch;;130;170;;3;132;block1_Pilot_2;8;s_n;s_n_strong;;;;;0;0;0;0;0;25;25;25;;;;;;;;;216.7671309998259;None;217.8881203001365;218.1839736001566;218.1839736001566;218.20842960011214;218.20842960011214;218.24931740015745;218.24931740015745;None;7;0;1.0359032000415027;218.24931740015745;None;219.7494565001689;None;['7'];[0.6957148001529276];219.7494565001689;None;;;;;;;Emoconpilot034;2021_Dec_01_1718;BackwardMask;2020.2.8;119.93988606232843;
;f;040_y_f_n_a.jpg;neutral;8;40;f;040_y_f_s_a.jpg;sad;incongruent;7;match;;140;160;;2;123;block1_Pilot_2;40;n_s;n_s_weak;;;;;0;0;0;0;0;26;26;26;;;;;;;;;222.74963299976662;None;223.79441659990698;224.08407740015537;224.08407740015537;224.10061720013618;224.10061720013618;224.1410690001212;224.1410690001212;None;8;0;0.9681378002278507;224.1410690001212;None;225.6413361998275;None;['8'];[0.40364859998226166];225.6413361998275;None;;;;;;;Emoconpilot034;2021_Dec_01_1718;BackwardMask;2020.2.8;119.93988606232843;
;f;028_y_f_s_a.jpg;sad;7;27;m;027_o_m_s_a.jpg;sad;congruent;7;mismatch;;130;160;;3;159;block1_Pilot_2;28;s_s;s_s_weak;;;;;0;0;0;0;0;27;27;27;;;;;;;;;228.64174119988456;None;229.9883209997788;230.284068999812;230.284068999812;230.3088655997999;230.3088655997999;230.3496103999205;230.3496103999205;None;None;0;;230.3496103999205;None;231.84976160014048;None;['8'];[1.099453100003302];231.84976160014048;None;;;;;;;Emoconpilot034;2021_Dec_01_1718;BackwardMask;2020.2.8;119.93988606232843;
;f;012_o_f_s_a.jpg;sad;7;27;m;027_o_m_s_a.jpg;sad;congruent;7;mismatch;;130;160;;18;166;block1_Pilot_2;12;s_s;s_s_weak;;;;;0;0;0;0;0;28;28;28;;;;;;;;;234.85066589992493;None;236.24156669992954;236.5340184001252;236.5340184001252;236.68418639991432;236.68418639991432;236.72476990008727;236.72476990008727;None;7;1;0.7922588000074029;236.72476990008727;None;238.22479879995808;None;['7'];[0.8763374001719058];238.22479879995808;None;;;;;;;Emoconpilot034;2021_Dec_01_1718;BackwardMask;2020.2.8;119.93988606232843;
;f;028_y_f_n_a.jpg;neutral;8;28;f;028_y_f_h_a.jpg;happy;incongruent;9;match;;140;150;;2;186;block1_Pilot_2;28;n_h;n_h_weak;;;;;0;0;0;0;0;29;29;29;;;;;;;;;241.22495860001072;None;242.84610759979114;243.1346172997728;243.1346172997728;243.15077499998733;243.15077499998733;243.19154429994524;243.19154429994524;None;8;0;0.8374394001439214;243.19154429994524;None;244.6915386999026;None;['7'];[0.3697192003019154];244.6915386999026;None;;;;;;;Emoconpilot034;2021_Dec_01_1718;BackwardMask;2020.2.8;119.93988606232843;
;m;027_o_m_n_a.jpg;neutral;8;16;m;016_y_m_n_a.jpg;neutral;congruent;8;match;;140;170;;2;188;block1_Pilot_2;27;n_n;n_n_weak;;;;;0;0;0;0;0;30;30;30;;;;;;;;;247.69179200008512;None;249.2791420998983;249.5681468998082;249.5681468998082;249.5842864997685;249.5842864997685;249.62509089987725;249.62509089987725;None;None;0;;249.62509089987725;None;251.12506499979645;None;"['8', '7']";"[0.10390960006043315, 1.3521014000289142]";251.12506499979645;None;;;;;;;Emoconpilot034;2021_Dec_01_1718;BackwardMask;2020.2.8;119.93988606232843;
;f;012_o_f_s_a.jpg;sad;7;13;m;013_y_m_n_a.jpg;neutral;incongruent;8;mismatch;;130;170;;3;162;block1_Pilot_2;12;s_n;s_n_strong;;;;;0;0;0;0;0;31;31;31;;;;;;;;;254.12587510002777;None;255.47928390000015;255.7761141001247;255.7761141001247;255.80111100012437;255.80111100012437;255.84188889991492;255.84188889991492;None;7;0;1.4191068997606635;255.84188889991492;None;257.3419587002136;None;['7'];[0.8312289998866618];257.3419587002136;None;;;;;;;Emoconpilot034;2021_Dec_01_1718;BackwardMask;2020.2.8;119.93988606232843;
;f;012_o_f_s_a.jpg;sad;7;16;m;016_y_m_h_a.jpg;happy;incongruent;9;mismatch;;130;150;;1;238;block1_Pilot_2;12;s_h;s_h_strong;;;;;0;0;0;0;0;32;32;32;;;;;;;;;260.3427897999063;None;262.32910780003294;262.62623920012265;262.62623920012265;262.63452340010554;262.63452340010554;262.67514370009303;262.67514370009303;None;None;0;;262.67514370009303;None;264.1753799999133;None;['9'];[0.7016513999551535];264.1753799999133;None;;;;;;;Emoconpilot034;2021_Dec_01_1718;BackwardMask;2020.2.8;119.93988606232843;
;f;028_y_f_n_a.jpg;neutral;8;21;f;021_o_f_n_a.jpg;neutral;congruent;8;match;;140;170;;3;220;block1_Pilot_2;28;n_n;n_n_weak;;;;;0;0;0;0;0;33;33;33;;;;;;;;;267.1755420002155;None;269.04724559979513;269.34344419976696;269.34344419976696;269.36798779992387;269.36798779992387;269.40882400004193;269.40882400004193;None;None;0;;269.40882400004193;None;270.9088375000283;None;"['9', '8']";"[0.41633010003715754, 1.8001740998588502]";270.9088375000283;None;;;;;;;Emoconpilot034;2021_Dec_01_1718;BackwardMask;2020.2.8;119.93988606232843;
;f;040_y_f_h_a.jpg;happy;9;33;m;033_o_m_s_a.jpg;sad;incongruent;7;mismatch;;120;160;;2;194;block1_Pilot_2;40;h_s;h_s_weak;;;;;0;0;0;0;0;34;34;34;;;;;;;;;273.9090497000143;None;275.5338161000982;275.8264136998914;275.8264136998914;275.8431978998706;275.8431978998706;275.8840394997969;275.8840394997969;None;9;0;1.0731556001119316;275.8840394997969;None;277.38424000004306;None;['7'];[0.6849456001073122];277.38424000004306;None;;;;;;;Emoconpilot034;2021_Dec_01_1718;BackwardMask;2020.2.8;119.93988606232843;
;f;028_y_f_h_a.jpg;happy;9;8;m;008_y_m_n_a.jpg;neutral;incongruent;8;mismatch;;120;170;;3;162;block1_Pilot_2;28;h_n;h_n_weak;;;;;0;0;0;0;0;35;35;35;;;;;;;;;280.38482159981504;None;281.7441108999774;282.03528319997713;282.03528319997713;282.0598805998452;282.0598805998452;282.10072819981724;282.10072819981724;None;9;0;0.8244787002913654;282.10072819981724;None;283.60087179997936;None;"['7', '7']";"[0.39643550012260675, 1.2121017999015749]";283.60087179997936;None;;;;;;;Emoconpilot034;2021_Dec_01_1718;BackwardMask;2020.2.8;119.93988606232843;
;m;013_y_m_n_a.jpg;neutral;8;27;m;027_o_m_n_a.jpg;neutral;congruent;8;match;;140;170;;2;126;block1_Pilot_2;13;n_n;n_n_strong;;;;;0;0;0;0;0;36;36;36;;;;;;;;;286.60103349993005;None;287.7154415999539;288.0103898001835;288.0103898001835;288.02685570018366;288.02685570018366;288.06752149993554;288.06752149993554;None;8;1;1.0094900000840425;288.06752149993554;None;289.56752410018817;None;['7'];[0.9496611999347806];289.56752410018817;None;;;;;;;Emoconpilot034;2021_Dec_01_1718;BackwardMask;2020.2.8;119.93988606232843;
;f;028_y_f_s_a.jpg;sad;7;19;f;019_m_f_n_a.jpg;neutral;incongruent;8;match;;130;170;;2;156;block1_Pilot_2;28;s_n;s_n_strong;;;;;0;0;0;0;0;37;37;37;;;;;;;;;292.5684353997931;None;293.8787058000453;294.16856440017;294.16856440017;294.1851146998815;294.1851146998815;294.22590979980305;294.22590979980305;None;None;0;;294.22590979980305;None;295.72594169992954;None;['8'];[1.351269599981606];295.72594169992954;None;;;;;;;Emoconpilot034;2021_Dec_01_1718;BackwardMask;2020.2.8;119.93988606232843;
;m;016_y_m_s_a.jpg;sad;7;19;f;019_m_f_n_a.jpg;neutral;incongruent;8;mismatch;;130;170;;3;138;block1_Pilot_2;16;s_n;s_n_weak;;;;;0;0;0;0;0;38;38;38;;;;;;;;;298.7267844998278;None;299.8836420001462;300.1771554001607;300.1771554001607;300.2021612999961;300.2021612999961;300.2427941998467;300.2427941998467;None;7;0;0.9944666000083089;300.2427941998467;None;301.7426303997636;None;['7'];[0.7745618000626564];301.7426303997636;None;;;;;;;Emoconpilot034;2021_Dec_01_1718;BackwardMask;2020.2.8;119.93988606232843;
;m;033_o_m_s_a.jpg;sad;7;27;m;027_o_m_n_a.jpg;neutral;incongruent;8;match;;130;170;;3;120;block1_Pilot_2;33;s_n;s_n_strong;;;;;0;0;0;0;0;39;39;39;;;;;;;;;304.7434026999399;None;305.7511053001508;306.043916199822;306.043916199822;306.06886939983815;306.06886939983815;306.1096648001112;306.1096648001112;None;7;0;1.0955195999704301;306.1096648001112;None;307.60994690004736;None;['7'];[0.5552361998707056];307.60994690004736;None;;;;;;;Emoconpilot034;2021_Dec_01_1718;BackwardMask;2020.2.8;119.93988606232843;
;f;040_y_f_s_a.jpg;sad;7;33;m;033_o_m_n_a.jpg;neutral;incongruent;8;mismatch;;130;170;;1;238;block1_Pilot_2;40;s_n;s_n_weak;;;;;0;0;0;0;0;40;40;40;;;;;;;;;310.6096172002144;None;312.60034039989114;312.89410569984466;312.89410569984466;312.90217320015654;312.90217320015654;312.9430430000648;312.9430430000648;None;None;0;;312.9430430000648;None;314.44325970020145;None;['9'];[1.4498714003711939];314.44325970020145;None;;;;;;;Emoconpilot034;2021_Dec_01_1718;BackwardMask;2020.2.8;119.93988606232843;
;f;021_o_f_n_a.jpg;neutral;8;19;f;019_m_f_s_a.jpg;sad;incongruent;7;match;;140;160;;1;238;block1_Pilot_2;21;n_s;n_s_strong;;;;;0;0;0;0;0;41;41;41;;;;;;;;;317.44316710019484;None;319.446684199851;319.73640479985625;319.73640479985625;319.7440931000747;319.7440931000747;319.7849683999084;319.7849683999084;None;9;0;1.2042290000244975;319.7849683999084;None;321.2849751999602;None;['8'];[0.36025299970060587];321.2849751999602;None;;;;;;;Emoconpilot034;2021_Dec_01_1718;BackwardMask;2020.2.8;119.93988606232843;
;m;033_o_m_h_a.jpg;happy;9;27;m;027_o_m_h_a.jpg;happy;congruent;9;match;;120;150;;3;134;block1_Pilot_2;33;h_h;h_h_weak;;;;;0;0;0;0;0;42;42;42;;;;;;;;;324.28522290010005;None;325.4091074997559;325.70267309993505;325.70267309993505;325.72755330009386;325.72755330009386;325.7684253999032;325.7684253999032;None;9;1;0.756796000059694;325.7684253999032;None;327.2684365999885;None;['7'];[1.0965833999216557];327.2684365999885;None;;;;;;;Emoconpilot034;2021_Dec_01_1718;BackwardMask;2020.2.8;119.93988606232843;
;f;040_y_f_s_a.jpg;sad;7;4;m;004_o_m_h_a.jpg;happy;incongruent;9;mismatch;;130;150;;2;225;block1_Pilot_2;40;s_h;s_h_strong;;;;;0;0;0;0;0;43;43;43;;;;;;;;;330.2693908000365;None;332.1499998001382;332.4445473998785;332.4445473998785;332.4607299999334;332.4607299999334;332.5018596998416;332.5018596998416;None;8;0;1.2953361999243498;332.5018596998416;None;334.0017682001926;None;['8'];[0.971388400066644];334.0017682001926;None;;;;;;;Emoconpilot034;2021_Dec_01_1718;BackwardMask;2020.2.8;119.93988606232843;
;m;027_o_m_s_a.jpg;sad;7;21;f;021_o_f_n_a.jpg;neutral;incongruent;8;mismatch;;130;170;;18;238;block1_Pilot_2;27;s_n;s_n_weak;;;;;0;0;0;0;0;44;44;44;;;;;;;;;337.00270819989964;None;338.99208110012114;339.2864727000706;339.2864727000706;339.4362099999562;339.4362099999562;339.4768189000897;339.4768189000897;None;7;0;0.8163879998028278;339.4768189000897;None;340.97691950015724;None;['7'];[1.0362514001317322];340.97691950015724;None;;;;;;;Emoconpilot034;2021_Dec_01_1718;BackwardMask;2020.2.8;119.93988606232843;
;m;016_y_m_h_a.jpg;happy;9;16;m;016_y_m_n_a.jpg;neutral;incongruent;8;match;;120;170;;3;202;block1_Pilot_2;16;h_n;h_n_weak;;;;;0;0;0;0;0;45;45;45;;;;;;;;;343.9779202998616;None;345.66851519979537;345.9612881001085;345.9612881001085;345.98619489977136;345.98619489977136;346.0270548998378;346.0270548998378;None;9;0;0.7380618001334369;346.0270548998378;None;347.5267210002057;None;['7'];[0.6383978999219835];347.5267210002057;None;;;;;;;Emoconpilot034;2021_Dec_01_1718;BackwardMask;2020.2.8;119.93988606232843;
;m;033_o_m_h_a.jpg;happy;9;13;m;013_y_m_n_a.jpg;neutral;incongruent;8;match;;120;170;;2;150;block1_Pilot_2;33;h_n;h_n_weak;;;;;0;0;0;0;0;46;46;46;;;;;;;;;350.5280233998783;None;351.78384910011664;352.0784215000458;352.0784215000458;352.0945887998678;352.0945887998678;352.1355507001281;352.1355507001281;None;9;0;0.7655711001716554;352.1355507001281;None;353.6354807000607;None;['7'];[0.6577166998758912];353.6354807000607;None;;;;;;;Emoconpilot034;2021_Dec_01_1718;BackwardMask;2020.2.8;119.93988606232843;
;f;012_o_f_n_a.jpg;neutral;8;16;m;016_y_m_n_a.jpg;neutral;congruent;8;mismatch;;140;170;;1;238;block1_Pilot_2;12;n_n;n_n_strong;;;;;0;0;0;0;0;47;47;47;;;;;;;;;356.6364841000177;None;358.6411402001977;358.93691619997844;358.93691619997844;358.9446661998518;358.9446661998518;358.98571640020236;358.98571640020236;None;9;0;0.9393945997580886;358.98571640020236;None;360.48553139995784;None;['8'];[0.6717282999306917];360.48553139995784;None;;;;;;;Emoconpilot034;2021_Dec_01_1718;BackwardMask;2020.2.8;119.93988606232843;
;f;040_y_f_n_a.jpg;neutral;8;30;f;030_o_f_h_a.jpg;happy;incongruent;9;match;;140;150;;2;194;block1_Pilot_2;40;n_h;n_h_strong;;;;;0;0;0;0;0;48;48;48;;;;;;;;;363.4862123997882;None;365.1217712000944;365.4120828998275;365.4120828998275;365.4282196997665;365.4282196997665;365.46926139993593;365.46926139993593;None;8;0;0.8558578002266586;365.46926139993593;None;366.9691746002063;None;['7'];[0.6039946000091732];366.9691746002063;None;;;;;;;Emoconpilot034;2021_Dec_01_1718;BackwardMask;2020.2.8;119.93988606232843;
;m;013_y_m_n_a.jpg;neutral;8;12;f;012_o_f_s_a.jpg;sad;incongruent;7;mismatch;;140;160;;18;238;block1_Pilot_2;13;n_s;n_s_weak;;;;;0;0;0;0;0;49;49;49;;;;;;;;;369.9693348999135;None;371.9721487001516;372.26224659988657;372.26224659988657;372.4118217001669;372.4118217001669;372.45261309994385;372.45261309994385;None;8;0;0.5845631998963654;372.45261309994385;None;373.9527055998333;None;['7'];[0.4604238998144865];373.9527055998333;None;;;;;;;Emoconpilot034;2021_Dec_01_1718;BackwardMask;2020.2.8;119.93988606232843;
;f;012_o_f_h_a.jpg;happy;9;12;f;012_o_f_n_a.jpg;neutral;incongruent;8;match;;120;170;;2;125;block1_Pilot_2;12;h_n;h_n_strong;;;;;0;0;0;0;0;50;50;50;;;;;;;;;376.95441030012444;None;378.0021214000881;378.2953782998957;378.2953782998957;378.31194130005315;378.31194130005315;378.35272989980876;378.35272989980876;None;9;0;0.716416799928993;378.35272989980876;None;379.8528220001608;None;['7'];[0.5122465998865664];379.8528220001608;None;;;;;;;Emoconpilot034;2021_Dec_01_1718;BackwardMask;2020.2.8;119.93988606232843;
;m;008_y_m_s_a.jpg;sad;7;19;f;019_m_f_s_a.jpg;sad;congruent;7;mismatch;;130;160;;2;202;block1_Pilot_2;8;s_s;s_s_strong;;;;;0;0;0;0;0;51;51;51;;;;;;;;;382.85373539989814;None;384.56226290017366;384.854244499933;384.854244499933;384.87041549989954;384.87041549989954;384.911325099878;384.911325099878;None;7;1;0.9497714000754058;384.911325099878;None;386.41121739987284;None;['7'];[1.041866899933666];386.41121739987284;None;;;;;;;Emoconpilot034;2021_Dec_01_1718;BackwardMask;2020.2.8;119.93988606232843;
;f;028_y_f_n_a.jpg;neutral;8;12;f;012_o_f_n_a.jpg;neutral;congruent;8;match;;140;170;;2;214;block1_Pilot_2;28;n_n;n_n_strong;;;;;0;0;0;0;0;52;52;52;;;;;;;;;389.41212480003014;None;391.2138722999953;391.50446890015155;391.50446890015155;391.5205148998648;391.5205148998648;391.56140459980816;391.56140459980816;None;8;1;0.9477720996364951;391.56140459980816;None;393.0613306998275;None;['7'];[0.471658100374043];393.0613306998275;None;;;;;;;Emoconpilot034;2021_Dec_01_1718;BackwardMask;2020.2.8;119.93988606232843;
;m;027_o_m_h_a.jpg;happy;9;19;f;019_m_f_h_a.jpg;happy;congruent;9;mismatch;;120;150;;3;165;block1_Pilot_2;27;h_h;h_h_strong;;;;;0;0;0;0;0;53;53;53;;;;;;;;;396.06255389982834;None;397.45542000001296;397.74616870004684;397.74616870004684;397.7706030998379;397.7706030998379;397.8114628000185;397.8114628000185;None;9;1;0.7457018997520208;397.8114628000185;None;399.3116385000758;None;['7'];[0.5575355999171734];399.3116385000758;None;;;;;;;Emoconpilot034;2021_Dec_01_1718;BackwardMask;2020.2.8;119.93988606232843;
;m;008_y_m_s_a.jpg;sad;7;13;m;013_y_m_h_a.jpg;happy;incongruent;9;match;;130;150;;18;200;block1_Pilot_2;8;s_h;s_h_strong;;;;;0;0;0;0;0;54;54;54;;;;;;;;;402.312159600202;None;403.9972799997777;404.28792029991746;404.28792029991746;404.4374257000163;404.4374257000163;404.47834090003744;404.47834090003744;None;7;0;1.0787611999548972;404.47834090003744;None;405.97849790006876;None;['7'];[0.8427057997323573];405.97849790006876;None;;;;;;;Emoconpilot034;2021_Dec_01_1718;BackwardMask;2020.2.8;119.93988606232843;
;f;030_o_f_n_a.jpg;neutral;8;28;f;028_y_f_s_a.jpg;sad;incongruent;7;match;;140;160;;18;238;block1_Pilot_2;30;n_s;n_s_weak;;;;;0;0;0;0;0;55;55;55;;;;;;;;;408.97831939999014;None;410.98087149998173;411.27137889992446;411.27137889992446;411.4208949999884;411.4208949999884;411.46182460011914;411.46182460011914;None;7;1;1.2795279999263585;411.46182460011914;None;412.9616765999235;None;['7'];[0.8594205998815596];412.9616765999235;None;;;;;;;Emoconpilot034;2021_Dec_01_1718;BackwardMask;2020.2.8;119.93988606232843;
;f;019_m_f_h_a.jpg;happy;9;27;m;027_o_m_h_a.jpg;happy;congruent;9;mismatch;;120;150;;1;238;block1_Pilot_2;19;h_h;h_h_strong;;;;;0;0;0;0;0;56;56;56;;;;;;;;;415.96287060016766;None;417.9534788997844;418.24639119999483;418.24639119999483;418.25436310004443;418.25436310004443;418.29520189994946;418.29520189994946;None;9;1;0.8859478002414107;418.29520189994946;None;419.79608340002596;None;['8'];[0.5289500001817942];419.79608340002596;None;;;;;;;Emoconpilot034;2021_Dec_01_1718;BackwardMask;2020.2.8;119.93988606232843;
;m;004_o_m_s_a.jpg;sad;7;4;m;004_o_m_h_a.jpg;happy;incongruent;9;match;;130;150;;18;155;block1_Pilot_2;4;s_h;s_h_weak;;;;;0;0;0;0;0;57;57;57;;;;;;;;;422.7960578999482;None;424.09537199977785;424.388184200041;424.388184200041;424.5378634999506;424.5378634999506;424.57878510002047;424.57878510002047;None;7;0;0.8502927999943495;424.57878510002047;None;426.07863349979743;None;['7'];[0.6225670999847353];426.07863349979743;None;;;;;;;Emoconpilot034;2021_Dec_01_1718;BackwardMask;2020.2.8;119.93988606232843;
;f;021_o_f_s_a.jpg;sad;7;27;m;027_o_m_n_a.jpg;neutral;incongruent;8;mismatch;;130;170;;3;224;block1_Pilot_2;21;s_n;s_n_weak;;;;;0;0;0;0;0;58;58;58;;;;;;;;;429.07931619975716;None;430.95151120005175;431.24656580016017;431.24656580016017;431.27134400000796;431.27134400000796;431.3121791998856;431.3121791998856;None;None;0;;431.3121791998856;None;432.81207640003413;None;"['9', '8']";"[0.5531175998039544, 1.6970949997194111]";432.81207640003413;None;;;;;;;Emoconpilot034;2021_Dec_01_1718;BackwardMask;2020.2.8;119.93988606232843;
;f;021_o_f_h_a.jpg;happy;9;27;m;027_o_m_n_a.jpg;neutral;incongruent;8;mismatch;;120;170;;2;147;block1_Pilot_2;21;h_n;h_n_strong;;;;;0;0;0;0;0;59;59;59;;;;;;;;;435.8123004999943;None;437.0596745000221;437.35532779991627;437.35532779991627;437.37139480002224;437.37139480002224;437.412188900169;437.412188900169;None;9;0;0.8649617000482976;437.412188900169;None;438.91221009986475;None;['8'];[0.8367782002314925];438.91221009986475;None;;;;;;;Emoconpilot034;2021_Dec_01_1718;BackwardMask;2020.2.8;119.93988606232843;
;f;040_y_f_n_a.jpg;neutral;8;13;m;013_y_m_h_a.jpg;happy;incongruent;9;mismatch;;140;150;;3;237;block1_Pilot_2;40;n_h;n_h_strong;;;;;0;0;0;0;0;60;60;60;;;;;;;;;441.9131881999783;None;443.90677009988576;444.1969976997934;444.1969976997934;444.22161900019273;444.22161900019273;444.2623664997518;444.2623664997518;None;8;0;0.8147452999837697;444.2623664997518;None;445.7624984998256;None;['7'];[0.682727700099349];445.7624984998256;None;;;;;;;Emoconpilot034;2021_Dec_01_1718;BackwardMask;2020.2.8;119.93988606232843;
;m;027_o_m_n_a.jpg;neutral;8;19;f;019_m_f_h_a.jpg;happy;incongruent;9;mismatch;;140;150;;3;199;block1_Pilot_2;27;n_h;n_h_strong;;;;;0;0;0;0;0;61;61;61;;;;;;;;;448.76353379990906;None;450.44008560013026;450.73073050007224;450.73073050007224;450.7550468998961;450.7550468998961;450.7959647998214;450.7959647998214;None;8;0;0.9051672001369298;450.7959647998214;None;452.2959495000541;None;['7'];[0.7572813001461327];452.2959495000541;None;;;;;;;Emoconpilot034;2021_Dec_01_1718;BackwardMask;2020.2.8;119.93988606232843;
;m;027_o_m_h_a.jpg;happy;9;21;f;021_o_f_s_a.jpg;sad;incongruent;7;mismatch;;120;160;;2;169;block1_Pilot_2;27;h_s;h_s_strong;;;;;0;0;0;0;0;62;62;62;;;;;;;;;455.296847499907;None;456.72337540006265;457.0140709001571;457.0140709001571;457.0302801001817;457.0302801001817;457.07109350012615;457.07109350012615;None;9;0;0.7900873003527522;457.07109350012615;None;458.57103879982606;None;['7'];[0.5619581998325884];458.57103879982606;None;;;;;;;Emoconpilot034;2021_Dec_01_1718;BackwardMask;2020.2.8;119.93988606232843;
;m;013_y_m_n_a.jpg;neutral;8;33;m;033_o_m_h_a.jpg;happy;incongruent;9;match;;140;150;;18;238;block1_Pilot_2;13;n_h;n_h_strong;;;;;0;0;0;0;0;63;63;63;;;;;;;;;461.57117130002007;None;463.57296819984913;463.8642166000791;463.8642166000791;464.01387980021536;464.01387980021536;464.0545776002109;464.0545776002109;None;8;0;0.4384590000845492;464.0545776002109;None;465.5544829000719;None;['7'];[0.482638499699533];465.5544829000719;None;;;;;;;Emoconpilot034;2021_Dec_01_1718;BackwardMask;2020.2.8;119.93988606232843;
;m;033_o_m_n_a.jpg;neutral;8;30;f;030_o_f_s_a.jpg;sad;incongruent;7;mismatch;;140;160;;1;238;block1_Pilot_2;33;n_s;n_s_weak;;;;;0;0;0;0;0;64;64;64;;;;;;;;;468.5553413000889;None;470.5573227000423;470.84775719977915;470.84775719977915;470.8554822001606;470.8554822001606;470.89641290018335;470.89641290018335;None;8;0;1.3488167999312282;470.89641290018335;None;472.3963918997906;None;['9'];[1.5927686002105474];472.3963918997906;None;;;;;;;Emoconpilot034;2021_Dec_01_1718;BackwardMask;2020.2.8;119.93988606232843;
;m;033_o_m_s_a.jpg;sad;7;4;m;004_o_m_s_a.jpg;sad;congruent;7;match;;130;160;;18;146;block1_Pilot_2;33;s_s;s_s_weak;;;;;0;0;0;0;0;65;65;65;;;;;;;;;475.3973261998035;None;476.6206657998264;476.91395309986547;476.91395309986547;477.0639518997632;477.0639518997632;477.10480289999396;477.10480289999396;None;7;1;0.8603310999460518;477.10480289999396;None;478.6048849001527;None;['7'];[1.1121119996532798];478.6048849001527;None;;;;;;;Emoconpilot034;2021_Dec_01_1718;BackwardMask;2020.2.8;119.93988606232843;
;m;016_y_m_s_a.jpg;sad;7;28;f;028_y_f_h_a.jpg;happy;incongruent;9;mismatch;;130;150;;18;238;block1_Pilot_2;16;s_h;s_h_strong;;;;;0;0;0;0;0;66;66;66;;;;;;;;;481.6050383001566;None;483.5959371998906;483.8892497001216;483.8892497001216;484.0390781001188;484.0390781001188;484.0798557000235;484.0798557000235;None;7;0;0.6291277999989688;484.0798557000235;None;485.5801735999994;None;['7'];[0.7049273001030087];485.5801735999994;None;;;;;;;Emoconpilot034;2021_Dec_01_1718;BackwardMask;2020.2.8;119.93988606232843;
;f;030_o_f_h_a.jpg;happy;9;28;f;028_y_f_h_a.jpg;happy;congruent;9;match;;120;150;;3;234;block1_Pilot_2;30;h_h;h_h_weak;;;;;0;0;0;0;0;67;67;67;;;;;;;;;488.581006700173;None;490.555765400175;490.84792010020465;490.84792010020465;490.87261159997433;490.87261159997433;490.9134217998944;490.9134217998944;None;9;1;0.7875555003993213;490.9134217998944;None;492.41359560005367;None;['7'];[0.5596922002732754];492.41359560005367;None;;;;;;;Emoconpilot034;2021_Dec_01_1718;BackwardMask;2020.2.8;119.93988606232843;
;m;013_y_m_h_a.jpg;happy;9;4;m;004_o_m_h_a.jpg;happy;congruent;9;match;;120;150;;2;141;block1_Pilot_2;13;h_h;h_h_strong;;;;;0;0;0;0;0;68;68;68;;;;;;;;;495.413531600032;None;496.60794080002233;496.89812200004235;496.89812200004235;496.91424660012126;496.91424660012126;496.9552357997745;496.9552357997745;None;9;1;0.8018866996280849;496.9552357997745;None;498.45525710005313;None;['7'];[0.3659142996184528];498.45525710005313;None;;;;;;;Emoconpilot034;2021_Dec_01_1718;BackwardMask;2020.2.8;119.93988606232843;
;f;028_y_f_s_a.jpg;sad;7;8;m;008_y_m_s_a.jpg;sad;congruent;7;mismatch;;130;160;;1;238;block1_Pilot_2;28;s_s;s_s_strong;;;;;0;0;0;0;0;69;69;69;;;;;;;;;501.45602519996464;None;503.4500405997969;503.73970830021426;503.73970830021426;503.7477977001108;503.7477977001108;503.7886652997695;503.7886652997695;None;None;0;;503.7886652997695;None;505.28856479981914;None;['9'];[0.9885102999396622];505.28856479981914;None;;;;;;;Emoconpilot034;2021_Dec_01_1718;BackwardMask;2020.2.8;119.93988606232843;
;f;028_y_f_s_a.jpg;sad;7;30;f;030_o_f_h_a.jpg;happy;incongruent;9;match;;130;150;;2;199;block1_Pilot_2;28;s_h;s_h_weak;;;;;0;0;0;0;0;70;70;70;;;;;;;;;508.28891880018637;None;509.957301300019;510.2481442000717;510.2481442000717;510.2646269998513;510.2646269998513;510.3054903000593;510.3054903000593;None;None;0;;510.3054903000593;None;511.80531449988484;None;"['9', '7', '8', '8']";"[0.22380449995398521, 0.88785280007869, 1.6479159002192318, 2.9199713999405503]";511.80531449988484;None;;;;;;;Emoconpilot034;2021_Dec_01_1718;BackwardMask;2020.2.8;119.93988606232843;
;m;008_y_m_h_a.jpg;happy;9;21;f;021_o_f_n_a.jpg;neutral;incongruent;8;mismatch;;120;170;;2;137;block1_Pilot_2;8;h_n;h_n_weak;;;;;0;0;0;0;0;71;71;71;;;;;;;;;514.8056764998473;None;515.9558382001705;516.2481591999531;516.2481591999531;516.2647883999161;516.2647883999161;516.305634399876;516.305634399876;None;9;0;0.9235911001451313;516.305634399876;None;517.8056593998335;None;['8'];[0.5995765998959541];517.8056593998335;None;;;;;;;Emoconpilot034;2021_Dec_01_1718;BackwardMask;2020.2.8;119.93988606232843;
;f;012_o_f_n_a.jpg;neutral;8;8;m;008_y_m_s_a.jpg;sad;incongruent;7;mismatch;;140;160;;2;208;block1_Pilot_2;12;n_s;n_s_weak;;;;;0;0;0;0;0;72;72;72;;;;;;;;;520.8066611997783;None;522.5931545998901;522.882272399962;522.882272399962;522.8982660002075;522.8982660002075;522.9390491000377;522.9390491000377;None;9;0;1.3621292002499104;522.9390491000377;None;524.4391620000824;None;"['8', '8']";"[0.7980190003290772, 2.0939069003798068]";524.4391620000824;None;;;;;;;Emoconpilot034;2021_Dec_01_1718;BackwardMask;2020.2.8;119.93988606232843;
;m;016_y_m_n_a.jpg;neutral;8;8;m;008_y_m_n_a.jpg;neutral;congruent;8;match;;140;170;;3;211;block1_Pilot_2;16;n_n;n_n_strong;;;;;0;0;0;0;0;73;73;73;;;;;;;;;527.4389510997571;None;529.2178472001106;529.5069380002096;529.5069380002096;529.5316657000221;529.5316657000221;529.5723883002065;529.5723883002065;None;8;1;1.0965987998060882;529.5723883002065;None;531.0723753999919;None;['8'];[0.8687748000957072];531.0723753999919;None;;;;;;;Emoconpilot034;2021_Dec_01_1718;BackwardMask;2020.2.8;119.93988606232843;
;m;016_y_m_h_a.jpg;happy;9;13;m;013_y_m_s_a.jpg;sad;incongruent;7;match;;120;160;;3;138;block1_Pilot_2;16;h_s;h_s_weak;;;;;0;0;0;0;0;74;74;74;;;;;;;;;534.0735292998143;None;535.230786500033;535.5236641000956;535.5236641000956;535.5486102001742;535.5486102001742;535.5892742001452;535.5892742001452;None;9;0;0.9198988997377455;535.5892742001452;None;537.0892226998694;None;['7'];[0.7240249002352357];537.0892226998694;None;;;;;;;Emoconpilot034;2021_Dec_01_1718;BackwardMask;2020.2.8;119.93988606232843;
;m;016_y_m_n_a.jpg;neutral;8;19;f;019_m_f_s_a.jpg;sad;incongruent;7;mismatch;;140;160;;2;185;block1_Pilot_2;16;n_s;n_s_strong;;;;;0;0;0;0;0;75;75;75;;;;;;;;;540.0901575000025;None;541.651984800119;541.9408328998834;541.9408328998834;541.9569346997887;541.9569346997887;541.9978291997686;541.9978291997686;None;8;0;0.759396499954164;541.9978291997686;None;543.4976877002046;None;['7'];[0.7075470997951925];543.4976877002046;None;;;;;;;Emoconpilot034;2021_Dec_01_1718;BackwardMask;2020.2.8;119.93988606232843;
;m;027_o_m_s_a.jpg;sad;7;8;m;008_y_m_s_a.jpg;sad;congruent;7;match;;130;160;;1;238;block1_Pilot_2;27;s_s;s_s_strong;;;;;0;0;0;0;0;76;76;76;;;;;;;;;546.4986943998374;None;548.4889795999043;548.7822575997561;548.7822575997561;548.7905218000524;548.7905218000524;548.8312201001681;548.8312201001681;None;9;0;1.14989859983325;548.8312201001681;None;550.3314213999547;None;"['8', '8']";"[0.37782709999009967, 0.9858027999289334]";550.3314213999547;None;;;;;;;Emoconpilot034;2021_Dec_01_1718;BackwardMask;2020.2.8;119.93988606232843;
;f;019_m_f_n_a.jpg;neutral;8;27;m;027_o_m_n_a.jpg;neutral;congruent;8;mismatch;;140;170;;3;186;block1_Pilot_2;19;n_n;n_n_strong;;;;;0;0;0;0;0;77;77;77;;;;;;;;;553.331497900188;None;554.9027929999866;555.1995651000179;555.1995651000179;555.2240364998579;555.2240364998579;555.2646578000858;555.2646578000858;None;8;1;0.580502700060606;555.2646578000858;None;556.7648283997551;None;['7'];[0.4483878999017179];556.7648283997551;None;;;;;;;Emoconpilot034;2021_Dec_01_1718;BackwardMask;2020.2.8;119.93988606232843;
;m;004_o_m_s_a.jpg;sad;7;12;f;012_o_f_s_a.jpg;sad;congruent;7;mismatch;;130;160;;1;238;block1_Pilot_2;4;s_s;s_s_strong;;;;;0;0;0;0;0;78;78;78;;;;;;;;;559.7658898001537;None;561.7563022999093;562.0492551000789;562.0492551000789;562.0571813001297;562.0571813001297;562.0982459997758;562.0982459997758;None;None;0;;562.0982459997758;None;563.5982229998335;None;['9'];[0.814957800321281];563.5982229998335;None;;;;;;;Emoconpilot034;2021_Dec_01_1718;BackwardMask;2020.2.8;119.93988606232843;
;f;019_m_f_n_a.jpg;neutral;8;13;m;013_y_m_s_a.jpg;sad;incongruent;7;mismatch;;140;160;;3;207;block1_Pilot_2;19;n_s;n_s_strong;;;;;0;0;0;0;0;79;79;79;;;;;;;;;566.5988373002037;None;568.3442655000836;568.6330957999453;568.6330957999453;568.6574658998288;568.6574658998288;568.6983441999182;568.6983441999182;None;8;0;0.7388216997496784;568.6983441999182;None;570.198456000071;None;['7'];[0.5187098998576403];570.198456000071;None;;;;;;;Emoconpilot034;2021_Dec_01_1718;BackwardMask;2020.2.8;119.93988606232843;
;m;027_o_m_h_a.jpg;happy;9;33;m;033_o_m_h_a.jpg;happy;congruent;9;match;;120;150;;1;238;block1_Pilot_2;27;h_h;h_h_strong;;;;;0;0;0;0;0;80;80;80;;;;;;;;;573.1991646997631;None;575.2007900997996;575.4916122001596;575.4916122001596;575.4992945999838;575.4992945999838;575.5400582998991;575.5400582998991;None;9;1;0.8250695001333952;575.5400582998991;None;577.0402318001725;None;['8'];[0.4847520999610424];577.0402318001725;None;;;;;;;Emoconpilot034;2021_Dec_01_1718;BackwardMask;2020.2.8;119.93988606232843;
;m;027_o_m_h_a.jpg;happy;9;21;f;021_o_f_s_a.jpg;sad;incongruent;7;mismatch;;120;160;;1;238;block1_Pilot_2;27;h_s;h_s_weak;;;;;0;0;0;0;0;81;81;81;;;;;;;;;580.0401753000915;None;582.0413176999427;582.3333637001924;582.3333637001924;582.3411472002044;582.3411472002044;582.3821092001162;582.3821092001162;None;None;0;;582.3821092001162;None;583.8819340001792;None;['9'];[0.6113279000855982];583.8819340001792;None;;;;;;;Emoconpilot034;2021_Dec_01_1718;BackwardMask;2020.2.8;119.93988606232843;
;m;033_o_m_s_a.jpg;sad;7;40;f;040_y_f_n_a.jpg;neutral;incongruent;8;mismatch;;130;170;;3;146;block1_Pilot_2;33;s_n;s_n_weak;;;;;0;0;0;0;0;82;82;82;;;;;;;;;586.8819876001216;None;588.1068807998672;588.3994750999846;588.3994750999846;588.4244526000693;588.4244526000693;588.4654238000512;588.4654238000512;None;None;0;;588.4654238000512;None;589.9651346001774;None;"['9', '9']";"[0.9520796998403966, 1.1841070000082254]";589.9651346001774;None;;;;;;;Emoconpilot034;2021_Dec_01_1718;BackwardMask;2020.2.8;119.93988606232843;
;m;008_y_m_h_a.jpg;happy;9;4;m;004_o_m_s_a.jpg;sad;incongruent;7;match;;120;160;;2;225;block1_Pilot_2;8;h_s;h_s_weak;;;;;0;0;0;0;0;83;83;83;;;;;;;;;592.9655039999634;None;594.84787710011;595.1416219999082;595.1416219999082;595.1580333998427;595.1580333998427;595.1988988998346;595.1988988998346;None;9;0;1.0143164996989071;595.1988988998346;None;596.6989428000525;None;['7'];[0.6501169996336102];596.6989428000525;None;;;;;;;Emoconpilot034;2021_Dec_01_1718;BackwardMask;2020.2.8;119.93988606232843;
;f;012_o_f_n_a.jpg;neutral;8;4;m;004_o_m_s_a.jpg;sad;incongruent;7;mismatch;;140;160;;3;150;block1_Pilot_2;12;n_s;n_s_strong;;;;;0;0;0;0;0;84;84;84;;;;;;;;;599.6997357998043;None;600.9809693000279;601.2754879998975;601.2754879998975;601.299785700161;601.299785700161;601.340694299899;601.340694299899;None;8;0;0.552460300270468;601.340694299899;None;602.8407502002083;None;['7'];[0.6445635003037751];602.8407502002083;None;;;;;;;Emoconpilot034;2021_Dec_01_1718;BackwardMask;2020.2.8;119.93988606232843;
;f;021_o_f_s_a.jpg;sad;7;40;f;040_y_f_n_a.jpg;neutral;incongruent;8;match;;130;170;;2;156;block1_Pilot_2;21;s_n;s_n_strong;;;;;0;0;0;0;0;85;85;85;;;;;;;;;605.8409299999475;None;607.147627600003;607.4418031000532;607.4418031000532;607.4584527998231;607.4584527998231;607.4991902001202;607.4991902001202;None;None;0;;607.4991902001202;None;608.9992772000842;None;"['9', '7']";"[0.07795709976926446, 0.7818276998586953]";608.9992772000842;None;;;;;;;Emoconpilot034;2021_Dec_01_1718;BackwardMask;2020.2.8;119.93988606232843;
;m;004_o_m_n_a.jpg;neutral;8;13;m;013_y_m_n_a.jpg;neutral;congruent;8;match;;140;170;;2;225;block1_Pilot_2;4;n_n;n_n_strong;;;;;0;0;0;0;0;86;86;86;;;;;;;;;611.999316399917;None;613.9073982997797;614.200610099826;614.200610099826;614.2168270000257;614.2168270000257;614.2575763999484;614.2575763999484;None;8;1;0.7316069998778403;614.2575763999484;None;615.7577161001973;None;['8'];[0.29548149975016713];615.7577161001973;None;;;;;;;Emoconpilot034;2021_Dec_01_1718;BackwardMask;2020.2.8;119.93988606232843;
;m;016_y_m_n_a.jpg;neutral;8;16;m;016_y_m_h_a.jpg;happy;incongruent;9;match;;140;150;;18;193;block1_Pilot_2;16;n_h;n_h_strong;;;;;0;0;0;0;0;87;87;87;;;;;;;;;618.7585109001957;None;620.38516779989;620.6758272000588;620.6758272000588;620.8250051001087;620.8250051001087;620.8660050998442;620.8660050998442;None;8;0;0.4512426001019776;620.8660050998442;None;622.3661670000292;None;['7'];[0.29479539999738336];622.3661670000292;None;;;;;;;Emoconpilot034;2021_Dec_01_1718;BackwardMask;2020.2.8;119.93988606232843;
;m;033_o_m_h_a.jpg;happy;9;4;m;004_o_m_h_a.jpg;happy;congruent;9;match;;120;150;;2;195;block1_Pilot_2;33;h_h;h_h_strong;;;;;0;0;0;0;0;88;88;88;;;;;;;;;625.3668877999298;None;626.9993325998075;627.2922390000895;627.2922390000895;627.3086260999553;627.3086260999553;627.3494673999958;627.3494673999958;None;9;1;0.7357880002819002;627.3494673999958;None;628.8504665000364;None;['7'];[0.5947706997394562];628.8504665000364;None;;;;;;;Emoconpilot034;2021_Dec_01_1718;BackwardMask;2020.2.8;119.93988606232843;
;m;027_o_m_h_a.jpg;happy;9;16;m;016_y_m_h_a.jpg;happy;congruent;9;match;;120;150;;3;209;block1_Pilot_2;27;h_h;h_h_weak;;;;;0;0;0;0;0;89;89;89;;;;;;;;;631.8497538999654;None;633.612372700125;633.901006499771;633.901006499771;633.9255448998883;633.9255448998883;633.9662708002143;633.9662708002143;None;9;1;0.5668881996534765;633.9662708002143;None;635.4663673997857;None;['7'];[0.34671129984781146];635.4663673997857;None;;;;;;;Emoconpilot034;2021_Dec_01_1718;BackwardMask;2020.2.8;119.93988606232843;
;m;033_o_m_s_a.jpg;sad;7;16;m;016_y_m_s_a.jpg;sad;congruent;7;match;;130;160;;3;128;block1_Pilot_2;33;s_s;s_s_strong;;;;;0;0;0;0;0;90;90;90;;;;;;;;;638.4666082998738;None;639.5409885998815;639.833950900007;639.833950900007;639.8588944999501;639.8588944999501;639.8997062998824;639.8997062998824;None;8;0;0.6333974003791809;639.8997062998824;None;641.4000181998126;None;['8'];[0.5810965001583099];641.4000181998126;None;;;;;;;Emoconpilot034;2021_Dec_01_1718;BackwardMask;2020.2.8;119.93988606232843;
;f;021_o_f_s_a.jpg;sad;7;30;f;030_o_f_s_a.jpg;sad;congruent;7;match;;130;160;;1;238;block1_Pilot_2;21;s_s;s_s_strong;;;;;0;0;0;0;0;91;91;91;;;;;;;;;644.3999327998608;None;646.3891179999337;646.6842829999514;646.6842829999514;646.6926171001978;646.6926171001978;646.7334157000296;646.7334157000296;None;9;0;0.9116941997781396;646.7334157000296;None;648.2332545998506;None;['8'];[0.7800977998413146];648.2332545998506;None;;;;;;;Emoconpilot034;2021_Dec_01_1718;BackwardMask;2020.2.8;119.93988606232843;
;m;033_o_m_n_a.jpg;neutral;8;28;f;028_y_f_s_a.jpg;sad;incongruent;7;mismatch;;140;160;;18;166;block1_Pilot_2;33;n_s;n_s_strong;;;;;0;0;0;0;0;92;92;92;;;;;;;;;651.2335963998921;None;652.6460234997794;652.9349858998321;652.9349858998321;653.0842614001594;653.0842614001594;653.1251579998061;653.1251579998061;None;8;0;0.4639910999685526;653.1251579998061;None;654.6250471998937;None;['7'];[0.5639578001573682];654.6250471998937;None;;;;;;;Emoconpilot034;2021_Dec_01_1718;BackwardMask;2020.2.8;119.93988606232843;
;f;019_m_f_n_a.jpg;neutral;8;30;f;030_o_f_n_a.jpg;neutral;congruent;8;match;;140;170;;18;228;block1_Pilot_2;19;n_n;n_n_weak;;;;;0;0;0;0;0;93;93;93;;;;;;;;;657.6260568001308;None;659.5440569999628;659.8348400001414;659.8348400001414;659.9843425001018;659.9843425001018;660.025201600045;660.025201600045;None;8;1;0.4600319997407496;660.025201600045;None;661.525126399938;None;['7'];[0.3281044000759721];661.525126399938;None;;;;;;;Emoconpilot034;2021_Dec_01_1718;BackwardMask;2020.2.8;119.93988606232843;
;m;008_y_m_s_a.jpg;sad;7;12;f;012_o_f_h_a.jpg;happy;incongruent;9;mismatch;;130;150;;3;130;block1_Pilot_2;8;s_h;s_h_weak;;;;;0;0;0;0;0;94;94;94;;;;;;;;;664.5259989001788;None;665.6269561997615;665.918299799785;665.918299799785;665.9428476998582;665.9428476998582;665.9837565999478;665.9837565999478;None;7;0;0.9334375001490116;665.9837565999478;None;667.4835434998386;None;['7'];[0.5775621999055147];667.4835434998386;None;;;;;;;Emoconpilot034;2021_Dec_01_1718;BackwardMask;2020.2.8;119.93988606232843;
;m;016_y_m_n_a.jpg;neutral;8;28;f;028_y_f_n_a.jpg;neutral;congruent;8;mismatch;;140;170;;18;189;block1_Pilot_2;16;n_n;n_n_strong;;;;;0;0;0;0;0;95;95;95;;;;;;;;;670.484703999944;None;672.0780381001532;672.3686516000889;672.3686516000889;672.5179770002142;672.5179770002142;672.5586386001669;672.5586386001669;None;8;1;0.3904388998635113;672.5586386001669;None;674.058747400064;None;['7'];[0.21051560016348958];674.058747400064;None;;;;;;;Emoconpilot034;2021_Dec_01_1718;BackwardMask;2020.2.8;119.93988606232843;
;f;012_o_f_s_a.jpg;sad;7;16;m;016_y_m_h_a.jpg;happy;incongruent;9;mismatch;;130;150;;3;238;block1_Pilot_2;12;s_h;s_h_strong;;;;;0;0;0;0;0;96;96;96;;;;;;;;;677.0596869001165;None;679.046265500132;679.3431397997774;679.3431397997774;679.3679487998597;679.3679487998597;679.4088510000147;679.4088510000147;None;7;0;0.8842999003827572;679.4088510000147;None;680.9089386998676;None;['7'];[0.3922799997963011];680.9089386998676;None;;;;;;;Emoconpilot034;2021_Dec_01_1718;BackwardMask;2020.2.8;119.93988606232843;
;m;013_y_m_h_a.jpg;happy;9;27;m;027_o_m_h_a.jpg;happy;congruent;9;match;;120;150;;18;238;block1_Pilot_2;13;h_h;h_h_strong;;;;;0;0;0;0;0;97;97;97;;;;;;;;;683.9091830002144;None;685.913307600189;686.2021780000068;686.2021780000068;686.3516294001602;686.3516294001602;686.3924682000652;686.3924682000652;None;9;1;0.5165447001345456;686.3924682000652;None;687.8923666998744;None;['7'];[0.5288794999942183];687.8923666998744;None;;;;;;;Emoconpilot034;2021_Dec_01_1718;BackwardMask;2020.2.8;119.93988606232843;
;m;016_y_m_s_a.jpg;sad;7;33;m;033_o_m_n_a.jpg;neutral;incongruent;8;match;;130;170;;1;238;block1_Pilot_2;16;s_n;s_n_weak;;;;;0;0;0;0;0;98;98;98;;;;;;;;;690.8939404999837;None;692.8835630998947;693.1770393000916;693.1770393000916;693.1851365999319;693.1851365999319;693.2259776000865;693.2259776000865;None;None;0;;693.2259776000865;None;694.7257570000365;None;['8'];[0.46322420006617904];694.7257570000365;None;;;;;;;Emoconpilot034;2021_Dec_01_1718;BackwardMask;2020.2.8;119.93988606232843;
;m;008_y_m_n_a.jpg;neutral;8;30;f;030_o_f_n_a.jpg;neutral;congruent;8;mismatch;;140;170;;1;238;block1_Pilot_2;8;n_n;n_n_weak;;;;;0;0;0;0;0;99;99;99;;;;;;;;;697.726930799894;None;699.7324589998461;700.0272150998935;700.0272150998935;700.0352231999859;700.0352231999859;700.0761044998653;700.0761044998653;None;8;1;1.2168350000865757;700.0761044998653;None;701.5761787001975;None;['9'];[1.4531244998797774];701.5761787001975;None;;;;;;;Emoconpilot034;2021_Dec_01_1718;BackwardMask;2020.2.8;119.93988606232843;
;m;008_y_m_s_a.jpg;sad;7;30;f;030_o_f_s_a.jpg;sad;congruent;7;mismatch;;130;160;;2;133;block1_Pilot_2;8;s_s;s_s_weak;;;;;0;0;0;0;0;100;100;100;;;;;;;;;704.5761616998352;None;705.7037164000794;705.9940634001978;705.9940634001978;706.0104124001227;706.0104124001227;706.0510669001378;706.0510669001378;None;7;1;0.8500384003855288;706.0510669001378;None;707.5513174999505;None;['7'];[0.5337631995789707];707.5513174999505;None;;;;;;;Emoconpilot034;2021_Dec_01_1718;BackwardMask;2020.2.8;119.93988606232843;
;f;040_y_f_n_a.jpg;neutral;8;30;f;030_o_f_s_a.jpg;sad;incongruent;7;match;;140;160;;3;197;block1_Pilot_2;40;n_s;n_s_strong;;;;;0;0;0;0;0;101;101;101;;;;;;;;;710.5513637000695;None;712.2132381000556;712.502614099998;712.502614099998;712.5271168001927;712.5271168001927;712.5679441997781;712.5679441997781;None;8;0;0.9332940997555852;712.5679441997781;None;714.0678244000301;None;['7'];[0.521371599752456];714.0678244000301;None;;;;;;;Emoconpilot034;2021_Dec_01_1718;BackwardMask;2020.2.8;119.93988606232843;
;m;004_o_m_h_a.jpg;happy;9;30;f;030_o_f_s_a.jpg;sad;incongruent;7;mismatch;;120;160;;3;121;block1_Pilot_2;4;h_s;h_s_strong;;;;;0;0;0;0;0;102;102;102;;;;;;;;;717.0690661999397;None;718.0954327997752;718.3861723998562;718.3861723998562;718.4108119001612;718.4108119001612;718.4515772000886;718.4515772000886;None;9;0;0.7214655997231603;718.4515772000886;None;719.9513460001908;None;['7'];[0.30987010011449456];719.9513460001908;None;;;;;;;Emoconpilot034;2021_Dec_01_1718;BackwardMask;2020.2.8;119.93988606232843;
;f;040_y_f_h_a.jpg;happy;9;8;m;008_y_m_h_a.jpg;happy;congruent;9;mismatch;;120;150;;18;211;block1_Pilot_2;40;h_h;h_h_weak;;;;;0;0;0;0;0;103;103;103;;;;;;;;;722.9515316002071;None;724.7189877000637;725.0111181000248;725.0111181000248;725.1607944001444;725.1607944001444;725.2015321999788;725.2015321999788;None;9;1;0.603572899941355;725.2015321999788;None;726.7014569998719;None;['7'];[0.37561400001868606];726.7014569998719;None;;;;;;;Emoconpilot034;2021_Dec_01_1718;BackwardMask;2020.2.8;119.93988606232843;
;f;019_m_f_s_a.jpg;sad;7;16;m;016_y_m_n_a.jpg;neutral;incongruent;8;mismatch;;130;170;;2;198;block1_Pilot_2;19;s_n;s_n_strong;;;;;0;0;0;0;0;104;104;104;;;;;;;;;729.702524300199;None;731.3747724997811;731.669918099884;731.669918099884;731.686007599812;731.686007599812;731.7266290001571;731.7266290001571;None;7;0;1.062375399749726;731.7266290001571;None;733.2267415998504;None;['8'];[0.5865767002105713];733.2267415998504;None;;;;;;;Emoconpilot034;2021_Dec_01_1718;BackwardMask;2020.2.8;119.93988606232843;
;f;040_y_f_s_a.jpg;sad;7;12;f;012_o_f_s_a.jpg;sad;congruent;7;match;;130;160;;18;240;block1_Pilot_2;40;s_s;s_s_strong;;;;;0;0;0;0;0;105;105;105;;;;;;;;;736.227769299876;None;738.2342627001926;738.5277828001417;738.5277828001417;738.677568399813;738.677568399813;738.7184677999467;738.7184677999467;None;7;1;0.9345494997687638;738.7184677999467;None;740.2185125998221;None;['7'];[0.6826330996118486];740.2185125998221;None;;;;;;;Emoconpilot034;2021_Dec_01_1718;BackwardMask;2020.2.8;119.93988606232843;
;f;040_y_f_n_a.jpg;neutral;8;33;m;033_o_m_s_a.jpg;sad;incongruent;7;mismatch;;140;160;;3;188;block1_Pilot_2;40;n_s;n_s_weak;;;;;0;0;0;0;0;106;106;106;;;;;;;;;743.2193865999579;None;744.8061330001801;745.0950604998507;745.0950604998507;745.1194508001208;745.1194508001208;745.1603247001767;745.1603247001767;None;8;0;1.012664099689573;745.1603247001767;None;746.6604503002018;None;['7'];[0.5606673001311719];746.6604503002018;None;;;;;;;Emoconpilot034;2021_Dec_01_1718;BackwardMask;2020.2.8;119.93988606232843;
;f;028_y_f_h_a.jpg;happy;9;21;f;021_o_f_s_a.jpg;sad;incongruent;7;match;;120;160;;3;193;block1_Pilot_2;28;h_s;h_s_strong;;;;;0;0;0;0;0;107;107;107;;;;;;;;;749.6611611000262;None;751.2784208999947;751.5698253000155;751.5698253000155;751.5945239001885;751.5945239001885;751.6353279999457;751.6353279999457;None;9;0;0.729969599749893;751.6353279999457;None;753.135302899871;None;['7'];[0.47791589982807636];753.135302899871;None;;;;;;;Emoconpilot034;2021_Dec_01_1718;BackwardMask;2020.2.8;119.93988606232843;
;f;040_y_f_s_a.jpg;sad;7;13;m;013_y_m_n_a.jpg;neutral;incongruent;8;mismatch;;130;170;;2;198;block1_Pilot_2;40;s_n;s_n_strong;;;;;0;0;0;0;0;108;108;108;;;;;;;;;756.1356902997941;None;757.7935588001274;758.0865408000536;758.0865408000536;758.1030496000312;758.1030496000312;758.1439483999275;758.1439483999275;None;8;1;0.5170907997526228;758.1439483999275;None;759.643858899828;None;['7'];[0.45734170032665133];759.643858899828;None;;;;;;;Emoconpilot034;2021_Dec_01_1718;BackwardMask;2020.2.8;119.93988606232843;
;f;030_o_f_n_a.jpg;neutral;8;33;m;033_o_m_s_a.jpg;sad;incongruent;7;mismatch;;140;160;;1;238;block1_Pilot_2;30;n_s;n_s_strong;;;;;0;0;0;0;0;109;109;109;;;;;;;;;762.6439971998334;None;764.6643953002058;764.9537912998348;764.9537912998348;764.9615132999606;764.9615132999606;765.0022702999413;765.0022702999413;None;None;0;;765.0022702999413;None;766.5024717999622;None;['9'];[0.8705262001603842];766.5024717999622;None;;;;;;;Emoconpilot034;2021_Dec_01_1718;BackwardMask;2020.2.8;119.93988606232843;
;f;021_o_f_h_a.jpg;happy;9;40;f;040_y_f_n_a.jpg;neutral;incongruent;8;match;;120;170;;2;125;block1_Pilot_2;21;h_n;h_n_weak;;;;;0;0;0;0;0;110;110;110;;;;;;;;;769.5039479001425;None;770.562799599953;770.8539146999829;770.8539146999829;770.8698284002021;770.8698284002021;770.9106944999658;770.9106944999658;None;9;0;0.9503401000984013;770.9106944999658;None;772.4108887999319;None;['7'];[0.6182895000092685];772.4108887999319;None;;;;;;;Emoconpilot034;2021_Dec_01_1718;BackwardMask;2020.2.8;119.93988606232843;
;f;021_o_f_h_a.jpg;happy;9;16;m;016_y_m_s_a.jpg;sad;incongruent;7;mismatch;;120;160;;1;238;block1_Pilot_2;21;h_s;h_s_strong;;;;;0;0;0;0;0;111;111;111;;;;;;;;;775.4117511999793;None;777.4134351001121;777.7040952998213;777.7040952998213;777.7118593999185;777.7118593999185;777.7526007001288;777.7526007001288;None;9;0;0.8286163001321256;777.7526007001288;None;779.2527483999729;None;['8'];[0.6163737000897527];779.2527483999729;None;;;;;;;Emoconpilot034;2021_Dec_01_1718;BackwardMask;2020.2.8;119.93988606232843;
;f;012_o_f_h_a.jpg;happy;9;8;m;008_y_m_s_a.jpg;sad;incongruent;7;mismatch;;120;160;;1;238;block1_Pilot_2;12;h_s;h_s_weak;;;;;0;0;0;0;0;112;112;112;;;;;;;;;782.2538076997735;None;784.2448296998627;784.5372901000082;784.5372901000082;784.5451319999993;784.5451319999993;784.585957699921;784.585957699921;None;9;0;0.7710475996136665;784.585957699921;None;786.0861255000345;None;['8'];[0.631133200135082];786.0861255000345;None;;;;;;;Emoconpilot034;2021_Dec_01_1718;BackwardMask;2020.2.8;119.93988606232843;
;m;013_y_m_h_a.jpg;happy;9;16;m;016_y_m_s_a.jpg;sad;incongruent;7;match;;120;160;;3;202;block1_Pilot_2;13;h_s;h_s_weak;;;;;0;0;0;0;0;113;113;113;;;;;;;;;789.0862791999243;None;790.794125800021;791.0876020998694;791.0876020998694;791.1120759001933;791.1120759001933;791.1528417998925;791.1528417998925;None;9;0;0.6362172001972795;791.1528417998925;None;792.6530169998296;None;['7'];[0.32020380022004247];792.6530169998296;None;;;;;;;Emoconpilot034;2021_Dec_01_1718;BackwardMask;2020.2.8;119.93988606232843;
;f;019_m_f_s_a.jpg;sad;7;4;m;004_o_m_n_a.jpg;neutral;incongruent;8;mismatch;;130;170;;1;238;block1_Pilot_2;19;s_n;s_n_strong;;;;;0;0;0;0;0;114;114;114;;;;;;;;;795.6531899999827;None;797.6558456998318;797.9462403999642;797.9462403999642;797.9537279000506;797.9537279000506;797.9947938001715;797.9947938001715;None;9;0;1.1784409997053444;797.9947938001715;None;799.4947864999995;None;['8'];[0.5904250000603497];799.4947864999995;None;;;;;;;Emoconpilot034;2021_Dec_01_1718;BackwardMask;2020.2.8;119.93988606232843;
;f;028_y_f_n_a.jpg;neutral;8;27;m;027_o_m_s_a.jpg;sad;incongruent;7;mismatch;;140;160;;18;238;block1_Pilot_2;28;n_s;n_s_strong;;;;;0;0;0;0;0;115;115;115;;;;;;;;;802.4957265998237;None;804.4975847997703;804.7880712999031;804.7880712999031;804.9375163000077;804.9375163000077;804.9780896999873;804.9780896999873;None;8;0;0.4429874001070857;804.9780896999873;None;806.4783077999018;None;['7'];[0.2789304996840656];806.4783077999018;None;;;;;;;Emoconpilot034;2021_Dec_01_1718;BackwardMask;2020.2.8;119.93988606232843;
;m;013_y_m_s_a.jpg;sad;7;12;f;012_o_f_h_a.jpg;happy;incongruent;9;mismatch;;130;150;;1;238;block1_Pilot_2;13;s_h;s_h_strong;;;;;0;0;0;0;0;116;116;116;;;;;;;;;809.478451800067;None;811.4699177998118;811.762691100128;811.762691100128;811.770826399792;811.770826399792;811.8116574999876;811.8116574999876;None;None;0;;811.8116574999876;None;813.3116382001899;None;['9'];[0.30157569982111454];813.3116382001899;None;;;;;;;Emoconpilot034;2021_Dec_01_1718;BackwardMask;2020.2.8;119.93988606232843;
;m;016_y_m_s_a.jpg;sad;7;19;f;019_m_f_h_a.jpg;happy;incongruent;9;mismatch;;130;150;;1;238;block1_Pilot_2;16;s_h;s_h_strong;;;;;0;0;0;0;0;117;117;117;;;;;;;;;816.3140349001624;None;818.3021281999536;818.596093500033;818.596093500033;818.6043064999394;818.6043064999394;818.6450189999305;818.6450189999305;None;None;0;;818.6450189999305;None;820.1452196999453;None;"['8', '9', '9']";"[0.2599200000986457, 0.916027800180018, 1.8999191001057625]";820.1452196999453;None;;;;;;;Emoconpilot034;2021_Dec_01_1718;BackwardMask;2020.2.8;119.93988606232843;
;m;013_y_m_s_a.jpg;sad;7;21;f;021_o_f_h_a.jpg;happy;incongruent;9;mismatch;;130;150;;18;238;block1_Pilot_2;13;s_h;s_h_strong;;;;;0;0;0;0;0;118;118;118;;;;;;;;;823.1452516000718;None;825.1367609999143;825.4295414001681;825.4295414001681;825.5792065998539;825.5792065998539;825.6202587001026;825.6202587001026;None;7;0;0.7127525000832975;825.6202587001026;None;827.1202576002106;None;['7'];[0.38889920013025403];827.1202576002106;None;;;;;;;Emoconpilot034;2021_Dec_01_1718;BackwardMask;2020.2.8;119.93988606232843;
;f;012_o_f_s_a.jpg;sad;7;13;m;013_y_m_h_a.jpg;happy;incongruent;9;mismatch;;130;150;;3;235;block1_Pilot_2;12;s_h;s_h_weak;;;;;0;0;0;0;0;119;119;119;;;;;;;;;830.1203838000074;None;832.0819386998191;832.3796835998073;832.3796835998073;832.4046831000596;832.4046831000596;832.4455062001944;832.4455062001944;None;7;0;0.719735000282526;832.4455062001944;None;833.9453610000201;None;['7'];[0.6517393998801708];833.9453610000201;None;;;;;;;Emoconpilot034;2021_Dec_01_1718;BackwardMask;2020.2.8;119.93988606232843;
;f;019_m_f_s_a.jpg;sad;7;30;f;030_o_f_h_a.jpg;happy;incongruent;9;match;;130;150;;3;235;block2_Pilot_2;19;s_h;s_h_strong;;;;;0;1;1;1;0;0;0;0;;;;;;;;;856.9772219997831;None;858.9496324998327;859.2391321999021;859.2391321999021;859.2634999998845;859.2634999998845;859.3042366001755;859.3042366001755;None;None;0;;859.3042366001755;None;860.8051995001733;None;['9'];[0.5440382999368012];860.8051995001733;None;;;836.9462994001806;None;;;Emoconpilot034;2021_Dec_01_1718;BackwardMask;2020.2.8;119.93988606232843;
;m;008_y_m_n_a.jpg;neutral;8;40;f;040_y_f_h_a.jpg;happy;incongruent;9;mismatch;;140;150;;2;121;block2_Pilot_2;8;n_h;n_h_strong;;;;;0;1;1;1;0;1;1;1;;;;;;;;;863.80618100008;None;864.8318127999082;865.1224333997816;865.1224333997816;865.1386568001471;865.1386568001471;865.1794656999409;865.1794656999409;None;8;0;1.145664899609983;865.1794656999409;None;866.6794945998117;None;['8'];[1.3416299996897578];866.6794945998117;None;;;;;;;Emoconpilot034;2021_Dec_01_1718;BackwardMask;2020.2.8;119.93988606232843;
;f;012_o_f_h_a.jpg;happy;9;27;m;027_o_m_n_a.jpg;neutral;incongruent;8;mismatch;;120;170;;2;240;block2_Pilot_2;12;h_n;h_n_weak;;;;;0;1;1;1;0;2;2;2;;;;;;;;;869.6796850999817;None;871.6878142999485;871.9805852998979;871.9805852998979;871.9972304999828;871.9972304999828;872.0379389999434;872.0379389999434;None;9;0;0.6870611002668738;872.0379389999434;None;873.5379205998033;None;['7'];[0.5791881997138262];873.5379205998033;None;;;;;;;Emoconpilot034;2021_Dec_01_1718;BackwardMask;2020.2.8;119.93988606232843;
;m;008_y_m_h_a.jpg;happy;9;40;f;040_y_f_h_a.jpg;happy;congruent;9;mismatch;;120;150;;18;195;block2_Pilot_2;8;h_h;h_h_strong;;;;;0;1;1;1;0;3;3;3;;;;;;;;;876.5380270001478;None;878.1709815999493;878.4640318998136;878.4640318998136;878.6140084001236;878.6140084001236;878.6548060998321;878.6548060998321;None;9;1;0.614364200271666;878.6548060998321;None;880.1547591998242;None;['7'];[0.3382699997164309];880.1547591998242;None;;;;;;;Emoconpilot034;2021_Dec_01_1718;BackwardMask;2020.2.8;119.93988606232843;
;m;004_o_m_n_a.jpg;neutral;8;33;m;033_o_m_s_a.jpg;sad;incongruent;7;match;;140;160;;18;126;block2_Pilot_2;4;n_s;n_s_weak;;;;;0;1;1;1;0;4;4;4;;;;;;;;;883.1555444998667;None;884.2447140999138;884.5394997000694;884.5394997000694;884.689110300038;884.689110300038;884.7299170000479;884.7299170000479;None;8;0;0.49929399974644184;884.7299170000479;None;886.2297200001776;None;['7'];[1.0795689998194575];886.2297200001776;None;;;;;;;Emoconpilot034;2021_Dec_01_1718;BackwardMask;2020.2.8;119.93988606232843;
;f;028_y_f_s_a.jpg;sad;7;27;m;027_o_m_n_a.jpg;neutral;incongruent;8;mismatch;;130;170;;18;225;block2_Pilot_2;28;s_n;s_n_strong;;;;;0;1;1;1;0;5;5;5;;;;;;;;;889.230147600174;None;891.1160802999511;891.4061408000998;891.4061408000998;891.5558046000078;891.5558046000078;891.596573700197;891.596573700197;None;7;0;0.7364421999081969;891.596573700197;None;893.096756900195;None;['7'];[1.2522767996415496];893.096756900195;None;;;;;;;Emoconpilot034;2021_Dec_01_1718;BackwardMask;2020.2.8;119.93988606232843;
;m;027_o_m_s_a.jpg;sad;7;30;f;030_o_f_h_a.jpg;happy;incongruent;9;mismatch;;130;150;;18;238;block2_Pilot_2;27;s_h;s_h_weak;;;;;0;1;1;1;0;6;6;6;;;;;;;;;896.0975484000519;None;898.0886777997948;898.3813526001759;898.3813526001759;898.531021699775;898.531021699775;898.5718752997927;898.5718752997927;None;7;0;0.6170653998851776;898.5718752997927;None;900.0720640001819;None;['7'];[1.429146199952811];900.0720640001819;None;;;;;;;Emoconpilot034;2021_Dec_01_1718;BackwardMask;2020.2.8;119.93988606232843;
;m;033_o_m_h_a.jpg;happy;9;40;f;040_y_f_s_a.jpg;sad;incongruent;7;mismatch;;120;160;;1;238;block2_Pilot_2;33;h_s;h_s_strong;;;;;0;1;1;1;0;7;7;7;;;;;;;;;903.0722762001678;None;905.0628110999241;905.3565254001878;905.3565254001878;905.3644182998687;905.3644182998687;905.4052681000903;905.4052681000903;None;None;0;;905.4052681000903;None;906.9051279998384;None;['9'];[0.7401058999821544];906.9051279998384;None;;;;;;;Emoconpilot034;2021_Dec_01_1718;BackwardMask;2020.2.8;119.93988606232843;
;f;012_o_f_n_a.jpg;neutral;8;12;f;012_o_f_h_a.jpg;happy;incongruent;9;match;;140;150;;2;200;block2_Pilot_2;12;n_h;n_h_weak;;;;;0;1;1;1;0;8;8;8;;;;;;;;;909.9053548001684;None;911.6110557997599;911.9068475998938;911.9068475998938;911.9230084000155;911.9230084000155;911.9636693000793;911.9636693000793;None;8;0;0.8734427997842431;911.9636693000793;None;913.4636272997595;None;['7'];[1.189495500177145];913.4636272997595;None;;;;;;;Emoconpilot034;2021_Dec_01_1718;BackwardMask;2020.2.8;119.93988606232843;
;f;030_o_f_n_a.jpg;neutral;8;19;f;019_m_f_n_a.jpg;neutral;congruent;8;match;;140;170;;1;238;block2_Pilot_2;30;n_n;n_n_weak;;;;;0;1;1;1;0;9;9;9;;;;;;;;;916.4648206001148;None;918.4671812001616;918.7571557001211;918.7571557001211;918.7646551001817;918.7646551001817;918.805586299859;918.805586299859;None;None;0;;918.805586299859;None;920.3055103998631;None;['9'];[0.5477700000628829];920.3055103998631;None;;;;;;;Emoconpilot034;2021_Dec_01_1718;BackwardMask;2020.2.8;119.93988606232843;
;m;013_y_m_h_a.jpg;happy;9;8;m;008_y_m_n_a.jpg;neutral;incongruent;8;match;;120;170;;1;238;block2_Pilot_2;13;h_n;h_n_strong;;;;;0;1;1;1;0;10;10;10;;;;;;;;;923.3057848000899;None;925.3081465000287;925.5986298997886;925.5986298997886;925.6063969000243;925.6063969000243;925.6473718001507;925.6473718001507;None;None;0;;925.6473718001507;None;927.1474035000429;None;['9'];[0.3457709001377225];927.1474035000429;None;;;;;;;Emoconpilot034;2021_Dec_01_1718;BackwardMask;2020.2.8;119.93988606232843;
;f;040_y_f_h_a.jpg;happy;9;19;f;019_m_f_s_a.jpg;sad;incongruent;7;match;;120;160;;3;133;block2_Pilot_2;40;h_s;h_s_strong;;;;;0;1;1;1;0;11;11;11;;;;;;;;;930.1485946998;None;931.2639436000027;931.5566166997887;931.5566166997887;931.5819421000779;931.5819421000779;931.6224123998545;931.6224123998545;None;9;0;1.2228804999031126;931.6224123998545;None;933.1226185001433;None;['7'];[0.7226185002364218];933.1226185001433;None;;;;;;;Emoconpilot034;2021_Dec_01_1718;BackwardMask;2020.2.8;119.93988606232843;
;f;040_y_f_h_a.jpg;happy;9;13;m;013_y_m_s_a.jpg;sad;incongruent;7;mismatch;;120;160;;3;226;block2_Pilot_2;40;h_s;h_s_strong;;;;;0;1;1;1;0;12;12;12;;;;;;;;;936.1229811999947;None;938.0139465997927;938.3066994999535;938.3066994999535;938.3316864999942;938.3316864999942;938.3724214998074;938.3724214998074;None;9;0;0.7048190999776125;938.3724214998074;None;939.8726372998208;None;['7'];[0.8046162999235094];939.8726372998208;None;;;;;;;Emoconpilot034;2021_Dec_01_1718;BackwardMask;2020.2.8;119.93988606232843;
;f;030_o_f_s_a.jpg;sad;7;27;m;027_o_m_h_a.jpg;happy;incongruent;9;mismatch;;130;150;;1;238;block2_Pilot_2;30;s_h;s_h_strong;;;;;0;1;1;1;0;13;13;13;;;;;;;;;942.8734824000858;None;944.8893101001158;945.1825258000754;945.1825258000754;945.1902310000733;945.1902310000733;945.2311606998555;945.2311606998555;None;8;0;1.4779416997916996;945.2311606998555;None;946.7310695000924;None;['9'];[1.1780996997840703];946.7310695000924;None;;;;;;;Emoconpilot034;2021_Dec_01_1718;BackwardMask;2020.2.8;119.93988606232843;
;m;033_o_m_h_a.jpg;happy;9;30;f;030_o_f_s_a.jpg;sad;incongruent;7;mismatch;;120;160;;1;238;block2_Pilot_2;33;h_s;h_s_weak;;;;;0;1;1;1;0;14;14;14;;;;;;;;;949.7312787999399;None;951.7226780001074;952.0155462999828;952.0155462999828;952.0236947000958;952.0236947000958;952.0646501001902;952.0646501001902;None;9;0;0.7485654000192881;952.0646501001902;None;953.5645129000768;None;['7'];[0.584672000259161];953.5645129000768;None;;;;;;;Emoconpilot034;2021_Dec_01_1718;BackwardMask;2020.2.8;119.93988606232843;
;f;030_o_f_s_a.jpg;sad;7;28;f;028_y_f_n_a.jpg;neutral;incongruent;8;match;;130;170;;3;198;block2_Pilot_2;30;s_n;s_n_weak;;;;;0;1;1;1;0;15;15;15;;;;;;;;;956.5646954001859;None;958.2573855998926;958.5496346000582;958.5496346000582;958.5738377999514;958.5738377999514;958.614686800167;958.614686800167;None;7;0;0.9266381002962589;958.614686800167;None;960.1147803999484;None;['7'];[0.5223046997562051];960.1147803999484;None;;;;;;;Emoconpilot034;2021_Dec_01_1718;BackwardMask;2020.2.8;119.93988606232843;
;f;030_o_f_s_a.jpg;sad;7;33;m;033_o_m_h_a.jpg;happy;incongruent;9;mismatch;;130;150;;3;175;block2_Pilot_2;30;s_h;s_h_weak;;;;;0;1;1;1;0;16;16;16;;;;;;;;;963.1155715999193;None;964.5928103998303;964.8831059001386;964.8831059001386;964.9074170999229;964.9074170999229;964.948187999893;964.948187999893;None;7;0;1.1208399999886751;964.948187999893;None;966.4481560997665;None;['8'];[0.8129722001031041];966.4481560997665;None;;;;;;;Emoconpilot034;2021_Dec_01_1718;BackwardMask;2020.2.8;119.93988606232843;
;f;021_o_f_h_a.jpg;happy;9;30;f;030_o_f_h_a.jpg;happy;congruent;9;match;;120;150;;2;194;block2_Pilot_2;21;h_h;h_h_strong;;;;;0;1;1;1;0;17;17;17;;;;;;;;;969.4492315999232;None;971.0842682002112;971.3747515999712;971.3747515999712;971.3908044998534;971.3908044998534;971.4316115002148;971.4316115002148;None;9;1;0.6295360000804067;971.4316115002148;None;972.9317319002002;None;['7'];[0.3214831999503076];972.9317319002002;None;;;;;;;Emoconpilot034;2021_Dec_01_1718;BackwardMask;2020.2.8;119.93988606232843;
;f;019_m_f_n_a.jpg;neutral;8;16;m;016_y_m_s_a.jpg;sad;incongruent;7;mismatch;;140;160;;18;163;block2_Pilot_2;19;n_s;n_s_weak;;;;;0;1;1;1;0;18;18;18;;;;;;;;;975.9326367997564;None;977.3093753000721;977.5999504998326;977.5999504998326;977.7493313997984;977.7493313997984;977.7901308001019;977.7901308001019;None;8;0;0.4471289003267884;977.7901308001019;None;979.2902736999094;None;['7'];[0.30693080043420196];979.2902736999094;None;;;;;;;Emoconpilot034;2021_Dec_01_1718;BackwardMask;2020.2.8;119.93988606232843;
;m;033_o_m_n_a.jpg;neutral;8;13;m;013_y_m_n_a.jpg;neutral;congruent;8;match;;140;170;;2;217;block2_Pilot_2;33;n_n;n_n_strong;;;;;0;1;1;1;0;19;19;19;;;;;;;;;982.2911518001929;None;984.1166444998235;984.4080599998124;984.4080599998124;984.424323500134;984.424323500134;984.4653479000553;984.4653479000553;None;8;1;0.6198653001338243;984.4653479000553;None;985.9653292000294;None;['8'];[0.5519146998412907];985.9653292000294;None;;;;;;;Emoconpilot034;2021_Dec_01_1718;BackwardMask;2020.2.8;119.93988606232843;
;m;033_o_m_h_a.jpg;happy;9;13;m;013_y_m_n_a.jpg;neutral;incongruent;8;match;;120;170;;2;227;block2_Pilot_2;33;h_n;h_n_weak;;;;;0;1;1;1;0;20;20;20;;;;;;;;;988.9658408998512;None;990.8643398000859;991.1581910997629;991.1581910997629;991.1743160001934;991.1743160001934;991.2152019999921;991.2152019999921;None;9;0;0.5819911998696625;991.2152019999921;None;992.7152304998599;None;['7'];[0.281997200101614];992.7152304998599;None;;;;;;;Emoconpilot034;2021_Dec_01_1718;BackwardMask;2020.2.8;119.93988606232843;
;f;012_o_f_s_a.jpg;sad;7;16;m;016_y_m_n_a.jpg;neutral;incongruent;8;mismatch;;130;170;;1;238;block2_Pilot_2;12;s_n;s_n_weak;;;;;0;1;1;1;0;21;21;21;;;;;;;;;995.716541599948;None;997.7029341999441;997.9997245999984;997.9997245999984;998.0077992998995;998.0077992998995;998.048927300144;998.048927300144;None;8;1;1.2443530997261405;998.048927300144;None;999.5488342000172;None;"['8', '8']";"[0.8003099001944065, 1.7364551001228392]";999.5488342000172;None;;;;;;;Emoconpilot034;2021_Dec_01_1718;BackwardMask;2020.2.8;119.93988606232843;
;f;028_y_f_n_a.jpg;neutral;8;21;f;021_o_f_h_a.jpg;happy;incongruent;9;match;;140;150;;18;202;block2_Pilot_2;28;n_h;n_h_strong;;;;;0;1;1;1;0;22;22;22;;;;;;;;;1002.5501306997612;None;1004.260377400089;1004.5503345001489;1004.5503345001489;1004.6998339998536;1004.6998339998536;1004.740693599917;1004.740693599917;None;8;0;0.45652200002223253;1004.740693599917;None;1006.2407145998441;None;['7'];[0.26058819983154535];1006.2407145998441;None;;;;;;;Emoconpilot034;2021_Dec_01_1718;BackwardMask;2020.2.8;119.93988606232843;
;f;028_y_f_s_a.jpg;sad;7;30;f;030_o_f_n_a.jpg;neutral;incongruent;8;match;;130;170;;2;127;block2_Pilot_2;28;s_n;s_n_weak;;;;;0;1;1;1;0;23;23;23;;;;;;;;;1009.2408370999619;None;1010.3103805999272;1010.6001690998673;1010.6001690998673;1010.6166976997629;1010.6166976997629;1010.6574535002001;1010.6574535002001;None;8;1;0.8117740997113287;1010.6574535002001;None;1012.1575696999207;None;['7'];[0.5515632000751793];1012.1575696999207;None;;;;;;;Emoconpilot034;2021_Dec_01_1718;BackwardMask;2020.2.8;119.93988606232843;
;m;004_o_m_n_a.jpg;neutral;8;40;f;040_y_f_n_a.jpg;neutral;congruent;8;mismatch;;140;170;;1;238;block2_Pilot_2;4;n_n;n_n_weak;;;;;0;1;1;1;0;24;24;24;;;;;;;;;1015.1580702997744;None;1017.1680248999037;1017.4589272001758;1017.4589272001758;1017.4666993999854;1017.4666993999854;1017.5076724998653;1017.5076724998653;None;9;0;1.2415334000252187;1017.5076724998653;None;1019.0076004997827;None;['8'];[0.6776926000602543];1019.0076004997827;None;;;;;;;Emoconpilot034;2021_Dec_01_1718;BackwardMask;2020.2.8;119.93988606232843;
;m;016_y_m_n_a.jpg;neutral;8;16;m;016_y_m_h_a.jpg;happy;incongruent;9;match;;140;150;;18;239;block2_Pilot_2;16;n_h;n_h_weak;;;;;0;1;1;1;0;25;25;25;;;;;;;;;1022.0086988997646;None;1024.0183846000582;1024.309096599929;1024.309096599929;1024.4584785997868;1024.4584785997868;1024.4994807001203;1024.4994807001203;None;8;0;0.4498268002644181;1024.4994807001203;None;1025.9993460001424;None;['7'];[0.43790260003879666];1025.9993460001424;None;;;;;;;Emoconpilot034;2021_Dec_01_1718;BackwardMask;2020.2.8;119.93988606232843;
;f;012_o_f_n_a.jpg;neutral;8;33;m;033_o_m_n_a.jpg;neutral;congruent;8;mismatch;;140;170;;3;134;block2_Pilot_2;12;n_n;n_n_weak;;;;;0;1;1;1;0;26;26;26;;;;;;;;;1029.0004572998732;None;1030.1355118998326;1030.4260104000568;1030.4260104000568;1030.4501689001918;1030.4501689001918;1030.491145499982;1030.491145499982;None;8;1;0.5859928000718355;1030.491145499982;None;1031.9911600002088;None;['7'];[0.3100389000028372];1031.9911600002088;None;;;;;;;Emoconpilot034;2021_Dec_01_1718;BackwardMask;2020.2.8;119.93988606232843;
;m;013_y_m_h_a.jpg;happy;9;27;m;027_o_m_s_a.jpg;sad;incongruent;7;match;;120;160;;2;194;block2_Pilot_2;13;h_s;h_s_strong;;;;;0;1;1;1;0;27;27;27;;;;;;;;;1034.9913347000256;None;1036.6273874999024;1036.9174620001577;1036.9174620001577;1036.933765400201;1036.933765400201;1036.9746207999997;1036.9746207999997;None;9;0;0.6385868997313082;1036.9746207999997;None;1038.475588500034;None;['7'];[0.34567350009456277];1038.475588500034;None;;;;;;;Emoconpilot034;2021_Dec_01_1718;BackwardMask;2020.2.8;119.93988606232843;
;m;013_y_m_n_a.jpg;neutral;8;28;f;028_y_f_n_a.jpg;neutral;congruent;8;mismatch;;140;170;;1;238;block2_Pilot_2;13;n_n;n_n_weak;;;;;0;1;1;1;0;28;28;28;;;;;;;;;1041.4756335001439;None;1043.477510899771;1043.7676276001148;1043.7676276001148;1043.7754949000664;1043.7754949000664;1043.8165107998066;1043.8165107998066;None;None;0;;1043.8165107998066;None;1045.3164180000313;None;['9'];[0.47285000002011657];1045.3164180000313;None;;;;;;;Emoconpilot034;2021_Dec_01_1718;BackwardMask;2020.2.8;119.93988606232843;
;f;030_o_f_s_a.jpg;sad;7;33;m;033_o_m_h_a.jpg;happy;incongruent;9;mismatch;;130;150;;3;168;block2_Pilot_2;30;s_h;s_h_weak;;;;;0;1;1;1;0;29;29;29;;;;;;;;;1048.317369800061;None;1049.7359607000835;1050.0262959999964;1050.0262959999964;1050.0507378000766;1050.0507378000766;1050.0915198000148;1050.0915198000148;None;7;0;0.9855012004263699;1050.0915198000148;None;1051.5917263999581;None;['8'];[0.7574879000894725];1051.5917263999581;None;;;;;;;Emoconpilot034;2021_Dec_01_1718;BackwardMask;2020.2.8;119.93988606232843;
;m;008_y_m_n_a.jpg;neutral;8;12;f;012_o_f_n_a.jpg;neutral;congruent;8;mismatch;;140;170;;18;208;block2_Pilot_2;8;n_n;n_n_weak;;;;;0;1;1;1;0;30;30;30;;;;;;;;;1054.5922861001454;None;1056.344379299786;1056.6347480998375;1056.6347480998375;1056.784333600197;1056.784333600197;1056.825084600132;1056.825084600132;None;8;1;0.42813279991969466;1056.825084600132;None;1058.3263929998502;None;['7'];[0.36684910021722317];1058.3263929998502;None;;;;;;;Emoconpilot034;2021_Dec_01_1718;BackwardMask;2020.2.8;119.93988606232843;
;m;008_y_m_s_a.jpg;sad;7;4;m;004_o_m_n_a.jpg;neutral;incongruent;8;match;;130;170;;2;231;block2_Pilot_2;8;s_n;s_n_weak;;;;;0;1;1;1;0;31;31;31;;;;;;;;;1061.3261699001305;None;1063.269476099871;1063.5598895000294;1063.5598895000294;1063.5760254999623;1063.5760254999623;1063.6168757998385;1063.6168757998385;None;7;0;1.1643424001522362;1063.6168757998385;None;1065.1168259000406;None;['8'];[0.9124175999313593];1065.1168259000406;None;;;;;;;Emoconpilot034;2021_Dec_01_1718;BackwardMask;2020.2.8;119.93988606232843;
;m;016_y_m_n_a.jpg;neutral;8;28;f;028_y_f_n_a.jpg;neutral;congruent;8;mismatch;;140;170;;2;218;block2_Pilot_2;16;n_n;n_n_weak;;;;;0;1;1;1;0;32;32;32;;;;;;;;;1068.1170350001194;None;1069.9549675001763;1070.2517093000934;1070.2517093000934;1070.2678678999655;1070.2678678999655;1070.3086006999947;1070.3086006999947;None;8;1;0.6966186999343336;1070.3086006999947;None;1071.8087615999393;None;['7'];[0.35646170005202293];1071.8087615999393;None;;;;;;;Emoconpilot034;2021_Dec_01_1718;BackwardMask;2020.2.8;119.93988606232843;
;m;033_o_m_n_a.jpg;neutral;8;33;m;033_o_m_s_a.jpg;sad;incongruent;7;match;;140;160;;3;141;block2_Pilot_2;33;n_s;n_s_weak;;;;;0;1;1;1;0;33;33;33;;;;;;;;;1074.8096003001556;None;1076.003084700089;1076.2934441999532;1076.2934441999532;1076.3179645999335;1076.3179645999335;1076.3588899997994;1076.3588899997994;None;8;0;0.7662399001419544;1076.3588899997994;None;1077.859141400084;None;['7'];[0.9140842002816498];1077.859141400084;None;;;;;;;Emoconpilot034;2021_Dec_01_1718;BackwardMask;2020.2.8;119.93988606232843;
;m;016_y_m_n_a.jpg;neutral;8;13;m;013_y_m_s_a.jpg;sad;incongruent;7;match;;140;160;;1;238;block2_Pilot_2;16;n_s;n_s_weak;;;;;0;1;1;1;0;34;34;34;;;;;;;;;1080.859865500126;None;1082.8613376999274;1083.1519034998491;1083.1519034998491;1083.1594920000061;1083.1594920000061;1083.2006163997576;1083.2006163997576;None;7;1;1.2765864999964833;1083.2006163997576;None;1084.7007251000032;None;"['9', '8', '9']";"[0.5605049999430776, 1.216403900180012, 2.1204921999014914]";1084.7007251000032;None;;;;;;;Emoconpilot034;2021_Dec_01_1718;BackwardMask;2020.2.8;119.93988606232843;
;f;030_o_f_h_a.jpg;happy;9;12;f;012_o_f_n_a.jpg;neutral;incongruent;8;match;;120;170;;3;190;block2_Pilot_2;30;h_n;h_n_weak;;;;;0;1;1;1;0;35;35;35;;;;;;;;;1087.7014942001551;None;1089.330566899851;1089.6271633999422;1089.6271633999422;1089.6517269997858;1089.6517269997858;1089.6924871997908;1089.6924871997908;None;9;0;0.6886827000416815;1089.6924871997908;None;1091.1925391000696;None;['7'];[0.35664060013368726];1091.1925391000696;None;;;;;;;Emoconpilot034;2021_Dec_01_1718;BackwardMask;2020.2.8;119.93988606232843;
;f;030_o_f_s_a.jpg;sad;7;12;f;012_o_f_n_a.jpg;neutral;incongruent;8;match;;130;170;;3;197;block2_Pilot_2;30;s_n;s_n_strong;;;;;0;1;1;1;0;36;36;36;;;;;;;;;1094.1929632998072;None;1095.8537281998433;1096.1439585001208;1096.1439585001208;1096.1682592998259;1096.1682592998259;1096.2091983999126;1096.2091983999126;None;None;0;;1096.2091983999126;None;1097.7096433998086;None;"['7', '8']";"[0.06357569992542267, 1.0076355999335647]";1097.7096433998086;None;;;;;;;Emoconpilot034;2021_Dec_01_1718;BackwardMask;2020.2.8;119.93988606232843;
;m;004_o_m_s_a.jpg;sad;7;8;m;008_y_m_h_a.jpg;happy;incongruent;9;match;;130;150;;3;201;block2_Pilot_2;4;s_h;s_h_strong;;;;;0;1;1;1;0;37;37;37;;;;;;;;;1100.7098718001507;None;1102.3920268998481;1102.6853101998568;1102.6853101998568;1102.7101457999088;1102.7101457999088;1102.7509588999674;1102.7509588999674;None;7;0;1.3742372002452612;1102.7509588999674;None;1104.251052199863;None;['8'];[0.6022114004008472];1104.251052199863;None;;;;;;;Emoconpilot034;2021_Dec_01_1718;BackwardMask;2020.2.8;119.93988606232843;
;f;040_y_f_n_a.jpg;neutral;8;16;m;016_y_m_n_a.jpg;neutral;congruent;8;mismatch;;140;170;;3;198;block2_Pilot_2;40;n_n;n_n_strong;;;;;0;1;1;1;0;38;38;38;;;;;;;;;1107.2511648000218;None;1108.9273705999367;1109.219156799838;1109.219156799838;1109.2436012998223;1109.2436012998223;1109.2844400000758;1109.2844400000758;None;8;1;0.8248085002414882;1109.2844400000758;None;1110.7844667001627;None;['7'];[0.43657090002670884];1110.7844667001627;None;;;;;;;Emoconpilot034;2021_Dec_01_1718;BackwardMask;2020.2.8;119.93988606232843;
;m;027_o_m_n_a.jpg;neutral;8;16;m;016_y_m_s_a.jpg;sad;incongruent;7;match;;140;160;;1;238;block2_Pilot_2;27;n_s;n_s_strong;;;;;0;1;1;1;0;39;39;39;;;;;;;;;1113.7845970001072;None;1115.7870239000767;1116.0776964998804;1116.0776964998804;1116.08548410004;1116.08548410004;1116.1261841999367;1116.1261841999367;None;None;0;;1116.1261841999367;None;1117.62617589999;None;['9'];[0.30705960001796484];1117.62617589999;None;;;;;;;Emoconpilot034;2021_Dec_01_1718;BackwardMask;2020.2.8;119.93988606232843;
;m;033_o_m_n_a.jpg;neutral;8;40;f;040_y_f_h_a.jpg;happy;incongruent;9;mismatch;;140;150;;2;137;block2_Pilot_2;33;n_h;n_h_strong;;;;;0;1;1;1;0;40;40;40;;;;;;;;;1120.6264769001864;None;1121.7866392000578;1122.0779367000796;1122.0779367000796;1122.0938888001256;1122.0938888001256;1122.1345799001865;1122.1345799001865;None;8;0;0.6227057999931276;1122.1345799001865;None;1123.6348283002153;None;['7'];[0.31433969968929887];1123.6348283002153;None;;;;;;;Emoconpilot034;2021_Dec_01_1718;BackwardMask;2020.2.8;119.93988606232843;
;m;004_o_m_s_a.jpg;sad;7;8;m;008_y_m_h_a.jpg;happy;incongruent;9;match;;130;150;;18;193;block2_Pilot_2;4;s_h;s_h_strong;;;;;0;1;1;1;0;41;41;41;;;;;;;;;1126.6358578000218;None;1128.2512000999413;1128.5441577001475;1128.5441577001475;1128.6941928002052;1128.6941928002052;1128.7348130000755;1128.7348130000755;None;7;0;0.6065079998224974;1128.7348130000755;None;1130.23463190021;None;['7'];[0.3625700999982655];1130.23463190021;None;;;;;;;Emoconpilot034;2021_Dec_01_1718;BackwardMask;2020.2.8;119.93988606232843;
;f;012_o_f_h_a.jpg;happy;9;4;m;004_o_m_s_a.jpg;sad;incongruent;7;mismatch;;120;160;;3;198;block2_Pilot_2;12;h_s;h_s_weak;;;;;0;1;1;1;0;42;42;42;;;;;;;;;1133.2350713000633;None;1134.8922421000898;1135.1859996998683;1135.1859996998683;1135.2108175000176;1135.2108175000176;1135.2516324999742;1135.2516324999742;None;9;0;0.5055796001106501;1135.2516324999742;None;1136.7516605001874;None;['7'];[0.24556800024583936];1136.7516605001874;None;;;;;;;Emoconpilot034;2021_Dec_01_1718;BackwardMask;2020.2.8;119.93988606232843;
;f;012_o_f_n_a.jpg;neutral;8;8;m;008_y_m_s_a.jpg;sad;incongruent;7;mismatch;;140;160;;1;238;block2_Pilot_2;12;n_s;n_s_strong;;;;;0;1;1;1;0;43;43;43;;;;;;;;;1139.7522109001875;None;1141.769063099753;1142.0616577998735;1142.0616577998735;1142.0690959999338;1142.0690959999338;1142.1100738998502;1142.1100738998502;None;9;0;1.4310360997915268;1142.1100738998502;None;1143.6107930000871;None;['8'];[0.9463077997788787];1143.6107930000871;None;;;;;;;Emoconpilot034;2021_Dec_01_1718;BackwardMask;2020.2.8;119.93988606232843;
;f;040_y_f_n_a.jpg;neutral;8;8;m;008_y_m_n_a.jpg;neutral;congruent;8;mismatch;;140;170;;3;165;block2_Pilot_2;40;n_n;n_n_weak;;;;;0;1;1;1;0;44;44;44;;;;;;;;;1146.6115032001399;None;1148.0052196001634;1148.2948786998168;1148.2948786998168;1148.3195497998968;1148.3195497998968;1148.3602884998545;1148.3602884998545;None;None;0;;1148.3602884998545;None;1149.8604171997868;None;['7'];[0.3767357999458909];1149.8604171997868;None;;;;;;;Emoconpilot034;2021_Dec_01_1718;BackwardMask;2020.2.8;119.93988606232843;
;f;028_y_f_h_a.jpg;happy;9;33;m;033_o_m_n_a.jpg;neutral;incongruent;8;mismatch;;120;170;;1;238;block2_Pilot_2;28;h_n;h_n_strong;;;;;0;1;1;1;0;45;45;45;;;;;;;;;1152.860610899981;None;1154.8546263999306;1155.1448995000683;1155.1448995000683;1155.1529179997742;1155.1529179997742;1155.1937724999152;1155.1937724999152;None;9;0;0.7234147000126541;1155.1937724999152;None;1156.6944630998187;None;['8'];[0.4708364000543952];1156.6944630998187;None;;;;;;;Emoconpilot034;2021_Dec_01_1718;BackwardMask;2020.2.8;119.93988606232843;
;m;027_o_m_s_a.jpg;sad;7;19;f;019_m_f_n_a.jpg;neutral;incongruent;8;mismatch;;130;170;;2;236;block2_Pilot_2;27;s_n;s_n_weak;;;;;0;1;1;1;0;46;46;46;;;;;;;;;1159.6937553999014;None;1161.6683290000074;1161.961546199862;1161.961546199862;1161.97808609996;1161.97808609996;1162.0187929999083;1162.0187929999083;None;8;1;0.6022475999779999;1162.0187929999083;None;1163.518901700154;None;['8'];[0.45427720015868545];1163.518901700154;None;;;;;;;Emoconpilot034;2021_Dec_01_1718;BackwardMask;2020.2.8;119.93988606232843;
;m;027_o_m_h_a.jpg;happy;9;19;f;019_m_f_s_a.jpg;sad;incongruent;7;mismatch;;120;160;;1;238;block2_Pilot_2;27;h_s;h_s_strong;;;;;0;1;1;1;0;47;47;47;;;;;;;;;1166.5190403000452;None;1168.5323108001612;1168.8288945998065;1168.8288945998065;1168.8364884997718;1168.8364884997718;1168.8774449001066;1168.8774449001066;None;None;0;;1168.8774449001066;None;1170.3775451998226;None;['9'];[0.47547309985384345];1170.3775451998226;None;;;;;;;Emoconpilot034;2021_Dec_01_1718;BackwardMask;2020.2.8;119.93988606232843;
;m;016_y_m_h_a.jpg;happy;9;4;m;004_o_m_s_a.jpg;sad;incongruent;7;match;;120;160;;3;227;block2_Pilot_2;16;h_s;h_s_strong;;;;;0;1;1;1;0;48;48;48;;;;;;;;;1173.3775208001025;None;1175.2768235001713;1175.5700400997885;1175.5700400997885;1175.5948291998357;1175.5948291998357;1175.6356317000464;1175.6356317000464;None;9;0;0.6575500997714698;1175.6356317000464;None;1177.1358555997722;None;['7'];[0.4693569000810385];1177.1358555997722;None;;;;;;;Emoconpilot034;2021_Dec_01_1718;BackwardMask;2020.2.8;119.93988606232843;
;f;040_y_f_h_a.jpg;happy;9;13;m;013_y_m_h_a.jpg;happy;congruent;9;mismatch;;120;150;;3;165;block2_Pilot_2;40;h_h;h_h_strong;;;;;0;1;1;1;0;49;49;49;;;;;;;;;1180.1358464001678;None;1181.5174345001578;1181.8121044998989;1181.8121044998989;1181.836670299992;1181.836670299992;1181.8775427001528;1181.8775427001528;None;9;1;0.5436673001386225;1181.8775427001528;None;1183.3778046998195;None;['7'];[0.41140109999105334];1183.3778046998195;None;;;;;;;Emoconpilot034;2021_Dec_01_1718;BackwardMask;2020.2.8;119.93988606232843;
;m;033_o_m_s_a.jpg;sad;7;28;f;028_y_f_n_a.jpg;neutral;incongruent;8;mismatch;;130;170;;2;227;block2_Pilot_2;33;s_n;s_n_weak;;;;;0;1;1;1;0;50;50;50;;;;;;;;;1186.3778210999444;None;1188.2778246998787;1188.5705295000225;1188.5705295000225;1188.587112700101;1188.587112700101;1188.627906799782;1188.627906799782;None;7;0;0.9452490997500718;1188.627906799782;None;1190.1282199998386;None;['8'];[0.7012930000200868];1190.1282199998386;None;;;;;;;Emoconpilot034;2021_Dec_01_1718;BackwardMask;2020.2.8;119.93988606232843;
;f;019_m_f_s_a.jpg;sad;7;27;m;027_o_m_h_a.jpg;happy;incongruent;9;mismatch;;130;150;;1;238;block2_Pilot_2;19;s_h;s_h_weak;;;;;0;1;1;1;0;51;51;51;;;;;;;;;1193.1289494000375;None;1195.137286200188;1195.429317700211;1195.429317700211;1195.4370793001726;1195.4370793001726;1195.4778879000805;1195.4778879000805;None;None;0;;1195.4778879000805;None;1196.9782961998135;None;"['9', '8']";"[0.5788698997348547, 1.2909609000198543]";1196.9782961998135;None;;;;;;;Emoconpilot034;2021_Dec_01_1718;BackwardMask;2020.2.8;119.93988606232843;
;m;016_y_m_h_a.jpg;happy;9;19;f;019_m_f_n_a.jpg;neutral;incongruent;8;mismatch;;120;170;;18;238;block2_Pilot_2;16;h_n;h_n_strong;;;;;0;1;1;1;0;52;52;52;;;;;;;;;1199.9780100998469;None;1201.9692362002097;1202.2624428002164;1202.2624428002164;1202.412212799769;1202.412212799769;1202.453134899959;1202.453134899959;None;9;0;0.5919698001816869;1202.453134899959;None;1203.9533126000315;None;['7'];[0.37174469977617264];1203.9533126000315;None;;;;;;;Emoconpilot034;2021_Dec_01_1718;BackwardMask;2020.2.8;119.93988606232843;
;f;021_o_f_s_a.jpg;sad;7;8;m;008_y_m_n_a.jpg;neutral;incongruent;8;mismatch;;130;170;;1;238;block2_Pilot_2;21;s_n;s_n_strong;;;;;0;1;1;1;0;53;53;53;;;;;;;;;1206.953204699792;None;1208.9426310998388;1209.2376560000703;1209.2376560000703;1209.2458235998638;1209.2458235998638;1209.2865451001562;1209.2865451001562;None;9;0;1.4706892999820411;1209.2865451001562;None;1210.7865805998445;None;['8'];[0.8267113999463618];1210.7865805998445;None;;;;;;;Emoconpilot034;2021_Dec_01_1718;BackwardMask;2020.2.8;119.93988606232843;
;f;012_o_f_s_a.jpg;sad;7;33;m;033_o_m_s_a.jpg;sad;congruent;7;mismatch;;130;160;;2;148;block2_Pilot_2;12;s_s;s_s_weak;;;;;0;1;1;1;0;54;54;54;;;;;;;;;1213.7876317999326;None;1215.024074099958;1215.3212759997696;1215.3212759997696;1215.3375446000136;1215.3375446000136;1215.378461100161;1215.378461100161;None;9;0;0.978742599952966;1215.378461100161;None;1216.878446499817;None;['9'];[1.4787232000380754];1216.878446499817;None;;;;;;;Emoconpilot034;2021_Dec_01_1718;BackwardMask;2020.2.8;119.93988606232843;
;f;030_o_f_s_a.jpg;sad;7;40;f;040_y_f_s_a.jpg;sad;congruent;7;match;;130;160;;3;136;block2_Pilot_2;30;s_s;s_s_strong;;;;;0;1;1;1;0;55;55;55;;;;;;;;;1219.8797511002049;None;1221.0432734000497;1221.3382723000832;1221.3382723000832;1221.362612000201;1221.362612000201;1221.4034218997695;1221.4034218997695;None;7;1;0.6898237001150846;1221.4034218997695;None;1222.9033845001832;None;['7'];[0.5499509000219405];1222.9033845001832;None;;;;;;;Emoconpilot034;2021_Dec_01_1718;BackwardMask;2020.2.8;119.93988606232843;
;m;027_o_m_s_a.jpg;sad;7;28;f;028_y_f_h_a.jpg;happy;incongruent;9;mismatch;;130;150;;1;238;block2_Pilot_2;27;s_h;s_h_weak;;;;;0;1;1;1;0;56;56;56;;;;;;;;;1225.9043815000914;None;1227.8951161000878;1228.1878925999627;1228.1878925999627;1228.1960466997698;1228.1960466997698;1228.2368438998237;1228.2368438998237;None;None;0;;1228.2368438998237;None;1229.736842500046;None;['9'];[1.0124098001979291];1229.736842500046;None;;;;;;;Emoconpilot034;2021_Dec_01_1718;BackwardMask;2020.2.8;119.93988606232843;
;m;004_o_m_n_a.jpg;neutral;8;8;m;008_y_m_s_a.jpg;sad;incongruent;7;match;;140;160;;3;225;block2_Pilot_2;4;n_s;n_s_strong;;;;;0;1;1;1;0;57;57;57;;;;;;;;;1232.7379195000976;None;1234.635137599893;1234.930130300112;1234.930130300112;1234.9545460999943;1234.9545460999943;1234.9955023000948;1234.9955023000948;None;8;0;0.8416050001978874;1234.9955023000948;None;1236.495302400086;None;['7'];[0.5579514000564814];1236.495302400086;None;;;;;;;Emoconpilot034;2021_Dec_01_1718;BackwardMask;2020.2.8;119.93988606232843;
;f;012_o_f_s_a.jpg;sad;7;40;f;040_y_f_s_a.jpg;sad;congruent;7;match;;130;160;;1;238;block2_Pilot_2;12;s_s;s_s_strong;;;;;0;1;1;1;0;58;58;58;;;;;;;;;1239.496402699966;None;1241.4829341000877;1241.779863299802;1241.779863299802;1241.7880664998665;1241.7880664998665;1241.8288623997942;1241.8288623997942;None;None;0;;1241.8288623997942;None;1243.3293841001578;None;['9'];[0.7319179000332952];1243.3293841001578;None;;;;;;;Emoconpilot034;2021_Dec_01_1718;BackwardMask;2020.2.8;119.93988606232843;
;f;021_o_f_h_a.jpg;happy;9;4;m;004_o_m_n_a.jpg;neutral;incongruent;8;mismatch;;120;170;;1;238;block2_Pilot_2;21;h_n;h_n_weak;;;;;0;1;1;1;0;59;59;59;;;;;;;;;1246.328935999889;None;1248.333282600157;1248.6221989998594;1248.6221989998594;1248.629694600124;1248.629694600124;1248.6705370000564;1248.6705370000564;None;9;0;0.6385924001224339;1248.6705370000564;None;1250.1706564999186;None;['8'];[0.5944830998778343];1250.1706564999186;None;;;;;;;Emoconpilot034;2021_Dec_01_1718;BackwardMask;2020.2.8;119.93988606232843;
;f;040_y_f_h_a.jpg;happy;9;16;m;016_y_m_n_a.jpg;neutral;incongruent;8;mismatch;;120;170;;2;154;block2_Pilot_2;40;h_n;h_n_weak;;;;;0;1;1;1;0;60;60;60;;;;;;;;;1253.1716791000217;None;1254.4628534000367;1254.7552037001587;1254.7552037001587;1254.7716192998923;1254.7716192998923;1254.8125105998479;1254.8125105998479;None;9;0;0.5845972998067737;1254.8125105998479;None;1256.312573700212;None;['7'];[0.3886365997605026];1256.312573700212;None;;;;;;;Emoconpilot034;2021_Dec_01_1718;BackwardMask;2020.2.8;119.93988606232843;
;m;008_y_m_n_a.jpg;neutral;8;4;m;004_o_m_s_a.jpg;sad;incongruent;7;match;;140;160;;18;145;block2_Pilot_2;8;n_s;n_s_strong;;;;;0;1;1;1;0;61;61;61;;;;;;;;;1259.313784999773;None;1260.5445162998512;1260.8388990000822;1260.8388990000822;1260.9885154999793;1260.9885154999793;1261.0291904001497;1261.0291904001497;None;8;0;0.47202089987695217;1261.0291904001497;None;1262.5294138998725;None;['7'];[0.33185729989781976];1262.5294138998725;None;;;;;;;Emoconpilot034;2021_Dec_01_1718;BackwardMask;2020.2.8;119.93988606232843;
;f;021_o_f_s_a.jpg;sad;7;33;m;033_o_m_h_a.jpg;happy;incongruent;9;mismatch;;130;150;;1;238;block2_Pilot_2;21;s_h;s_h_strong;;;;;0;1;1;1;0;62;62;62;;;;;;;;;1265.5302045000717;None;1267.519793599844;1267.8137211999856;1267.8137211999856;1267.822166999802;1267.822166999802;1267.8626814000309;1267.8626814000309;None;9;1;1.166484100278467;1267.8626814000309;None;1269.3628469998948;None;['8'];[0.8424510997720063];1269.3628469998948;None;;;;;;;Emoconpilot034;2021_Dec_01_1718;BackwardMask;2020.2.8;119.93988606232843;
;m;033_o_m_n_a.jpg;neutral;8;30;f;030_o_f_h_a.jpg;happy;incongruent;9;mismatch;;140;150;;18;171;block2_Pilot_2;33;n_h;n_h_weak;;;;;0;1;1;1;0;63;63;63;;;;;;;;;1272.3637132998556;None;1273.8110178001225;1274.1060552001;1274.1060552001;1274.2555526997894;1274.2555526997894;1274.296163899824;1274.296163899824;None;7;0;0.31703219981864095;1274.296163899824;None;1275.7962262998335;None;['7'];[1.5128700998611748];1275.7962262998335;None;;;;;;;Emoconpilot034;2021_Dec_01_1718;BackwardMask;2020.2.8;119.93988606232843;
;m;027_o_m_n_a.jpg;neutral;8;27;m;027_o_m_h_a.jpg;happy;incongruent;9;match;;140;150;;2;164;block2_Pilot_2;27;n_h;n_h_weak;;;;;0;1;1;1;0;64;64;64;;;;;;;;;1278.7972832000814;None;1280.1821196000092;1280.4727675998583;1280.4727675998583;1280.4890228998847;1280.4890228998847;1280.529754200019;1280.529754200019;None;8;0;1.2595989000983536;1280.529754200019;None;1282.0296192998067;None;['7'];[1.0075568999163806];1282.0296192998067;None;;;;;;;Emoconpilot034;2021_Dec_01_1718;BackwardMask;2020.2.8;119.93988606232843;
;m;008_y_m_n_a.jpg;neutral;8;40;f;040_y_f_n_a.jpg;neutral;congruent;8;mismatch;;140;170;;1;238;block2_Pilot_2;8;n_n;n_n_strong;;;;;0;1;1;1;0;65;65;65;;;;;;;;;1285.0298651000485;None;1287.0328294998035;1287.323098000139;1287.323098000139;1287.3305930001661;1287.3305930001661;1287.3715853998438;1287.3715853998438;None;8;1;1.2495866999961436;1287.3715853998438;None;1288.8714947998524;None;['8'];[1.701807300094515];1288.8714947998524;None;;;;;;;Emoconpilot034;2021_Dec_01_1718;BackwardMask;2020.2.8;119.93988606232843;
;f;040_y_f_h_a.jpg;happy;9;21;f;021_o_f_n_a.jpg;neutral;incongruent;8;match;;120;170;;18;239;block2_Pilot_2;40;h_n;h_n_strong;;;;;0;1;1;1;0;66;66;66;;;;;;;;;1291.8723883000202;None;1293.8722824999131;1294.1642140997574;1294.1642140997574;1294.3139778999612;1294.3139778999612;1294.354930399917;1294.354930399917;None;9;0;0.7223964999429882;1294.354930399917;None;1295.8549862997606;None;['7'];[0.7822488998062909];1295.8549862997606;None;;;;;;;Emoconpilot034;2021_Dec_01_1718;BackwardMask;2020.2.8;119.93988606232843;
;f;021_o_f_s_a.jpg;sad;7;28;f;028_y_f_h_a.jpg;happy;incongruent;9;match;;130;150;;1;238;block2_Pilot_2;21;s_h;s_h_weak;;;;;0;1;1;1;0;67;67;67;;;;;;;;;1298.8549346998334;None;1300.8440815000795;1301.139378900174;1301.139378900174;1301.1474470999092;1301.1474470999092;1301.1883872998878;1301.1883872998878;None;None;0;;1301.1883872998878;None;1302.6884785997681;None;"['8', '8']";"[0.13276290008798242, 0.8687395001761615]";1302.6884785997681;None;;;;;;;Emoconpilot034;2021_Dec_01_1718;BackwardMask;2020.2.8;119.93988606232843;
;f;021_o_f_n_a.jpg;neutral;8;30;f;030_o_f_n_a.jpg;neutral;congruent;8;match;;140;170;;2;209;block2_Pilot_2;21;n_n;n_n_strong;;;;;0;1;1;1;0;68;68;68;;;;;;;;;1305.6885640001856;None;1307.48107959982;1307.7733364999294;1307.7733364999294;1307.789506000001;1307.789506000001;1307.8303251997568;1307.8303251997568;None;8;1;1.1509938002564013;1307.8303251997568;None;1309.330200199969;None;['8'];[1.1950431996956468];1309.330200199969;None;;;;;;;Emoconpilot034;2021_Dec_01_1718;BackwardMask;2020.2.8;119.93988606232843;
;f;040_y_f_s_a.jpg;sad;7;13;m;013_y_m_s_a.jpg;sad;congruent;7;mismatch;;130;160;;3;147;block2_Pilot_2;40;s_s;s_s_strong;;;;;0;1;1;1;0;69;69;69;;;;;;;;;1312.331180300098;None;1313.5637337001972;1313.856424599886;1313.856424599886;1313.8811734002084;1313.8811734002084;1313.9219888998196;1313.9219888998196;None;8;0;0.8592314999550581;1313.9219888998196;None;1315.4222051999532;None;['7'];[0.46295109996572137];1315.4222051999532;None;;;;;;;Emoconpilot034;2021_Dec_01_1718;BackwardMask;2020.2.8;119.93988606232843;
