Person;primeGender;prime;primeEmotion;corrAnsPrime;targetPerson;targetGender;target;targetEmotion;Cond;corrAnsTar;gender;condition;ID_primer;ID_target;PrimerTime;PrimerTime120;JitterTime;conditionsFile;primePerson;emotion_condition;Condition;example.thisRepN;example.thisTrialN;example.thisN;example.thisIndex;readinBlocks.thisRepN;readinBlocks.thisTrialN;readinBlocks.thisN;readinBlocks.thisIndex;trials.thisRepN;trials.thisTrialN;trials.thisN;trials.thisIndex;text_intro.started;text_intro.stopped;text_probe.started;text_probe.stopped;key_resp_2.keys;key_resp_2.rt;key_resp_2.started;key_resp_2.stopped;polygon_ISI.started;polygon_ISI.stopped;polygon.started;polygon.stopped;primerImage.started;primerImage.stopped;maskImage.started;maskImage.stopped;response.started;response.stopped;key_resp.keys;key_resp.corr;key_resp.started;key_resp.stopped;text.started;text.stopped;key_resp_Rating.keys;key_resp_Rating.rt;key_resp_Rating.started;key_resp_Rating.stopped;key_resp.rt;text_start.started;text_start.stopped;text_pause.started;text_pause.stopped;text_ende.started;text_ende.stopped;participant;date;expName;psychopyVersion;frameRate;
;;;;;;;;;;;;;;;;;;;;;;;;;;;;;;;;;;28.393524899999647;33.36621370000012;33.36621370000012;None;7;15.04178100000081;28.393524899999647;None;;;;;;;;;;;;;;;;;;;;;;;;;;;;Emoconpilot041;2022_Jan_07_1307;BackwardMask;2020.2.8;119.90393296848843;
2;f;1113_y_f_s_a.jpg;sad;7;1;m;1111_m_m_h_a.jpg;happy;incongruent;9;mix;s+h;130;150;1;2;148;;;;;0;0;0;0;;;;;;;;;;;;;;;;;43.469546000000264;None;44.75730040000053;45.07010319999972;45.07010319999972;45.10009650000029;45.10009650000029;45.133011500000066;45.133011500000066;None;None;0;45.133011500000066;None;46.634389400000146;None;"['7', '7']";"[0.10509900000033667, 1.633088499999758]";46.634389400000146;None;;;;;;;;Emoconpilot041;2022_Jan_07_1307;BackwardMask;2020.2.8;119.90393296848843;
2;f;1111_m_m_h_a.jpg;happy;9;3;f;1113_y_f_s_a.jpg;sad;incongruent;7;mix;h+s;120;160;9;18;195;;;;;0;1;1;1;;;;;;;;;;;;;;;;;49.633315400000356;None;51.28057530000024;51.57586309999988;51.57586309999988;51.725172000000384;51.725172000000384;51.7660992000001;51.7660992000001;None;9;0;51.7660992000001;None;53.266599900000074;None;['7'];[0.8567935999999463];53.266599900000074;None;1.3012779999999111;;;;;;;Emoconpilot041;2022_Jan_07_1307;BackwardMask;2020.2.8;119.90393296848843;
2;f;1112_m_f_n_a.jpg;neutral;8;2;f;1112_m_f_n_a.jpg;neutral;congruent;8;match;n+n;140;170;9;18;134;;;;;0;2;2;2;;;;;;;;;;;;;;;;;56.26614560000053;None;57.40424150000035;57.70090059999984;57.70090059999984;57.85023420000016;57.85023420000016;57.89115070000025;57.89115070000025;None;8;1;57.89115070000025;None;59.39115599999968;None;['7'];[1.2683851000001596];59.39115599999968;None;0.6801636000000144;;;;;;;Emoconpilot041;2022_Jan_07_1307;BackwardMask;2020.2.8;119.90393296848843;
;m;033_o_m_h_a.jpg;happy;9;30;f;030_o_f_n_a.jpg;neutral;incongruent;8;mismatch;;120;170;;18;238;block1_Pilot_2;33;h_n;h_n_strong;;;;;0;0;0;0;0;0;0;0;;;;;;;;;63.424097099999926;None;65.42315899999994;65.71739989999969;65.71739989999969;65.86712480000006;65.86712480000006;65.90798150000046;65.90798150000046;None;9;0;65.90798150000046;None;67.40884920000008;None;['7'];[1.0664970000007088];67.40884920000008;None;0.9914927999998326;62.39153979999992;None;None;None;;;Emoconpilot041;2022_Jan_07_1307;BackwardMask;2020.2.8;119.90393296848843;
;m;004_o_m_h_a.jpg;happy;9;12;f;012_o_f_h_a.jpg;happy;congruent;9;mismatch;;120;150;;2;218;block1_Pilot_2;4;h_h;h_h_weak;;;;;0;0;0;0;0;1;1;1;;;;;;;;;70.40888650000034;None;72.27378450000015;72.56790189999992;72.56790189999992;72.58393290000004;72.58393290000004;72.62477829999989;72.62477829999989;None;None;0;72.62477829999989;None;74.12480589999996;None;['9'];[1.0786195999999109];74.12480589999996;None;;;;;;;;Emoconpilot041;2022_Jan_07_1307;BackwardMask;2020.2.8;119.90393296848843;
;f;012_o_f_h_a.jpg;happy;9;33;m;033_o_m_h_a.jpg;happy;congruent;9;mismatch;;120;150;;2;140;block1_Pilot_2;12;h_h;h_h_weak;;;;;0;0;0;0;0;2;2;2;;;;;;;;;77.12482629999977;None;78.30149170000004;78.59258539999973;78.59258539999973;78.60911589999978;78.60911589999978;78.64999919999991;78.64999919999991;None;9;1;78.64999919999991;None;80.14991139999984;None;"['7', '8']";"[0.8934691999993447, 2.933492999999544]";80.14991139999984;None;1.305409100000361;;;;;;;Emoconpilot041;2022_Jan_07_1307;BackwardMask;2020.2.8;119.90393296848843;
;f;040_y_f_n_a.jpg;neutral;8;40;f;040_y_f_h_a.jpg;happy;incongruent;9;match;;140;150;;2;192;block1_Pilot_2;40;n_h;n_h_weak;;;;;0;0;0;0;0;3;3;3;;;;;;;;;83.1507317000005;None;84.8042645000005;85.09309389999999;85.09309389999999;85.10916389999966;85.10916389999966;85.15012699999988;85.15012699999988;None;None;0;85.15012699999988;None;86.65008409999973;None;['9'];[0.9933264999999665];86.65008409999973;None;;;;;;;;Emoconpilot041;2022_Jan_07_1307;BackwardMask;2020.2.8;119.90393296848843;
;m;013_y_m_s_a.jpg;sad;7;16;m;016_y_m_n_a.jpg;neutral;incongruent;8;match;;130;170;;3;155;block1_Pilot_2;13;s_n;s_n_weak;;;;;0;0;0;0;0;4;4;4;;;;;;;;;89.65125970000008;None;90.95071590000043;91.24265869999999;91.24265869999999;91.26775100000032;91.26775100000032;91.30855020000035;91.30855020000035;None;8;1;91.30855020000035;None;92.80852219999997;None;['8'];[1.9549055999996199];92.80852219999997;None;1.2468487999994977;;;;;;;Emoconpilot041;2022_Jan_07_1307;BackwardMask;2020.2.8;119.90393296848843;
;f;012_o_f_h_a.jpg;happy;9;21;f;021_o_f_h_a.jpg;happy;congruent;9;match;;120;150;;2;216;block1_Pilot_2;12;h_h;h_h_strong;;;;;0;0;0;0;0;5;5;5;;;;;;;;;95.80913950000013;None;97.61633280000024;97.90975230000004;97.90975230000004;97.92608579999978;97.92608579999978;97.96688259999974;97.96688259999974;None;None;0;97.96688259999974;None;99.46689059999972;None;['9'];[1.1284745000002658];99.46689059999972;None;;;;;;;;Emoconpilot041;2022_Jan_07_1307;BackwardMask;2020.2.8;119.90393296848843;
;f;040_y_f_s_a.jpg;sad;7;40;f;040_y_f_h_a.jpg;happy;incongruent;9;match;;130;150;;1;238;block1_Pilot_2;40;s_h;s_h_weak;;;;;0;0;0;0;0;6;6;6;;;;;;;;;102.46794190000037;None;104.46004259999972;104.75112780000018;104.75112780000018;104.75935480000044;104.75935480000044;104.80034100000012;104.80034100000012;None;None;0;104.80034100000012;None;106.30101689999992;None;['9'];[0.41437089999999444];106.30101689999992;None;;;;;;;;Emoconpilot041;2022_Jan_07_1307;BackwardMask;2020.2.8;119.90393296848843;
;m;033_o_m_n_a.jpg;neutral;8;27;m;027_o_m_n_a.jpg;neutral;congruent;8;match;;140;170;;18;238;block1_Pilot_2;33;n_n;n_n_weak;;;;;0;0;0;0;0;7;7;7;;;;;;;;;109.3007319999997;None;111.37703340000007;111.66871600000013;111.66871600000013;111.81830760000048;111.81830760000048;111.85888890000024;111.85888890000024;None;8;1;111.85888890000024;None;113.35940130000017;None;['7'];[0.5159530000000814];113.35940130000017;None;0.8404426000006424;;;;;;;Emoconpilot041;2022_Jan_07_1307;BackwardMask;2020.2.8;119.90393296848843;
;f;040_y_f_h_a.jpg;happy;9;19;f;019_m_f_n_a.jpg;neutral;incongruent;8;match;;120;170;;1;238;block1_Pilot_2;40;h_n;h_n_strong;;;;;0;0;0;0;0;8;8;8;;;;;;;;;116.35903080000026;None;118.35201359999974;118.64335790000041;118.64335790000041;118.65148070000032;118.65148070000032;118.6922940000004;118.6922940000004;None;None;0;118.6922940000004;None;120.19232939999984;None;['9'];[0.3870542000004207];120.19232939999984;None;;;;;;;;Emoconpilot041;2022_Jan_07_1307;BackwardMask;2020.2.8;119.90393296848843;
;m;013_y_m_h_a.jpg;happy;9;12;f;012_o_f_s_a.jpg;sad;incongruent;7;mismatch;;120;160;;3;198;block1_Pilot_2;13;h_s;h_s_weak;;;;;0;0;0;0;0;9;9;9;;;;;;;;;123.19271180000032;None;124.89253660000031;125.18553909999991;125.18553909999991;125.20996689999993;125.20996689999993;125.25094239999999;125.25094239999999;None;9;0;125.25094239999999;None;126.75086199999987;None;['7'];[0.6045264999993378];126.75086199999987;None;1.1842745999992985;;;;;;;Emoconpilot041;2022_Jan_07_1307;BackwardMask;2020.2.8;119.90393296848843;
;m;008_y_m_h_a.jpg;happy;9;4;m;004_o_m_n_a.jpg;neutral;incongruent;8;match;;120;170;;18;150;block1_Pilot_2;8;h_n;h_n_strong;;;;;0;0;0;0;0;10;10;10;;;;;;;;;129.75229800000034;None;131.01181150000048;131.30205380000007;131.30205380000007;131.45179449999978;131.45179449999978;131.4926330999997;131.4926330999997;None;9;0;131.4926330999997;None;132.99288400000023;None;['7'];[0.6344820000003892];132.99288400000023;None;0.886572200000046;;;;;;;Emoconpilot041;2022_Jan_07_1307;BackwardMask;2020.2.8;119.90393296848843;
;f;019_m_f_h_a.jpg;happy;9;27;m;027_o_m_s_a.jpg;sad;incongruent;7;mismatch;;120;160;;1;238;block1_Pilot_2;19;h_s;h_s_weak;;;;;0;0;0;0;0;11;11;11;;;;;;;;;135.9932901000002;None;137.98391059999994;138.2770486999998;138.2770486999998;138.28520600000047;138.28520600000047;138.32599019999998;138.32599019999998;None;None;0;138.32599019999998;None;139.8260833000004;None;['9'];[0.625272500000392];139.8260833000004;None;;;;;;;;Emoconpilot041;2022_Jan_07_1307;BackwardMask;2020.2.8;119.90393296848843;
;m;016_y_m_s_a.jpg;sad;7;4;m;004_o_m_s_a.jpg;sad;congruent;7;match;;130;160;;18;142;block1_Pilot_2;16;s_s;s_s_strong;;;;;0;0;0;0;0;12;12;12;;;;;;;;;142.82626179999988;None;144.01968990000023;144.3104825999999;144.3104825999999;144.46038969999972;144.46038969999972;144.50107639999987;144.50107639999987;None;7;1;144.50107639999987;None;146.00115770000048;None;['7'];[0.5541731000002983];146.00115770000048;None;1.2702838000004704;;;;;;;Emoconpilot041;2022_Jan_07_1307;BackwardMask;2020.2.8;119.90393296848843;
;f;021_o_f_n_a.jpg;neutral;8;21;f;021_o_f_h_a.jpg;happy;incongruent;9;match;;140;150;;3;171;block1_Pilot_2;21;n_h;n_h_weak;;;;;0;0;0;0;0;13;13;13;;;;;;;;;149.0015370000001;None;150.50004929999977;150.79417360000025;150.79417360000025;150.8188097000002;150.8188097000002;150.8595537000001;150.8595537000001;None;8;0;150.8595537000001;None;152.3606761000001;None;['7'];[0.4187638000003062];152.3606761000001;None;0.8716422999996212;;;;;;;Emoconpilot041;2022_Jan_07_1307;BackwardMask;2020.2.8;119.90393296848843;
;f;012_o_f_h_a.jpg;happy;9;13;m;013_y_m_h_a.jpg;happy;congruent;9;mismatch;;120;150;;3;213;block1_Pilot_2;12;h_h;h_h_weak;;;;;0;0;0;0;0;14;14;14;;;;;;;;;155.36030680000022;None;157.14427069999965;157.43577360000018;157.43577360000018;157.4604242000005;157.4604242000005;157.5015843000001;157.5015843000001;None;None;0;157.5015843000001;None;159.00151759999972;None;"['9', '7']";"[0.017919399999300367, 0.7299419000000853]";159.00151759999972;None;;;;;;;;Emoconpilot041;2022_Jan_07_1307;BackwardMask;2020.2.8;119.90393296848843;
;f;021_o_f_s_a.jpg;sad;7;27;m;027_o_m_n_a.jpg;neutral;incongruent;8;mismatch;;130;170;;3;174;block1_Pilot_2;21;s_n;s_n_weak;;;;;0;0;0;0;0;15;15;15;;;;;;;;;162.00244320000002;None;163.45939249999992;163.75251800000024;163.75251800000024;163.77744859999984;163.77744859999984;163.81841820000045;163.81841820000045;None;None;0;163.81841820000045;None;165.31842779999988;None;['8'];[1.0449384000003192];165.31842779999988;None;;;;;;;;Emoconpilot041;2022_Jan_07_1307;BackwardMask;2020.2.8;119.90393296848843;
;f;019_m_f_n_a.jpg;neutral;8;19;f;019_m_f_h_a.jpg;happy;incongruent;9;match;;140;150;;3;238;block1_Pilot_2;19;n_h;n_h_weak;;;;;0;0;0;0;0;16;16;16;;;;;;;;;168.3195065;None;170.3598920000004;170.65330929999982;170.65330929999982;170.6775819000004;170.6775819000004;170.71844520000013;170.71844520000013;None;8;0;170.71844520000013;None;172.21858690000045;None;['8'];[2.096596700000191];172.21858690000045;None;1.0287478999998712;;;;;;;Emoconpilot041;2022_Jan_07_1307;BackwardMask;2020.2.8;119.90393296848843;
;f;028_y_f_n_a.jpg;neutral;8;30;f;030_o_f_s_a.jpg;sad;incongruent;7;match;;140;160;;18;219;block1_Pilot_2;28;n_s;n_s_weak;;;;;0;0;0;0;0;17;17;17;;;;;;;;;175.21934020000026;None;177.06408530000044;177.35321139999996;177.35321139999996;177.50271340000018;177.50271340000018;177.54376070000035;177.54376070000035;None;8;0;177.54376070000035;None;179.04358849999971;None;['7'];[0.3518914999995104];179.04358849999971;None;0.7797236999995221;;;;;;;Emoconpilot041;2022_Jan_07_1307;BackwardMask;2020.2.8;119.90393296848843;
;m;008_y_m_h_a.jpg;happy;9;8;m;008_y_m_s_a.jpg;sad;incongruent;7;match;;120;160;;3;176;block1_Pilot_2;8;h_s;h_s_weak;;;;;0;0;0;0;0;18;18;18;;;;;;;;;182.04396610000003;None;183.51984749999974;183.81132479999997;183.81132479999997;183.83628120000049;183.83628120000049;183.87700829999994;183.87700829999994;None;9;0;183.87700829999994;None;185.37701300000026;None;['7'];[0.6421940000000177];185.37701300000026;None;1.3663269000007858;;;;;;;Emoconpilot041;2022_Jan_07_1307;BackwardMask;2020.2.8;119.90393296848843;
;f;019_m_f_h_a.jpg;happy;9;33;m;033_o_m_n_a.jpg;neutral;incongruent;8;mismatch;;120;170;;18;136;block1_Pilot_2;19;h_n;h_n_weak;;;;;0;0;0;0;0;19;19;19;;;;;;;;;188.37718740000037;None;189.51823930000046;189.81154320000041;189.81154320000041;189.9613687000001;189.9613687000001;190.00213950000034;190.00213950000034;None;9;0;190.00213950000034;None;191.50243060000048;None;['7'];[0.5649286999996548];191.50243060000048;None;1.0411765000008018;;;;;;;Emoconpilot041;2022_Jan_07_1307;BackwardMask;2020.2.8;119.90393296848843;
;m;013_y_m_n_a.jpg;neutral;8;12;f;012_o_f_s_a.jpg;sad;incongruent;7;mismatch;;140;160;;2;132;block1_Pilot_2;13;n_s;n_s_strong;;;;;0;0;0;0;0;20;20;20;;;;;;;;;194.50255070000003;None;195.6388407000004;195.92865260000053;195.92865260000053;195.94482380000045;195.94482380000045;195.98562909999964;195.98562909999964;None;8;0;195.98562909999964;None;197.4863551999997;None;['8'];[0.6930793999999878];197.4863551999997;None;1.385609399999339;;;;;;;Emoconpilot041;2022_Jan_07_1307;BackwardMask;2020.2.8;119.90393296848843;
;f;040_y_f_s_a.jpg;sad;7;8;m;008_y_m_h_a.jpg;happy;incongruent;9;mismatch;;130;150;;2;175;block1_Pilot_2;40;s_h;s_h_weak;;;;;0;0;0;0;0;21;21;21;;;;;;;;;200.48663039999974;None;201.95312300000023;202.24491829999988;202.24491829999988;202.2616076000004;202.2616076000004;202.30241130000013;202.30241130000013;None;None;0;202.30241130000013;None;203.80242650000037;None;['9'];[0.6248462999992626];203.80242650000037;None;;;;;;;;Emoconpilot041;2022_Jan_07_1307;BackwardMask;2020.2.8;119.90393296848843;
;m;004_o_m_h_a.jpg;happy;9;40;f;040_y_f_s_a.jpg;sad;incongruent;7;mismatch;;120;160;;2;193;block1_Pilot_2;4;h_s;h_s_weak;;;;;0;0;0;0;0;22;22;22;;;;;;;;;206.8032986999997;None;208.4438594000003;208.7372922000004;208.7372922000004;208.7532941999998;208.7532941999998;208.79419710000002;208.79419710000002;None;9;0;208.79419710000002;None;210.29491609999968;None;['7'];[0.5563591000000088];210.29491609999968;None;1.009158099999695;;;;;;;Emoconpilot041;2022_Jan_07_1307;BackwardMask;2020.2.8;119.90393296848843;
;f;028_y_f_s_a.jpg;sad;7;13;m;013_y_m_n_a.jpg;neutral;incongruent;8;mismatch;;130;170;;2;126;block1_Pilot_2;28;s_n;s_n_weak;;;;;0;0;0;0;0;23;23;23;;;;;;;;;213.29447580000033;None;214.3551225000001;214.6452922999997;214.6452922999997;214.66175190000013;214.66175190000013;214.70268450000003;214.70268450000003;None;None;0;214.70268450000003;None;216.2029646000001;None;['9'];[0.3362892000004649];216.2029646000001;None;;;;;;;;Emoconpilot041;2022_Jan_07_1307;BackwardMask;2020.2.8;119.90393296848843;
;m;004_o_m_h_a.jpg;happy;9;40;f;040_y_f_n_a.jpg;neutral;incongruent;8;mismatch;;120;170;;3;146;block1_Pilot_2;4;h_n;h_n_strong;;;;;0;0;0;0;0;24;24;24;;;;;;;;;219.2035292999999;None;220.44100100000014;220.73732740000014;220.73732740000014;220.76196840000011;220.76196840000011;220.8027844999997;220.8027844999997;None;9;0;220.8027844999997;None;222.30281970000033;None;['7'];[0.604759799999556];222.30281970000033;None;0.960673699999461;;;;;;;Emoconpilot041;2022_Jan_07_1307;BackwardMask;2020.2.8;119.90393296848843;
;m;008_y_m_s_a.jpg;sad;7;30;f;030_o_f_n_a.jpg;neutral;incongruent;8;mismatch;;130;170;;3;132;block1_Pilot_2;8;s_n;s_n_strong;;;;;0;0;0;0;0;25;25;25;;;;;;;;;225.30320219999976;None;226.4219595000004;226.7126773;226.7126773;226.73710159999973;226.73710159999973;226.7778645999997;226.7778645999997;None;None;0;226.7778645999997;None;228.2781617999999;None;['8'];[1.7251760999997714];228.2781617999999;None;;;;;;;;Emoconpilot041;2022_Jan_07_1307;BackwardMask;2020.2.8;119.90393296848843;
;f;040_y_f_n_a.jpg;neutral;8;40;f;040_y_f_s_a.jpg;sad;incongruent;7;match;;140;160;;2;123;block1_Pilot_2;40;n_s;n_s_weak;;;;;0;0;0;0;0;26;26;26;;;;;;;;;231.2789727999998;None;232.32245930000045;232.61278909999965;232.61278909999965;232.62891190000028;232.62891190000028;232.66963600000054;232.66963600000054;None;None;0;232.66963600000054;None;234.16973899999994;None;['9'];[0.649628400000438];234.16973899999994;None;;;;;;;;Emoconpilot041;2022_Jan_07_1307;BackwardMask;2020.2.8;119.90393296848843;
;f;028_y_f_s_a.jpg;sad;7;27;m;027_o_m_s_a.jpg;sad;congruent;7;mismatch;;130;160;;3;159;block1_Pilot_2;28;s_s;s_s_weak;;;;;0;0;0;0;0;27;27;27;;;;;;;;;237.1699693999999;None;238.50633040000048;238.79592440000033;238.79592440000033;238.82074190000003;238.82074190000003;238.86143840000022;238.86143840000022;None;8;0;238.86143840000022;None;240.36248290000003;None;['8'];[0.6808552000002237];240.36248290000003;None;1.2779525999994803;;;;;;;Emoconpilot041;2022_Jan_07_1307;BackwardMask;2020.2.8;119.90393296848843;
;f;012_o_f_s_a.jpg;sad;7;27;m;027_o_m_s_a.jpg;sad;congruent;7;mismatch;;130;160;;18;166;block1_Pilot_2;12;s_s;s_s_weak;;;;;0;0;0;0;0;28;28;28;;;;;;;;;243.36171040000045;None;244.7527313999999;245.04583730000013;245.04583730000013;245.19589090000045;245.19589090000045;245.23656870000013;245.23656870000013;None;7;1;245.23656870000013;None;246.73678269999982;None;['7'];[0.49854119999963586];246.73678269999982;None;1.0388001000001168;;;;;;;Emoconpilot041;2022_Jan_07_1307;BackwardMask;2020.2.8;119.90393296848843;
;f;028_y_f_n_a.jpg;neutral;8;28;f;028_y_f_h_a.jpg;happy;incongruent;9;match;;140;150;;2;186;block1_Pilot_2;28;n_h;n_h_weak;;;;;0;0;0;0;0;29;29;29;;;;;;;;;249.73695080000016;None;251.3549863999997;251.64644940000017;251.64644940000017;251.6625598999999;251.6625598999999;251.70345180000004;251.70345180000004;None;8;0;251.70345180000004;None;253.2034603000002;None;['7'];[0.7998422000000573];253.2034603000002;None;1.0438218999997844;;;;;;;Emoconpilot041;2022_Jan_07_1307;BackwardMask;2020.2.8;119.90393296848843;
;m;027_o_m_n_a.jpg;neutral;8;16;m;016_y_m_n_a.jpg;neutral;congruent;8;match;;140;170;;2;188;block1_Pilot_2;27;n_n;n_n_weak;;;;;0;0;0;0;0;30;30;30;;;;;;;;;256.20378230000006;None;257.7911444000001;258.08000020000054;258.08000020000054;258.0960431000003;258.0960431000003;258.13689390000036;258.13689390000036;None;None;0;258.13689390000036;None;259.63703520000035;None;['9'];[0.4382113000001482];259.63703520000035;None;;;;;;;;Emoconpilot041;2022_Jan_07_1307;BackwardMask;2020.2.8;119.90393296848843;
;f;012_o_f_s_a.jpg;sad;7;13;m;013_y_m_n_a.jpg;neutral;incongruent;8;mismatch;;130;170;;3;162;block1_Pilot_2;12;s_n;s_n_strong;;;;;0;0;0;0;0;31;31;31;;;;;;;;;262.63807950000046;None;263.9913803999998;264.2878903000001;264.2878903000001;264.3128164;264.3128164;264.3536893999999;264.3536893999999;None;None;0;264.3536893999999;None;265.8536935000002;None;['9'];[1.133449500000097];265.8536935000002;None;;;;;;;;Emoconpilot041;2022_Jan_07_1307;BackwardMask;2020.2.8;119.90393296848843;
;f;012_o_f_s_a.jpg;sad;7;16;m;016_y_m_h_a.jpg;happy;incongruent;9;mismatch;;130;150;;1;238;block1_Pilot_2;12;s_h;s_h_strong;;;;;0;0;0;0;0;32;32;32;;;;;;;;;268.8549939000004;None;270.8401977000003;271.1378741999997;271.1378741999997;271.14617999999973;271.14617999999973;271.18717040000047;271.18717040000047;None;None;0;271.18717040000047;None;272.6872849000001;None;['9'];[0.5400097000001551];272.6872849000001;None;;;;;;;;Emoconpilot041;2022_Jan_07_1307;BackwardMask;2020.2.8;119.90393296848843;
;f;028_y_f_n_a.jpg;neutral;8;21;f;021_o_f_n_a.jpg;neutral;congruent;8;match;;140;170;;3;220;block1_Pilot_2;28;n_n;n_n_weak;;;;;0;0;0;0;0;33;33;33;;;;;;;;;275.6877411000005;None;277.56686290000016;277.8635886000002;277.8635886000002;277.8881505999998;277.8881505999998;277.9289233999998;277.9289233999998;None;8;1;277.9289233999998;None;279.42905690000043;None;['7'];[0.8063328999996884];279.42905690000043;None;1.0103139000002557;;;;;;;Emoconpilot041;2022_Jan_07_1307;BackwardMask;2020.2.8;119.90393296848843;
;f;040_y_f_h_a.jpg;happy;9;33;m;033_o_m_s_a.jpg;sad;incongruent;7;mismatch;;120;160;;2;194;block1_Pilot_2;40;h_s;h_s_weak;;;;;0;0;0;0;0;34;34;34;;;;;;;;;282.42995859999974;None;284.0538214999997;284.3467701999998;284.3467701999998;284.36316890000035;284.36316890000035;284.4040667999998;284.4040667999998;None;9;0;284.4040667999998;None;285.90396190000047;None;['7'];[1.2752669999999853];285.90396190000047;None;1.327166500000203;;;;;;;Emoconpilot041;2022_Jan_07_1307;BackwardMask;2020.2.8;119.90393296848843;
;f;028_y_f_h_a.jpg;happy;9;8;m;008_y_m_n_a.jpg;neutral;incongruent;8;mismatch;;120;170;;3;162;block1_Pilot_2;28;h_n;h_n_weak;;;;;0;0;0;0;0;35;35;35;;;;;;;;;288.90482169999996;None;290.26670680000007;290.5550511000001;290.5550511000001;290.58003160000044;290.58003160000044;290.62090869999975;290.62090869999975;None;9;0;290.62090869999975;None;292.1208864;None;['7'];[1.2744305000005625];292.1208864;None;1.3023859999993874;;;;;;;Emoconpilot041;2022_Jan_07_1307;BackwardMask;2020.2.8;119.90393296848843;
;m;013_y_m_n_a.jpg;neutral;8;27;m;027_o_m_n_a.jpg;neutral;congruent;8;match;;140;170;;2;126;block1_Pilot_2;13;n_n;n_n_strong;;;;;0;0;0;0;0;36;36;36;;;;;;;;;295.12159820000034;None;296.2306411999998;296.52242920000026;296.52242920000026;296.53848070000004;296.53848070000004;296.57924790000015;296.57924790000015;None;8;1;296.57924790000015;None;298.07935929999985;None;['8'];[0.9878830999996353];298.07935929999985;None;1.4000286000000415;;;;;;;Emoconpilot041;2022_Jan_07_1307;BackwardMask;2020.2.8;119.90393296848843;
;f;028_y_f_s_a.jpg;sad;7;19;f;019_m_f_n_a.jpg;neutral;incongruent;8;match;;130;170;;2;156;block1_Pilot_2;28;s_n;s_n_strong;;;;;0;0;0;0;0;37;37;37;;;;;;;;;301.08031870000013;None;302.3924195999998;302.68889390000004;302.68889390000004;302.70509330000004;302.70509330000004;302.74611079999977;302.74611079999977;None;None;0;302.74611079999977;None;304.2460723000004;None;['9'];[0.6772121999993033];304.2460723000004;None;;;;;;;;Emoconpilot041;2022_Jan_07_1307;BackwardMask;2020.2.8;119.90393296848843;
;m;016_y_m_s_a.jpg;sad;7;19;f;019_m_f_n_a.jpg;neutral;incongruent;8;mismatch;;130;170;;3;138;block1_Pilot_2;16;s_n;s_n_weak;;;;;0;0;0;0;0;38;38;38;;;;;;;;;307.24702679999973;None;308.40602279999985;308.6973581000002;308.6973581000002;308.7219567000002;308.7219567000002;308.76282270000047;308.76282270000047;None;None;0;308.76282270000047;None;310.2628870999997;None;"['9', '9']";"[0.14845659999991767, 1.756410799999685]";310.2628870999997;None;;;;;;;;Emoconpilot041;2022_Jan_07_1307;BackwardMask;2020.2.8;119.90393296848843;
;m;033_o_m_s_a.jpg;sad;7;27;m;027_o_m_n_a.jpg;neutral;incongruent;8;match;;130;170;;3;120;block1_Pilot_2;33;s_n;s_n_strong;;;;;0;0;0;0;0;39;39;39;;;;;;;;;313.2643571999997;None;314.27089010000054;314.56397769999967;314.56397769999967;314.58878619999996;314.58878619999996;314.62965110000005;314.62965110000005;None;None;0;314.62965110000005;None;316.1296972;None;['9'];[0.7774753999992754];316.1296972;None;;;;;;;;Emoconpilot041;2022_Jan_07_1307;BackwardMask;2020.2.8;119.90393296848843;
;f;040_y_f_s_a.jpg;sad;7;33;m;033_o_m_n_a.jpg;neutral;incongruent;8;mismatch;;130;170;;1;238;block1_Pilot_2;40;s_n;s_n_weak;;;;;0;0;0;0;0;40;40;40;;;;;;;;;319.1307574000002;None;321.1217151000001;321.41419490000044;321.41419490000044;321.42213450000054;321.42213450000054;321.46314129999973;321.46314129999973;None;None;0;321.46314129999973;None;322.96307760000036;None;['9'];[0.8481512999996994];322.96307760000036;None;;;;;;;;Emoconpilot041;2022_Jan_07_1307;BackwardMask;2020.2.8;119.90393296848843;
;f;021_o_f_n_a.jpg;neutral;8;19;f;019_m_f_s_a.jpg;sad;incongruent;7;match;;140;160;;1;238;block1_Pilot_2;21;n_s;n_s_strong;;;;;0;0;0;0;0;41;41;41;;;;;;;;;325.9632862999997;None;327.9966341999998;328.28963639999984;328.28963639999984;328.2973000000002;328.2973000000002;328.3382188000005;328.3382188000005;None;None;0;328.3382188000005;None;329.83837219999987;None;['9'];[0.4608014000004914];329.83837219999987;None;;;;;;;;Emoconpilot041;2022_Jan_07_1307;BackwardMask;2020.2.8;119.90393296848843;
;m;033_o_m_h_a.jpg;happy;9;27;m;027_o_m_h_a.jpg;happy;congruent;9;match;;120;150;;3;134;block1_Pilot_2;33;h_h;h_h_weak;;;;;0;0;0;0;0;42;42;42;;;;;;;;;332.8383695000002;None;333.9650198999998;334.2561959000004;334.2561959000004;334.28098880000016;334.28098880000016;334.3216795999997;334.3216795999997;None;9;1;334.3216795999997;None;335.82195969999975;None;['7'];[0.7733321999994587];335.82195969999975;None;1.033664399999907;;;;;;;Emoconpilot041;2022_Jan_07_1307;BackwardMask;2020.2.8;119.90393296848843;
;f;040_y_f_s_a.jpg;sad;7;4;m;004_o_m_h_a.jpg;happy;incongruent;9;mismatch;;130;150;;2;225;block1_Pilot_2;40;s_h;s_h_strong;;;;;0;0;0;0;0;43;43;43;;;;;;;;;338.8224811;None;340.7059011000001;340.99779880000006;340.99779880000006;341.0145603000001;341.0145603000001;341.05510010000035;341.05510010000035;None;None;0;341.05510010000035;None;342.5552631999999;None;"['9', '9']";"[0.2641533000005438, 1.5519931999997425]";342.5552631999999;None;;;;;;;;Emoconpilot041;2022_Jan_07_1307;BackwardMask;2020.2.8;119.90393296848843;
;m;027_o_m_s_a.jpg;sad;7;21;f;021_o_f_n_a.jpg;neutral;incongruent;8;mismatch;;130;170;;18;238;block1_Pilot_2;27;s_n;s_n_weak;;;;;0;0;0;0;0;44;44;44;;;;;;;;;345.55602439999984;None;347.54641249999986;347.83971610000026;347.83971610000026;347.98944630000005;347.98944630000005;348.03043030000026;348.03043030000026;None;7;0;348.03043030000026;None;349.5303825000001;None;['7'];[0.7769361000000572];349.5303825000001;None;1.0288687000002028;;;;;;;Emoconpilot041;2022_Jan_07_1307;BackwardMask;2020.2.8;119.90393296848843;
;m;016_y_m_h_a.jpg;happy;9;16;m;016_y_m_n_a.jpg;neutral;incongruent;8;match;;120;170;;3;202;block1_Pilot_2;16;h_n;h_n_weak;;;;;0;0;0;0;0;45;45;45;;;;;;;;;352.5304262999998;None;354.2227499999999;354.5147803;354.5147803;354.53979210000034;354.53979210000034;354.5803920999997;354.5803920999997;None;9;0;354.5803920999997;None;356.0804143000005;None;['7'];[0.4028973999993468];356.0804143000005;None;1.0629236000004312;;;;;;;Emoconpilot041;2022_Jan_07_1307;BackwardMask;2020.2.8;119.90393296848843;
;m;033_o_m_h_a.jpg;happy;9;13;m;013_y_m_n_a.jpg;neutral;incongruent;8;match;;120;170;;2;150;block1_Pilot_2;33;h_n;h_n_weak;;;;;0;0;0;0;0;46;46;46;;;;;;;;;359.0807586000001;None;360.33792919999996;360.63156530000015;360.63156530000015;360.6480343000003;360.6480343000003;360.68885409999984;360.68885409999984;None;9;0;360.68885409999984;None;362.18883840000035;None;['7'];[0.5344654000000446];362.18883840000035;None;0.9302761999997529;;;;;;;Emoconpilot041;2022_Jan_07_1307;BackwardMask;2020.2.8;119.90393296848843;
;f;012_o_f_n_a.jpg;neutral;8;16;m;016_y_m_n_a.jpg;neutral;congruent;8;mismatch;;140;170;;1;238;block1_Pilot_2;12;n_n;n_n_strong;;;;;0;0;0;0;0;47;47;47;;;;;;;;;365.1892595999998;None;367.21693099999993;367.50725669999974;367.50725669999974;367.51484189999974;367.51484189999974;367.5556922000005;367.5556922000005;None;None;0;367.5556922000005;None;369.0556693999997;None;['9'];[0.3396362000003137];369.0556693999997;None;;;;;;;;Emoconpilot041;2022_Jan_07_1307;BackwardMask;2020.2.8;119.90393296848843;
;f;040_y_f_n_a.jpg;neutral;8;30;f;030_o_f_h_a.jpg;happy;incongruent;9;match;;140;150;;2;194;block1_Pilot_2;40;n_h;n_h_strong;;;;;0;0;0;0;0;48;48;48;;;;;;;;;372.0558565000001;None;373.69388660000004;373.99072929999966;373.99072929999966;374.0066582999998;374.0066582999998;374.0475428;374.0475428;None;None;0;374.0475428;None;375.54766219999965;None;"['9', '9']";"[0.11143439999978, 2.0555129000003944]";375.54766219999965;None;;;;;;;;Emoconpilot041;2022_Jan_07_1307;BackwardMask;2020.2.8;119.90393296848843;
;m;013_y_m_n_a.jpg;neutral;8;12;f;012_o_f_s_a.jpg;sad;incongruent;7;mismatch;;140;160;;18;238;block1_Pilot_2;13;n_s;n_s_weak;;;;;0;0;0;0;0;49;49;49;;;;;;;;;378.54759269999977;None;380.55083149999973;380.8408065000003;380.8408065000003;380.9901623000005;380.9901623000005;381.0310973000005;381.0310973000005;None;7;1;381.0310973000005;None;382.5310945000001;None;['7'];[1.2241584000003058];382.5310945000001;None;1.1962846999995236;;;;;;;Emoconpilot041;2022_Jan_07_1307;BackwardMask;2020.2.8;119.90393296848843;
;f;012_o_f_h_a.jpg;happy;9;12;f;012_o_f_n_a.jpg;neutral;incongruent;8;match;;120;170;;2;125;block1_Pilot_2;12;h_n;h_n_strong;;;;;0;0;0;0;0;50;50;50;;;;;;;;;385.5319793999997;None;386.5807100000002;386.8740264999997;386.8740264999997;386.89033780000045;386.89033780000045;386.9310224000001;386.9310224000001;None;9;0;386.9310224000001;None;388.4312256000003;None;['7'];[0.291883400000188];388.4312256000003;None;0.8321490999996968;;;;;;;Emoconpilot041;2022_Jan_07_1307;BackwardMask;2020.2.8;119.90393296848843;
;m;008_y_m_s_a.jpg;sad;7;19;f;019_m_f_s_a.jpg;sad;congruent;7;mismatch;;130;160;;2;202;block1_Pilot_2;8;s_s;s_s_strong;;;;;0;0;0;0;0;51;51;51;;;;;;;;;391.4323526999997;None;393.1482119000002;393.44101539999974;393.44101539999974;393.4570033;393.4570033;393.4980320000004;393.4980320000004;None;None;0;393.4980320000004;None;394.9989243;None;"['7', '7']";"[0.028268799999750627, 0.6603906999998799]";394.9989243;None;;;;;;;;Emoconpilot041;2022_Jan_07_1307;BackwardMask;2020.2.8;119.90393296848843;
;f;028_y_f_n_a.jpg;neutral;8;12;f;012_o_f_n_a.jpg;neutral;congruent;8;match;;140;170;;2;214;block1_Pilot_2;28;n_n;n_n_strong;;;;;0;0;0;0;0;52;52;52;;;;;;;;;397.9980341999999;None;399.80584700000054;400.09925529999964;400.09925529999964;400.1151912000005;400.1151912000005;400.1559616000004;400.1559616000004;None;8;1;400.1559616000004;None;401.6561161999998;None;['7'];[0.8910932000007961];401.6561161999998;None;1.1272423000000344;;;;;;;Emoconpilot041;2022_Jan_07_1307;BackwardMask;2020.2.8;119.90393296848843;
;m;027_o_m_h_a.jpg;happy;9;19;f;019_m_f_h_a.jpg;happy;congruent;9;mismatch;;120;150;;3;165;block1_Pilot_2;27;h_h;h_h_strong;;;;;0;0;0;0;0;53;53;53;;;;;;;;;404.65631140000005;None;406.05285449999974;406.35035549999975;406.35035549999975;406.3740822999998;406.3740822999998;406.41468280000026;406.41468280000026;None;9;1;406.41468280000026;None;407.91489770000044;None;['7'];[0.2803854000003412];407.91489770000044;None;0.8124119999993127;;;;;;;Emoconpilot041;2022_Jan_07_1307;BackwardMask;2020.2.8;119.90393296848843;
;m;008_y_m_s_a.jpg;sad;7;13;m;013_y_m_h_a.jpg;happy;incongruent;9;match;;130;150;;18;200;block1_Pilot_2;8;s_h;s_h_strong;;;;;0;0;0;0;0;54;54;54;;;;;;;;;410.9151354000005;None;412.6051741000001;412.8997853000001;412.8997853000001;413.04918090000047;413.04918090000047;413.09005979999984;413.09005979999984;None;7;0;413.09005979999984;None;414.5900266999997;None;['7'];[0.26132830000005924];414.5900266999997;None;0.9611977999993542;;;;;;;Emoconpilot041;2022_Jan_07_1307;BackwardMask;2020.2.8;119.90393296848843;
;f;030_o_f_n_a.jpg;neutral;8;28;f;028_y_f_s_a.jpg;sad;incongruent;7;match;;140;160;;18;238;block1_Pilot_2;30;n_s;n_s_weak;;;;;0;0;0;0;0;55;55;55;;;;;;;;;417.59011759999976;None;419.5948625000001;419.8915036999997;419.8915036999997;420.04074180000043;420.04074180000043;420.08189570000013;420.08189570000013;None;8;0;420.08189570000013;None;421.58203649999996;None;['7'];[0.5571552999999767];421.58203649999996;None;1.3612692999995488;;;;;;;Emoconpilot041;2022_Jan_07_1307;BackwardMask;2020.2.8;119.90393296848843;
;f;019_m_f_h_a.jpg;happy;9;27;m;027_o_m_h_a.jpg;happy;congruent;9;mismatch;;120;150;;1;238;block1_Pilot_2;19;h_h;h_h_strong;;;;;0;0;0;0;0;56;56;56;;;;;;;;;424.58269240000027;None;426.5730110000004;426.86632830000053;426.86632830000053;426.87445620000017;426.87445620000017;426.91534130000036;426.91534130000036;None;None;0;426.91534130000036;None;428.4154645999997;None;['9'];[0.3158417999993617];428.4154645999997;None;;;;;;;;Emoconpilot041;2022_Jan_07_1307;BackwardMask;2020.2.8;119.90393296848843;
;m;004_o_m_s_a.jpg;sad;7;4;m;004_o_m_h_a.jpg;happy;incongruent;9;match;;130;150;;18;155;block1_Pilot_2;4;s_h;s_h_weak;;;;;0;0;0;0;0;57;57;57;;;;;;;;;431.4164737000001;None;432.71526259999973;433.00820360000034;433.00820360000034;433.1578337000001;433.1578337000001;433.1987405;433.1987405;None;7;0;433.1987405;None;434.69846060000054;None;['7'];[0.25684929999988526];434.69846060000054;None;1.0043328000001566;;;;;;;Emoconpilot041;2022_Jan_07_1307;BackwardMask;2020.2.8;119.90393296848843;
;f;021_o_f_s_a.jpg;sad;7;27;m;027_o_m_n_a.jpg;neutral;incongruent;8;mismatch;;130;170;;3;224;block1_Pilot_2;21;s_n;s_n_weak;;;;;0;0;0;0;0;58;58;58;;;;;;;;;437.69999089999965;None;439.57335930000045;439.86654030000045;439.86654030000045;439.8913570000004;439.8913570000004;439.9322242999997;439.9322242999997;None;None;0;439.9322242999997;None;441.4322288000003;None;['9'];[1.0028332000001683];441.4322288000003;None;;;;;;;;Emoconpilot041;2022_Jan_07_1307;BackwardMask;2020.2.8;119.90393296848843;
;f;021_o_f_h_a.jpg;happy;9;27;m;027_o_m_n_a.jpg;neutral;incongruent;8;mismatch;;120;170;;2;147;block1_Pilot_2;21;h_n;h_n_strong;;;;;0;0;0;0;0;59;59;59;;;;;;;;;444.4331481999998;None;445.74461770000016;446.0339165000005;446.0339165000005;446.0499001999997;446.0499001999997;446.09059810000053;446.09059810000053;None;9;0;446.09059810000053;None;447.5909523999999;None;['7'];[0.7001388999997289];447.5909523999999;None;1.048698399999921;;;;;;;Emoconpilot041;2022_Jan_07_1307;BackwardMask;2020.2.8;119.90393296848843;
;f;040_y_f_n_a.jpg;neutral;8;13;m;013_y_m_h_a.jpg;happy;incongruent;9;mismatch;;140;150;;3;237;block1_Pilot_2;40;n_h;n_h_strong;;;;;0;0;0;0;0;60;60;60;;;;;;;;;450.5914537999997;None;452.5872793999997;452.8836473000001;452.8836473000001;452.9082790000002;452.9082790000002;452.9491528999997;452.9491528999997;None;8;0;452.9491528999997;None;454.4492253999997;None;['7'];[0.2820787000000564];454.4492253999997;None;0.7340754999995625;;;;;;;Emoconpilot041;2022_Jan_07_1307;BackwardMask;2020.2.8;119.90393296848843;
;m;027_o_m_n_a.jpg;neutral;8;19;f;019_m_f_h_a.jpg;happy;incongruent;9;mismatch;;140;150;;3;199;block1_Pilot_2;27;n_h;n_h_strong;;;;;0;0;0;0;0;61;61;61;;;;;;;;;457.4500456000005;None;459.1280575999999;459.4173593000005;459.4173593000005;459.4416781;459.4416781;459.48262780000005;459.48262780000005;None;8;0;459.48262780000005;None;460.98286890000054;None;['7'];[1.252466199999617];460.98286890000054;None;1.3766533999996682;;;;;;;Emoconpilot041;2022_Jan_07_1307;BackwardMask;2020.2.8;119.90393296848843;
;m;027_o_m_h_a.jpg;happy;9;21;f;021_o_f_s_a.jpg;sad;incongruent;7;mismatch;;120;160;;2;169;block1_Pilot_2;27;h_s;h_s_strong;;;;;0;0;0;0;0;62;62;62;;;;;;;;;463.9828748;None;465.4379982999999;465.7342748000001;465.7342748000001;465.75023899999997;465.75023899999997;465.7915198999999;465.7915198999999;None;9;0;465.7915198999999;None;467.29125139999996;None;['7'];[0.5040050000006886];467.29125139999996;None;0.9076181000000361;;;;;;;Emoconpilot041;2022_Jan_07_1307;BackwardMask;2020.2.8;119.90393296848843;
;m;013_y_m_n_a.jpg;neutral;8;33;m;033_o_m_h_a.jpg;happy;incongruent;9;match;;140;150;;18;238;block1_Pilot_2;13;n_h;n_h_strong;;;;;0;0;0;0;0;63;63;63;;;;;;;;;470.2915254999998;None;472.29665790000035;472.5925379999999;472.5925379999999;472.7419090000003;472.7419090000003;472.78282769999987;472.78282769999987;None;8;0;472.78282769999987;None;474.28303529999994;None;['7'];[0.5282299999998941];474.28303529999994;None;0.7244361000002755;;;;;;;Emoconpilot041;2022_Jan_07_1307;BackwardMask;2020.2.8;119.90393296848843;
;m;033_o_m_n_a.jpg;neutral;8;30;f;030_o_f_s_a.jpg;sad;incongruent;7;mismatch;;140;160;;1;238;block1_Pilot_2;33;n_s;n_s_weak;;;;;0;0;0;0;0;64;64;64;;;;;;;;;477.28379140000015;None;479.2851989999999;479.57608750000054;479.57608750000054;479.58386260000043;479.58386260000043;479.6247537999998;479.6247537999998;None;None;0;479.6247537999998;None;481.12490499999967;None;['9'];[0.32633089999944787];481.12490499999967;None;;;;;;;;Emoconpilot041;2022_Jan_07_1307;BackwardMask;2020.2.8;119.90393296848843;
;m;033_o_m_s_a.jpg;sad;7;4;m;004_o_m_s_a.jpg;sad;congruent;7;match;;130;160;;18;146;block1_Pilot_2;33;s_s;s_s_weak;;;;;0;0;0;0;0;65;65;65;;;;;;;;;484.1248757000003;None;485.3562197000001;485.65080990000024;485.65080990000024;485.8004636000005;485.8004636000005;485.84155009999995;485.84155009999995;None;8;0;485.84155009999995;None;487.3415775000003;None;['7'];[0.5655840999997963];487.3415775000003;None;1.0175896000000648;;;;;;;Emoconpilot041;2022_Jan_07_1307;BackwardMask;2020.2.8;119.90393296848843;
;m;016_y_m_s_a.jpg;sad;7;28;f;028_y_f_h_a.jpg;happy;incongruent;9;mismatch;;130;150;;18;238;block1_Pilot_2;16;s_h;s_h_strong;;;;;0;0;0;0;0;66;66;66;;;;;;;;;490.3425116999997;None;492.3328541000001;492.6257164999997;492.6257164999997;492.77572820000023;492.77572820000023;492.8166836999999;492.8166836999999;None;7;0;492.8166836999999;None;494.3167566000002;None;['7'];[0.3984165000001667];494.3167566000002;None;1.1383946999994805;;;;;;;Emoconpilot041;2022_Jan_07_1307;BackwardMask;2020.2.8;119.90393296848843;
;f;030_o_f_h_a.jpg;happy;9;28;f;028_y_f_h_a.jpg;happy;congruent;9;match;;120;150;;3;234;block1_Pilot_2;30;h_h;h_h_weak;;;;;0;0;0;0;0;67;67;67;;;;;;;;;497.31645430000026;None;499.3176358999999;499.6097625000002;499.6097625000002;499.63416830000006;499.63416830000006;499.6749955000005;499.6749955000005;None;9;1;499.6749955000005;None;501.1751669000005;None;['7'];[0.2759442999995372];501.1751669000005;None;0.912125300000298;;;;;;;Emoconpilot041;2022_Jan_07_1307;BackwardMask;2020.2.8;119.90393296848843;
;m;013_y_m_h_a.jpg;happy;9;4;m;004_o_m_h_a.jpg;happy;congruent;9;match;;120;150;;2;141;block1_Pilot_2;13;h_h;h_h_strong;;;;;0;0;0;0;0;68;68;68;;;;;;;;;504.1755122000004;None;505.36937599999965;505.6598874000001;505.6598874000001;505.6758507000004;505.6758507000004;505.71687999999995;505.71687999999995;None;9;1;505.71687999999995;None;507.2172762;None;['7'];[0.305928099999619];507.2172762;None;0.8063124999998763;;;;;;;Emoconpilot041;2022_Jan_07_1307;BackwardMask;2020.2.8;119.90393296848843;
;f;028_y_f_s_a.jpg;sad;7;8;m;008_y_m_s_a.jpg;sad;congruent;7;mismatch;;130;160;;1;238;block1_Pilot_2;28;s_s;s_s_strong;;;;;0;0;0;0;0;69;69;69;;;;;;;;;510.21685549999984;None;512.2123004000005;512.5012519000002;512.5012519000002;512.5096598;512.5096598;512.5503793999997;512.5503793999997;None;None;0;512.5503793999997;None;514.0506223000002;None;['9'];[0.28862520000075165];514.0506223000002;None;;;;;;;;Emoconpilot041;2022_Jan_07_1307;BackwardMask;2020.2.8;119.90393296848843;
;f;028_y_f_s_a.jpg;sad;7;30;f;030_o_f_h_a.jpg;happy;incongruent;9;match;;130;150;;2;199;block1_Pilot_2;28;s_h;s_h_weak;;;;;0;0;0;0;0;70;70;70;;;;;;;;;517.0504003000005;None;518.7185384000004;519.0098397000002;519.0098397000002;519.0264926;519.0264926;519.0671755000003;519.0671755000003;None;8;0;519.0671755000003;None;520.567223;None;['8'];[0.4599623000003703];520.567223;None;1.0160470999999234;;;;;;;Emoconpilot041;2022_Jan_07_1307;BackwardMask;2020.2.8;119.90393296848843;
;m;008_y_m_h_a.jpg;happy;9;21;f;021_o_f_n_a.jpg;neutral;incongruent;8;mismatch;;120;170;;2;137;block1_Pilot_2;8;h_n;h_n_weak;;;;;0;0;0;0;0;71;71;71;;;;;;;;;523.5674939999999;None;524.7177274000005;525.0098754999999;525.0098754999999;525.0263229000002;525.0263229000002;525.0673569999999;525.0673569999999;None;9;0;525.0673569999999;None;526.5673438000003;None;['7'];[0.4358865000003789];526.5673438000003;None;0.8878178000004482;;;;;;;Emoconpilot041;2022_Jan_07_1307;BackwardMask;2020.2.8;119.90393296848843;
;f;012_o_f_n_a.jpg;neutral;8;8;m;008_y_m_s_a.jpg;sad;incongruent;7;mismatch;;140;160;;2;208;block1_Pilot_2;12;n_s;n_s_weak;;;;;0;0;0;0;0;72;72;72;;;;;;;;;529.5678644999998;None;531.3312507;531.6271642000002;531.6271642000002;531.6432887000001;531.6432887000001;531.6840933000003;531.6840933000003;None;8;0;531.6840933000003;None;533.1845727;None;['8'];[0.8587232999998378];533.1845727;None;0.9031591000002663;;;;;;;Emoconpilot041;2022_Jan_07_1307;BackwardMask;2020.2.8;119.90393296848843;
;m;016_y_m_n_a.jpg;neutral;8;8;m;008_y_m_n_a.jpg;neutral;congruent;8;match;;140;170;;3;211;block1_Pilot_2;16;n_n;n_n_strong;;;;;0;0;0;0;0;73;73;73;;;;;;;;;536.1852498999997;None;537.9619226000004;538.2522398000001;538.2522398000001;538.2767046999998;538.2767046999998;538.3173624000001;538.3173624000001;None;8;1;538.3173624000001;None;539.8176161000001;None;['7'];[0.3213900000000649];539.8176161000001;None;0.8376750999996148;;;;;;;Emoconpilot041;2022_Jan_07_1307;BackwardMask;2020.2.8;119.90393296848843;
;m;016_y_m_h_a.jpg;happy;9;13;m;013_y_m_s_a.jpg;sad;incongruent;7;match;;120;160;;3;138;block1_Pilot_2;16;h_s;h_s_weak;;;;;0;0;0;0;0;74;74;74;;;;;;;;;542.8186943999999;None;543.9756692999999;544.2685745999997;544.2685745999997;544.2932143999997;544.2932143999997;544.3344439000002;544.3344439000002;None;9;0;544.3344439000002;None;545.8340852000001;None;['7'];[0.28905220000069676];545.8340852000001;None;0.7966147000006458;;;;;;;Emoconpilot041;2022_Jan_07_1307;BackwardMask;2020.2.8;119.90393296848843;
;m;016_y_m_n_a.jpg;neutral;8;19;f;019_m_f_s_a.jpg;sad;incongruent;7;mismatch;;140;160;;2;185;block1_Pilot_2;16;n_s;n_s_strong;;;;;0;0;0;0;0;75;75;75;;;;;;;;;548.834734;None;550.4084202000004;550.7023506000005;550.7023506000005;550.7185073999999;550.7185073999999;550.7593492000005;550.7593492000005;None;8;0;550.7593492000005;None;552.2593406000005;None;['7'];[0.4078328999994483];552.2593406000005;None;0.9078230000004623;;;;;;;Emoconpilot041;2022_Jan_07_1307;BackwardMask;2020.2.8;119.90393296848843;
;m;027_o_m_s_a.jpg;sad;7;8;m;008_y_m_s_a.jpg;sad;congruent;7;match;;130;160;;1;238;block1_Pilot_2;27;s_s;s_s_strong;;;;;0;0;0;0;0;76;76;76;;;;;;;;;555.2596538999996;None;557.2508554000005;557.5439547000005;557.5439547000005;557.5521408000004;557.5521408000004;557.5928994000005;557.5928994000005;None;None;0;557.5928994000005;None;559.0929021000002;None;['9'];[0.25411609999991924];559.0929021000002;None;;;;;;;;Emoconpilot041;2022_Jan_07_1307;BackwardMask;2020.2.8;119.90393296848843;
;f;019_m_f_n_a.jpg;neutral;8;27;m;027_o_m_n_a.jpg;neutral;congruent;8;mismatch;;140;170;;3;186;block1_Pilot_2;19;n_n;n_n_strong;;;;;0;0;0;0;0;77;77;77;;;;;;;;;562.0930484;None;563.6643805000003;563.9610423000004;563.9610423000004;563.9855779;563.9855779;564.0264219999999;564.0264219999999;None;8;1;564.0264219999999;None;565.5265422000002;None;['7'];[0.2766719999999623];565.5265422000002;None;0.7368321000003561;;;;;;;Emoconpilot041;2022_Jan_07_1307;BackwardMask;2020.2.8;119.90393296848843;
;m;004_o_m_s_a.jpg;sad;7;12;f;012_o_f_s_a.jpg;sad;congruent;7;mismatch;;130;160;;1;238;block1_Pilot_2;4;s_s;s_s_strong;;;;;0;0;0;0;0;78;78;78;;;;;;;;;568.5268750000005;None;570.5174880000004;570.8111183999999;570.8111183999999;570.8189945000004;570.8189945000004;570.8599116000005;570.8599116000005;None;None;0;570.8599116000005;None;572.3602321999997;None;['9'];[0.2429719000001569];572.3602321999997;None;;;;;;;;Emoconpilot041;2022_Jan_07_1307;BackwardMask;2020.2.8;119.90393296848843;
;f;019_m_f_n_a.jpg;neutral;8;13;m;013_y_m_s_a.jpg;sad;incongruent;7;mismatch;;140;160;;3;207;block1_Pilot_2;19;n_s;n_s_strong;;;;;0;0;0;0;0;79;79;79;;;;;;;;;575.3604418000004;None;577.1147099999998;577.4112526999997;577.4112526999997;577.4357590999998;577.4357590999998;577.4766102000003;577.4766102000003;None;8;0;577.4766102000003;None;578.9768425000002;None;['7'];[0.5381650999997873];578.9768425000002;None;0.9105805999997756;;;;;;;Emoconpilot041;2022_Jan_07_1307;BackwardMask;2020.2.8;119.90393296848843;
;m;027_o_m_h_a.jpg;happy;9;33;m;033_o_m_h_a.jpg;happy;congruent;9;match;;120;150;;1;238;block1_Pilot_2;27;h_h;h_h_strong;;;;;0;0;0;0;0;80;80;80;;;;;;;;;581.9767401999998;None;583.9785090000005;584.2698188000004;584.2698188000004;584.2774636000004;584.2774636000004;584.3185458999997;584.3185458999997;None;None;0;584.3185458999997;None;585.8184443;None;['9'];[0.29656819999945583];585.8184443;None;;;;;;;;Emoconpilot041;2022_Jan_07_1307;BackwardMask;2020.2.8;119.90393296848843;
;m;027_o_m_h_a.jpg;happy;9;21;f;021_o_f_s_a.jpg;sad;incongruent;7;mismatch;;120;160;;1;238;block1_Pilot_2;27;h_s;h_s_weak;;;;;0;0;0;0;0;81;81;81;;;;;;;;;588.8187065000002;None;590.8359748000003;591.1281925000003;591.1281925000003;591.1360448000005;591.1360448000005;591.1769495999997;591.1769495999997;None;None;0;591.1769495999997;None;592.6768941999999;None;['9'];[0.3101808000001256];592.6768941999999;None;;;;;;;;Emoconpilot041;2022_Jan_07_1307;BackwardMask;2020.2.8;119.90393296848843;
;m;033_o_m_s_a.jpg;sad;7;40;f;040_y_f_n_a.jpg;neutral;incongruent;8;mismatch;;130;170;;3;146;block1_Pilot_2;33;s_n;s_n_weak;;;;;0;0;0;0;0;82;82;82;;;;;;;;;595.6770027000002;None;596.9015940999998;597.1945780000005;597.1945780000005;597.2195806999998;597.2195806999998;597.2604905999997;597.2604905999997;None;8;1;597.2604905999997;None;598.7604754000004;None;['7'];[0.6667199000003166];598.7604754000004;None;1.0866627999994307;;;;;;;Emoconpilot041;2022_Jan_07_1307;BackwardMask;2020.2.8;119.90393296848843;
;m;008_y_m_h_a.jpg;happy;9;4;m;004_o_m_s_a.jpg;sad;incongruent;7;match;;120;160;;2;225;block1_Pilot_2;8;h_s;h_s_weak;;;;;0;0;0;0;0;83;83;83;;;;;;;;;601.7604473000001;None;603.6438018999997;603.9363842000002;603.9363842000002;603.9529454000003;603.9529454000003;603.9939317999997;603.9939317999997;None;9;0;603.9939317999997;None;605.4939512999999;None;['7'];[0.36522119999972347];605.4939512999999;None;0.9531290000004446;;;;;;;Emoconpilot041;2022_Jan_07_1307;BackwardMask;2020.2.8;119.90393296848843;
;f;012_o_f_n_a.jpg;neutral;8;4;m;004_o_m_s_a.jpg;sad;incongruent;7;mismatch;;140;160;;3;150;block1_Pilot_2;12;n_s;n_s_strong;;;;;0;0;0;0;0;84;84;84;;;;;;;;;608.4949618999999;None;609.7751229000005;610.0703512;610.0703512;610.0948692000002;610.0948692000002;610.1355630999997;610.1355630999997;None;8;0;610.1355630999997;None;611.6360261;None;['7'];[0.5592102999999042];611.6360261;None;0.8674369000000297;;;;;;;Emoconpilot041;2022_Jan_07_1307;BackwardMask;2020.2.8;119.90393296848843;
;f;021_o_f_s_a.jpg;sad;7;40;f;040_y_f_n_a.jpg;neutral;incongruent;8;match;;130;170;;2;156;block1_Pilot_2;21;s_n;s_n_strong;;;;;0;0;0;0;0;85;85;85;;;;;;;;;614.6372237000005;None;615.9420000999999;616.2366309999998;616.2366309999998;616.2532553000001;616.2532553000001;616.2942279999997;616.2942279999997;None;None;0;616.2942279999997;None;617.7941972999997;None;"['9', '8']";"[0.160831700000017, 0.7050258999997823]";617.7941972999997;None;;;;;;;;Emoconpilot041;2022_Jan_07_1307;BackwardMask;2020.2.8;119.90393296848843;
;m;004_o_m_n_a.jpg;neutral;8;13;m;013_y_m_n_a.jpg;neutral;congruent;8;match;;140;170;;2;225;block1_Pilot_2;4;n_n;n_n_strong;;;;;0;0;0;0;0;86;86;86;;;;;;;;;620.7942456999999;None;622.7003811000004;622.9956951000004;622.9956951000004;623.0117080999999;623.0117080999999;623.0524271000004;623.0524271000004;None;None;0;623.0524271000004;None;624.5526574000005;None;"['8', '9']";"[0.06647919999977603, 1.0826115999998365]";624.5526574000005;None;;;;;;;;Emoconpilot041;2022_Jan_07_1307;BackwardMask;2020.2.8;119.90393296848843;
;m;016_y_m_n_a.jpg;neutral;8;16;m;016_y_m_h_a.jpg;happy;incongruent;9;match;;140;150;;18;193;block1_Pilot_2;16;n_h;n_h_strong;;;;;0;0;0;0;0;87;87;87;;;;;;;;;627.5534792999997;None;629.1800585000001;629.4705715999999;629.4705715999999;629.6201499999997;629.6201499999997;629.6609967000004;629.6609967000004;None;8;0;629.6609967000004;None;631.1610798000002;None;['7'];[0.9700839000006454];631.1610798000002;None;1.0461891999993895;;;;;;;Emoconpilot041;2022_Jan_07_1307;BackwardMask;2020.2.8;119.90393296848843;
;m;033_o_m_h_a.jpg;happy;9;4;m;004_o_m_h_a.jpg;happy;congruent;9;match;;120;150;;2;195;block1_Pilot_2;33;h_h;h_h_strong;;;;;0;0;0;0;0;88;88;88;;;;;;;;;634.1633619000004;None;635.7943839;636.0870258000004;636.0870258000004;636.1035683999999;636.1035683999999;636.1445524999999;636.1445524999999;None;9;1;636.1445524999999;None;637.6446420000002;None;['7'];[0.3105325000005905];637.6446420000002;None;0.8665633999999045;;;;;;;Emoconpilot041;2022_Jan_07_1307;BackwardMask;2020.2.8;119.90393296848843;
;m;027_o_m_h_a.jpg;happy;9;16;m;016_y_m_h_a.jpg;happy;congruent;9;match;;120;150;;3;209;block1_Pilot_2;27;h_h;h_h_weak;;;;;0;0;0;0;0;89;89;89;;;;;;;;;640.6447966000005;None;642.4070269000003;642.6959993;642.6959993;642.7203798;642.7203798;642.76163;642.76163;None;9;1;642.76163;None;644.2614271000002;None;['7'];[0.4137741000004098];644.2614271000002;None;1.0016076000001704;;;;;;;Emoconpilot041;2022_Jan_07_1307;BackwardMask;2020.2.8;119.90393296848843;
;m;033_o_m_s_a.jpg;sad;7;16;m;016_y_m_s_a.jpg;sad;congruent;7;match;;130;160;;3;128;block1_Pilot_2;33;s_s;s_s_strong;;;;;0;0;0;0;0;90;90;90;;;;;;;;;647.2615948000002;None;648.3357857000001;648.6289785999998;648.6289785999998;648.6538595000002;648.6538595000002;648.6946254000004;648.6946254000004;None;8;0;648.6946254000004;None;650.1946829999997;None;['7'];[0.3042876999998043];650.1946829999997;None;0.820549399999436;;;;;;;Emoconpilot041;2022_Jan_07_1307;BackwardMask;2020.2.8;119.90393296848843;
;f;021_o_f_s_a.jpg;sad;7;30;f;030_o_f_s_a.jpg;sad;congruent;7;match;;130;160;;1;238;block1_Pilot_2;21;s_s;s_s_strong;;;;;0;0;0;0;0;91;91;91;;;;;;;;;653.1952825999997;None;655.1842916000005;655.4793214000001;655.4793214000001;655.4870694000001;655.4870694000001;655.5283116;655.5283116;None;None;0;655.5283116;None;657.0281654999999;None;['9'];[1.0150817000003372];657.0281654999999;None;;;;;;;;Emoconpilot041;2022_Jan_07_1307;BackwardMask;2020.2.8;119.90393296848843;
;m;033_o_m_n_a.jpg;neutral;8;28;f;028_y_f_s_a.jpg;sad;incongruent;7;mismatch;;140;160;;18;166;block1_Pilot_2;33;n_s;n_s_strong;;;;;0;0;0;0;0;92;92;92;;;;;;;;;660.0293065000005;None;661.4483872000001;661.7382319999997;661.7382319999997;661.8874366;661.8874366;661.9284821000001;661.9284821000001;None;8;0;661.9284821000001;None;663.4299459000003;None;['7'];[0.9492024999999558];663.4299459000003;None;1.4426839999996446;;;;;;;Emoconpilot041;2022_Jan_07_1307;BackwardMask;2020.2.8;119.90393296848843;
;f;019_m_f_n_a.jpg;neutral;8;30;f;030_o_f_n_a.jpg;neutral;congruent;8;match;;140;170;;18;228;block1_Pilot_2;19;n_n;n_n_weak;;;;;0;0;0;0;0;93;93;93;;;;;;;;;666.4291197000002;None;668.3476804000002;668.6383543000002;668.6383543000002;668.7875906999998;668.7875906999998;668.8285109999997;668.8285109999997;None;8;1;668.8285109999997;None;670.3287196000001;None;['7'];[0.25840680000055727];670.3287196000001;None;0.5826513000001796;;;;;;;Emoconpilot041;2022_Jan_07_1307;BackwardMask;2020.2.8;119.90393296848843;
;m;008_y_m_s_a.jpg;sad;7;12;f;012_o_f_h_a.jpg;happy;incongruent;9;mismatch;;130;150;;3;130;block1_Pilot_2;8;s_h;s_h_weak;;;;;0;0;0;0;0;94;94;94;;;;;;;;;673.3293789999998;None;674.4309976000004;674.7216692000002;674.7216692000002;674.7459125000005;674.7459125000005;674.7868590999997;674.7868590999997;None;7;0;674.7868590999997;None;676.2869762999999;None;['7'];[0.3721523000003799];676.2869762999999;None;1.1123606000001018;;;;;;;Emoconpilot041;2022_Jan_07_1307;BackwardMask;2020.2.8;119.90393296848843;
;m;016_y_m_n_a.jpg;neutral;8;28;f;028_y_f_n_a.jpg;neutral;congruent;8;mismatch;;140;170;;18;189;block1_Pilot_2;16;n_n;n_n_strong;;;;;0;0;0;0;0;95;95;95;;;;;;;;;679.2886796000003;None;680.8812029999999;681.1717420000004;681.1717420000004;681.3211853000003;681.3211853000003;681.3621400000002;681.3621400000002;None;8;1;681.3621400000002;None;682.8622008000002;None;['7'];[0.22074770000017452];682.8622008000002;None;0.6490565999993123;;;;;;;Emoconpilot041;2022_Jan_07_1307;BackwardMask;2020.2.8;119.90393296848843;
;f;012_o_f_s_a.jpg;sad;7;16;m;016_y_m_h_a.jpg;happy;incongruent;9;mismatch;;130;150;;3;238;block1_Pilot_2;12;s_h;s_h_strong;;;;;0;0;0;0;0;96;96;96;;;;;;;;;685.8631336999997;None;687.8493293000001;688.1462890000003;688.1462890000003;688.1711459999997;688.1711459999997;688.2120993999997;688.2120993999997;None;9;1;688.2120993999997;None;689.7125947000004;None;['7'];[0.29056190000028437];689.7125947000004;None;0.8630651000003127;;;;;;;Emoconpilot041;2022_Jan_07_1307;BackwardMask;2020.2.8;119.90393296848843;
;m;013_y_m_h_a.jpg;happy;9;27;m;027_o_m_h_a.jpg;happy;congruent;9;match;;120;150;;18;238;block1_Pilot_2;13;h_h;h_h_strong;;;;;0;0;0;0;0;97;97;97;;;;;;;;;692.7124758999998;None;694.7159037000001;695.0053587000002;695.0053587000002;695.1547587000005;695.1547587000005;695.195667;695.195667;None;9;1;695.195667;None;696.6957407;None;['7'];[0.30733150000014575];696.6957407;None;0.9193228000003728;;;;;;;Emoconpilot041;2022_Jan_07_1307;BackwardMask;2020.2.8;119.90393296848843;
;m;016_y_m_s_a.jpg;sad;7;33;m;033_o_m_n_a.jpg;neutral;incongruent;8;match;;130;170;;1;238;block1_Pilot_2;16;s_n;s_n_weak;;;;;0;0;0;0;0;98;98;98;;;;;;;;;699.6965;None;701.6869912000002;701.9803182000005;701.9803182000005;701.9882408000003;701.9882408000003;702.0291470000002;702.0291470000002;None;None;0;702.0291470000002;None;703.5291954000004;None;['9'];[0.28187769999931334];703.5291954000004;None;;;;;;;;Emoconpilot041;2022_Jan_07_1307;BackwardMask;2020.2.8;119.90393296848843;
;m;008_y_m_n_a.jpg;neutral;8;30;f;030_o_f_n_a.jpg;neutral;congruent;8;mismatch;;140;170;;1;238;block1_Pilot_2;8;n_n;n_n_weak;;;;;0;0;0;0;0;99;99;99;;;;;;;;;706.5300798999997;None;708.5435223000004;708.8389272000004;708.8389272000004;708.8467489000004;708.8467489000004;708.8874802;708.8874802;None;None;0;708.8874802;None;710.3875821000001;None;"['9', '8', '9']";"[0.2715398999998797, 0.32759339999938675, 1.1033747999999832]";710.3875821000001;None;;;;;;;;Emoconpilot041;2022_Jan_07_1307;BackwardMask;2020.2.8;119.90393296848843;
;m;008_y_m_s_a.jpg;sad;7;30;f;030_o_f_s_a.jpg;sad;congruent;7;mismatch;;130;160;;2;133;block1_Pilot_2;8;s_s;s_s_weak;;;;;0;0;0;0;0;100;100;100;;;;;;;;;713.3880795000005;None;714.517366;714.8053854;714.8053854;714.8216534000003;714.8216534000003;714.8626460000005;714.8626460000005;None;7;1;714.8626460000005;None;716.3627089000001;None;['7'];[0.560497999999825];716.3627089000001;None;1.3804931999993642;;;;;;;Emoconpilot041;2022_Jan_07_1307;BackwardMask;2020.2.8;119.90393296848843;
;f;040_y_f_n_a.jpg;neutral;8;30;f;030_o_f_s_a.jpg;sad;incongruent;7;match;;140;160;;3;197;block1_Pilot_2;40;n_s;n_s_strong;;;;;0;0;0;0;0;101;101;101;;;;;;;;;719.3628748000001;None;721.0234538000004;721.3141575;721.3141575;721.3384085999996;721.3384085999996;721.3793957999997;721.3793957999997;None;8;0;721.3793957999997;None;722.8795564000002;None;['7'];[0.23568450000038865];722.8795564000002;None;0.7837054000001444;;;;;;;Emoconpilot041;2022_Jan_07_1307;BackwardMask;2020.2.8;119.90393296848843;
;m;004_o_m_h_a.jpg;happy;9;30;f;030_o_f_s_a.jpg;sad;incongruent;7;mismatch;;120;160;;3;121;block1_Pilot_2;4;h_s;h_s_strong;;;;;0;0;0;0;0;102;102;102;;;;;;;;;725.8796184000003;None;726.9081326000005;727.1977121999998;727.1977121999998;727.2221036000001;727.2221036000001;727.2630245;727.2630245;None;9;0;727.2630245;None;728.7630515000001;None;['7'];[0.2560935999999856];728.7630515000001;None;0.7879887000008239;;;;;;;Emoconpilot041;2022_Jan_07_1307;BackwardMask;2020.2.8;119.90393296848843;
;f;040_y_f_h_a.jpg;happy;9;8;m;008_y_m_h_a.jpg;happy;congruent;9;mismatch;;120;150;;18;211;block1_Pilot_2;40;h_h;h_h_weak;;;;;0;0;0;0;0;103;103;103;;;;;;;;;731.7635872000001;None;733.5295507999999;733.8225093000001;733.8225093000001;733.9722644000003;733.9722644000003;734.0130349000001;734.0130349000001;None;9;1;734.0130349000001;None;735.5132708000001;None;['7'];[0.31385950000003504];735.5132708000001;None;0.7660596999994596;;;;;;;Emoconpilot041;2022_Jan_07_1307;BackwardMask;2020.2.8;119.90393296848843;
;f;019_m_f_s_a.jpg;sad;7;16;m;016_y_m_n_a.jpg;neutral;incongruent;8;mismatch;;130;170;;2;198;block1_Pilot_2;19;s_n;s_n_strong;;;;;0;0;0;0;0;104;104;104;;;;;;;;;738.5140604999997;None;740.2010993000004;740.4895962;740.4895962;740.5057901;740.5057901;740.5465638000005;740.5465638000005;None;None;0;740.5465638000005;None;742.0465389999999;None;['9'];[0.34067830000003596];742.0465389999999;None;;;;;;;;Emoconpilot041;2022_Jan_07_1307;BackwardMask;2020.2.8;119.90393296848843;
;f;040_y_f_s_a.jpg;sad;7;12;f;012_o_f_s_a.jpg;sad;congruent;7;match;;130;160;;18;240;block1_Pilot_2;40;s_s;s_s_strong;;;;;0;0;0;0;0;105;105;105;;;;;;;;;745.0475426000003;None;747.0545945000003;747.3478089999999;747.3478089999999;747.4975440999997;747.4975440999997;747.5383861;747.5383861;None;7;1;747.5383861;None;749.0386494000004;None;['7'];[0.29246229999989737];749.0386494000004;None;1.0327229000004081;;;;;;;Emoconpilot041;2022_Jan_07_1307;BackwardMask;2020.2.8;119.90393296848843;
;f;040_y_f_n_a.jpg;neutral;8;33;m;033_o_m_s_a.jpg;sad;incongruent;7;mismatch;;140;160;;3;188;block1_Pilot_2;40;n_s;n_s_weak;;;;;0;0;0;0;0;106;106;106;;;;;;;;;752.0385194;None;753.6350764999997;753.9315078;753.9315078;753.9562311;753.9562311;753.996854;753.996854;None;8;0;753.996854;None;755.4977764000005;None;['7'];[0.3532127999997101];755.4977764000005;None;0.8461351999994804;;;;;;;Emoconpilot041;2022_Jan_07_1307;BackwardMask;2020.2.8;119.90393296848843;
;f;028_y_f_h_a.jpg;happy;9;21;f;021_o_f_s_a.jpg;sad;incongruent;7;match;;120;160;;3;193;block1_Pilot_2;28;h_s;h_s_strong;;;;;0;0;0;0;0;107;107;107;;;;;;;;;758.4978861999998;None;760.1158158999997;760.4064324000001;760.4064324000001;760.4311016000001;760.4311016000001;760.4719746000001;760.4719746000001;None;9;0;760.4719746000001;None;761.9722044;None;['7'];[0.25490499999978056];761.9722044;None;0.9711759000001621;;;;;;;Emoconpilot041;2022_Jan_07_1307;BackwardMask;2020.2.8;119.90393296848843;
;f;040_y_f_s_a.jpg;sad;7;13;m;013_y_m_n_a.jpg;neutral;incongruent;8;mismatch;;130;170;;2;198;block1_Pilot_2;40;s_n;s_n_strong;;;;;0;0;0;0;0;108;108;108;;;;;;;;;764.9725150000004;None;766.6300756999999;766.9229602000005;766.9229602000005;766.9395758999999;766.9395758999999;766.9807148999998;766.9807148999998;None;8;1;766.9807148999998;None;768.4808292999996;None;['7'];[0.4982897999998386];768.4808292999996;None;0.93436870000005;;;;;;;Emoconpilot041;2022_Jan_07_1307;BackwardMask;2020.2.8;119.90393296848843;
;f;030_o_f_n_a.jpg;neutral;8;33;m;033_o_m_s_a.jpg;sad;incongruent;7;mismatch;;140;160;;1;238;block1_Pilot_2;30;n_s;n_s_strong;;;;;0;0;0;0;0;109;109;109;;;;;;;;;771.4808309999999;None;773.4947542;773.7906279999997;773.7906279999997;773.7980585000005;773.7980585000005;773.8389173000005;773.8389173000005;None;None;0;773.8389173000005;None;775.3389125000003;None;['9'];[0.2881289000006291];775.3389125000003;None;;;;;;;;Emoconpilot041;2022_Jan_07_1307;BackwardMask;2020.2.8;119.90393296848843;
;f;021_o_f_h_a.jpg;happy;9;40;f;040_y_f_n_a.jpg;neutral;incongruent;8;match;;120;170;;2;125;block1_Pilot_2;21;h_n;h_n_weak;;;;;0;0;0;0;0;110;110;110;;;;;;;;;778.3391369999999;None;779.3993087999997;779.6904658000003;779.6904658000003;779.7065258000002;779.7065258000002;779.7473135;779.7473135;None;9;0;779.7473135;None;781.2474677;None;['7'];[0.643599500000164];781.2474677;None;0.9196452000005593;;;;;;;Emoconpilot041;2022_Jan_07_1307;BackwardMask;2020.2.8;119.90393296848843;
;f;021_o_f_h_a.jpg;happy;9;16;m;016_y_m_s_a.jpg;sad;incongruent;7;mismatch;;120;160;;1;238;block1_Pilot_2;21;h_s;h_s_strong;;;;;0;0;0;0;0;111;111;111;;;;;;;;;784.2482768999998;None;786.2505652999998;786.5406597000001;786.5406597000001;786.5483985999999;786.5483985999999;786.5891022000005;786.5891022000005;None;None;0;786.5891022000005;None;788.0892746999998;None;['9'];[0.2658417000002373];788.0892746999998;None;;;;;;;;Emoconpilot041;2022_Jan_07_1307;BackwardMask;2020.2.8;119.90393296848843;
;f;012_o_f_h_a.jpg;happy;9;8;m;008_y_m_s_a.jpg;sad;incongruent;7;mismatch;;120;160;;1;238;block1_Pilot_2;12;h_s;h_s_weak;;;;;0;0;0;0;0;112;112;112;;;;;;;;;791.0901117000003;None;793.0814289999998;793.3736008000005;793.3736008000005;793.3816030999997;793.3816030999997;793.4226202999998;793.4226202999998;None;None;0;793.4226202999998;None;794.9228012000003;None;['9'];[0.2881536999993841];794.9228012000003;None;;;;;;;;Emoconpilot041;2022_Jan_07_1307;BackwardMask;2020.2.8;119.90393296848843;
;m;013_y_m_h_a.jpg;happy;9;16;m;016_y_m_s_a.jpg;sad;incongruent;7;match;;120;160;;3;202;block1_Pilot_2;13;h_s;h_s_weak;;;;;0;0;0;0;0;113;113;113;;;;;;;;;797.9228583000004;None;799.6348708000005;799.9240084000003;799.9240084000003;799.9486062000005;799.9486062000005;799.9893588000004;799.9893588000004;None;9;0;799.9893588000004;None;801.4899364000003;None;['7'];[0.30517409999993106];801.4899364000003;None;0.8295599000002767;;;;;;;Emoconpilot041;2022_Jan_07_1307;BackwardMask;2020.2.8;119.90393296848843;
;f;019_m_f_s_a.jpg;sad;7;4;m;004_o_m_n_a.jpg;neutral;incongruent;8;mismatch;;130;170;;1;238;block1_Pilot_2;19;s_n;s_n_strong;;;;;0;0;0;0;0;114;114;114;;;;;;;;;804.4901680000003;None;806.4929066000004;806.7827785999998;806.7827785999998;806.7903714000004;806.7903714000004;806.8313109000001;806.8313109000001;None;None;0;806.8313109000001;None;808.3316975999996;None;['9'];[0.2952062999993359];808.3316975999996;None;;;;;;;;Emoconpilot041;2022_Jan_07_1307;BackwardMask;2020.2.8;119.90393296848843;
;f;028_y_f_n_a.jpg;neutral;8;27;m;027_o_m_s_a.jpg;sad;incongruent;7;mismatch;;140;160;;18;238;block1_Pilot_2;28;n_s;n_s_strong;;;;;0;0;0;0;0;115;115;115;;;;;;;;;811.3323901000003;None;813.3337376;813.6243649999997;813.6243649999997;813.7738474999996;813.7738474999996;813.8147627999997;813.8147627999997;None;8;0;813.8147627999997;None;815.3147366000003;None;['7'];[0.36025269999936427];815.3147366000003;None;0.7562412999996013;;;;;;;Emoconpilot041;2022_Jan_07_1307;BackwardMask;2020.2.8;119.90393296848843;
;m;013_y_m_s_a.jpg;sad;7;12;f;012_o_f_h_a.jpg;happy;incongruent;9;mismatch;;130;150;;1;238;block1_Pilot_2;13;s_h;s_h_strong;;;;;0;0;0;0;0;116;116;116;;;;;;;;;818.3148570000003;None;820.3066856000005;820.5991612999997;820.5991612999997;820.6072697;820.6072697;820.6482206000001;820.6482206000001;None;None;0;820.6482206000001;None;822.1481595000005;None;"['9', '8', '9']";"[0.27073010000003705, 0.3188272000006691, 0.6308979000004911]";822.1481595000005;None;;;;;;;;Emoconpilot041;2022_Jan_07_1307;BackwardMask;2020.2.8;119.90393296848843;
;m;016_y_m_s_a.jpg;sad;7;19;f;019_m_f_h_a.jpg;happy;incongruent;9;mismatch;;130;150;;1;238;block1_Pilot_2;16;s_h;s_h_strong;;;;;0;0;0;0;0;117;117;117;;;;;;;;;825.1488741000003;None;827.1399179999999;827.4326109000003;827.4326109000003;827.4407025999999;827.4407025999999;827.4819777000002;827.4819777000002;None;None;0;827.4819777000002;None;828.9820418999998;None;['9'];[0.26099880000037956];828.9820418999998;None;;;;;;;;Emoconpilot041;2022_Jan_07_1307;BackwardMask;2020.2.8;119.90393296848843;
;m;013_y_m_s_a.jpg;sad;7;21;f;021_o_f_h_a.jpg;happy;incongruent;9;mismatch;;130;150;;18;238;block1_Pilot_2;13;s_h;s_h_strong;;;;;0;0;0;0;0;118;118;118;;;;;;;;;831.9822233000004;None;833.9736021999997;834.2661441999999;834.2661441999999;834.4159565999998;834.4159565999998;834.4567343999997;834.4567343999997;None;7;0;834.4567343999997;None;835.9569598999997;None;['7'];[0.4941429000000426];835.9569598999997;None;0.9702497999996922;;;;;;;Emoconpilot041;2022_Jan_07_1307;BackwardMask;2020.2.8;119.90393296848843;
;f;012_o_f_s_a.jpg;sad;7;13;m;013_y_m_h_a.jpg;happy;incongruent;9;mismatch;;130;150;;3;235;block1_Pilot_2;12;s_h;s_h_weak;;;;;0;0;0;0;0;119;119;119;;;;;;;;;838.9568999000003;None;840.9188565000004;841.2161226999997;841.2161226999997;841.2410707999998;841.2410707999998;841.2819504999998;841.2819504999998;None;7;0;841.2819504999998;None;842.7818527999998;None;['7'];[0.5732514999999694];842.7818527999998;None;1.1290911999994933;;;;;;;Emoconpilot041;2022_Jan_07_1307;BackwardMask;2020.2.8;119.90393296848843;
;f;019_m_f_s_a.jpg;sad;7;30;f;030_o_f_h_a.jpg;happy;incongruent;9;match;;130;150;;3;235;block2_Pilot_2;19;s_h;s_h_strong;;;;;0;1;1;1;0;0;0;0;;;;;;;;;865.8111907000002;None;867.8002468000004;868.0920692999998;868.0920692999998;868.1166351000002;868.1166351000002;868.1576185000004;868.1576185000004;None;None;0;868.1576185000004;None;869.6585427999999;None;['9'];[0.7845855000005031];869.6585427999999;None;;;;845.7828488000005;None;;;Emoconpilot041;2022_Jan_07_1307;BackwardMask;2020.2.8;119.90393296848843;
;m;008_y_m_n_a.jpg;neutral;8;40;f;040_y_f_h_a.jpg;happy;incongruent;9;mismatch;;140;150;;2;121;block2_Pilot_2;8;n_h;n_h_strong;;;;;0;1;1;1;0;1;1;1;;;;;;;;;872.6585217000002;None;873.6854448000004;873.9754309;873.9754309;873.9917573000002;873.9917573000002;874.0325124999999;874.0325124999999;None;8;0;874.0325124999999;None;875.5325997;None;['7'];[0.30252980000022944];875.5325997;None;0.8185720000001311;;;;;;;Emoconpilot041;2022_Jan_07_1307;BackwardMask;2020.2.8;119.90393296848843;
;f;012_o_f_h_a.jpg;happy;9;27;m;027_o_m_n_a.jpg;neutral;incongruent;8;mismatch;;120;170;;2;240;block2_Pilot_2;12;h_n;h_n_weak;;;;;0;1;1;1;0;2;2;2;;;;;;;;;878.5334949999997;None;880.5408429999998;880.8337818999998;880.8337818999998;880.8501894999999;880.8501894999999;880.8910317999998;880.8910317999998;None;9;0;880.8910317999998;None;882.3910316000001;None;['7'];[0.34796730000016396];882.3910316000001;None;0.8959928000003856;;;;;;;Emoconpilot041;2022_Jan_07_1307;BackwardMask;2020.2.8;119.90393296848843;
;m;008_y_m_h_a.jpg;happy;9;40;f;040_y_f_h_a.jpg;happy;congruent;9;mismatch;;120;150;;18;195;block2_Pilot_2;8;h_h;h_h_strong;;;;;0;1;1;1;0;3;3;3;;;;;;;;;885.3919819000002;None;887.0241231;887.3171832999997;887.3171832999997;887.4670068000005;887.4670068000005;887.5079557999998;887.5079557999998;None;9;1;887.5079557999998;None;889.0078830000002;None;['7'];[0.3072391999994579];889.0078830000002;None;0.7430687999994916;;;;;;;Emoconpilot041;2022_Jan_07_1307;BackwardMask;2020.2.8;119.90393296848843;
;m;004_o_m_n_a.jpg;neutral;8;33;m;033_o_m_s_a.jpg;sad;incongruent;7;match;;140;160;;18;126;block2_Pilot_2;4;n_s;n_s_weak;;;;;0;1;1;1;0;4;4;4;;;;;;;;;892.0080522999997;None;893.098121;893.3927107999998;893.3927107999998;893.5422214999999;893.5422214999999;893.5828247;893.5828247;None;None;0;893.5828247;None;895.0829905999999;None;['8'];[1.312039200000072];895.0829905999999;None;;;;;;;;Emoconpilot041;2022_Jan_07_1307;BackwardMask;2020.2.8;119.90393296848843;
;f;028_y_f_s_a.jpg;sad;7;27;m;027_o_m_n_a.jpg;neutral;incongruent;8;mismatch;;130;170;;18;225;block2_Pilot_2;28;s_n;s_n_strong;;;;;0;1;1;1;0;5;5;5;;;;;;;;;898.0844542000004;None;899.9687865000005;900.2592229000002;900.2592229000002;900.4090543000002;900.4090543000002;900.4497448000002;900.4497448000002;None;7;0;900.4497448000002;None;901.9501981000003;None;['7'];[0.284955600000103];901.9501981000003;None;0.8733074000001579;;;;;;;Emoconpilot041;2022_Jan_07_1307;BackwardMask;2020.2.8;119.90393296848843;
;m;027_o_m_s_a.jpg;sad;7;30;f;030_o_f_h_a.jpg;happy;incongruent;9;mismatch;;130;150;;18;238;block2_Pilot_2;27;s_h;s_h_weak;;;;;0;1;1;1;0;6;6;6;;;;;;;;;904.9498616000001;None;906.9416372000005;907.2342500000004;907.2342500000004;907.3839264999997;907.3839264999997;907.4250215000002;907.4250215000002;None;7;0;907.4250215000002;None;908.9253249000003;None;['7'];[0.26173019999987446];908.9253249000003;None;0.8260275000002366;;;;;;;Emoconpilot041;2022_Jan_07_1307;BackwardMask;2020.2.8;119.90393296848843;
;m;033_o_m_h_a.jpg;happy;9;40;f;040_y_f_s_a.jpg;sad;incongruent;7;mismatch;;120;160;;1;238;block2_Pilot_2;33;h_s;h_s_strong;;;;;0;1;1;1;0;7;7;7;;;;;;;;;911.9259864000005;None;913.9168313999999;914.2093557999997;914.2093557999997;914.2175974000002;914.2175974000002;914.2584297000003;914.2584297000003;None;None;0;914.2584297000003;None;915.7588474000004;None;['9'];[0.5401828000003661];915.7588474000004;None;;;;;;;;Emoconpilot041;2022_Jan_07_1307;BackwardMask;2020.2.8;119.90393296848843;
;f;012_o_f_n_a.jpg;neutral;8;12;f;012_o_f_h_a.jpg;happy;incongruent;9;match;;140;150;;2;200;block2_Pilot_2;12;n_h;n_h_weak;;;;;0;1;1;1;0;8;8;8;;;;;;;;;918.7593234000005;None;920.4592886;920.7518898999997;920.7518898999997;920.7677220000005;920.7677220000005;920.8085045999997;920.8085045999997;None;8;0;920.8085045999997;None;922.3085086000001;None;['7'];[0.7985214000000269];922.3085086000001;None;0.9945354999999836;;;;;;;Emoconpilot041;2022_Jan_07_1307;BackwardMask;2020.2.8;119.90393296848843;
;f;030_o_f_n_a.jpg;neutral;8;19;f;019_m_f_n_a.jpg;neutral;congruent;8;match;;140;170;;1;238;block2_Pilot_2;30;n_n;n_n_weak;;;;;0;1;1;1;0;9;9;9;;;;;;;;;925.3093550000003;None;927.3123747999998;927.6017784000005;927.6017784000005;927.6094595000004;927.6094595000004;927.6502809000003;927.6502809000003;None;None;0;927.6502809000003;None;929.1503535000002;None;['9'];[0.8926327999997739];929.1503535000002;None;;;;;;;;Emoconpilot041;2022_Jan_07_1307;BackwardMask;2020.2.8;119.90393296848843;
;m;013_y_m_h_a.jpg;happy;9;8;m;008_y_m_n_a.jpg;neutral;incongruent;8;match;;120;170;;1;238;block2_Pilot_2;13;h_n;h_n_strong;;;;;0;1;1;1;0;10;10;10;;;;;;;;;932.1510752000004;None;934.1527948000003;934.4435113999998;934.4435113999998;934.4513207;934.4513207;934.4920789999996;934.4920789999996;None;None;0;934.4920789999996;None;935.9924837999997;None;['9'];[0.322631499999261];935.9924837999997;None;;;;;;;;Emoconpilot041;2022_Jan_07_1307;BackwardMask;2020.2.8;119.90393296848843;
;f;040_y_f_h_a.jpg;happy;9;19;f;019_m_f_s_a.jpg;sad;incongruent;7;match;;120;160;;3;133;block2_Pilot_2;40;h_s;h_s_strong;;;;;0;1;1;1;0;11;11;11;;;;;;;;;938.9922803;None;940.1098301000002;940.4015674000002;940.4015674000002;940.4263877000003;940.4263877000003;940.4674198000002;940.4674198000002;None;9;0;940.4674198000002;None;941.9672971999998;None;['7'];[0.7637015000000247];941.9672971999998;None;0.9914789999993445;;;;;;;Emoconpilot041;2022_Jan_07_1307;BackwardMask;2020.2.8;119.90393296848843;
;f;040_y_f_h_a.jpg;happy;9;13;m;013_y_m_s_a.jpg;sad;incongruent;7;mismatch;;120;160;;3;226;block2_Pilot_2;40;h_s;h_s_strong;;;;;0;1;1;1;0;12;12;12;;;;;;;;;944.9674664000004;None;946.8592679000003;947.1517758;947.1517758;947.1765242000001;947.1765242000001;947.2174955;947.2174955;None;9;0;947.2174955;None;948.7175048999998;None;['7'];[0.573446000000331];948.7175048999998;None;1.0574562000001606;;;;;;;Emoconpilot041;2022_Jan_07_1307;BackwardMask;2020.2.8;119.90393296848843;
;f;030_o_f_s_a.jpg;sad;7;27;m;027_o_m_h_a.jpg;happy;incongruent;9;mismatch;;130;150;;1;238;block2_Pilot_2;30;s_h;s_h_strong;;;;;0;1;1;1;0;13;13;13;;;;;;;;;951.7175992000002;None;953.7235695999998;954.0189927000001;954.0189927000001;954.026664;954.026664;954.0675125999996;954.0675125999996;None;None;0;954.0675125999996;None;955.5675080000001;None;['9'];[0.3554266999999527];955.5675080000001;None;;;;;;;;Emoconpilot041;2022_Jan_07_1307;BackwardMask;2020.2.8;119.90393296848843;
;m;033_o_m_h_a.jpg;happy;9;30;f;030_o_f_s_a.jpg;sad;incongruent;7;mismatch;;120;160;;1;238;block2_Pilot_2;33;h_s;h_s_weak;;;;;0;1;1;1;0;14;14;14;;;;;;;;;958.5686194999998;None;960.558951;960.8519833999999;960.8519833999999;960.8601482000004;960.8601482000004;960.9011757999997;960.9011757999997;None;None;0;960.9011757999997;None;962.4010089000003;None;['9'];[0.32987279999997554];962.4010089000003;None;;;;;;;;Emoconpilot041;2022_Jan_07_1307;BackwardMask;2020.2.8;119.90393296848843;
;f;030_o_f_s_a.jpg;sad;7;28;f;028_y_f_n_a.jpg;neutral;incongruent;8;match;;130;170;;3;198;block2_Pilot_2;30;s_n;s_n_weak;;;;;0;1;1;1;0;15;15;15;;;;;;;;;965.4018929000003;None;967.1000768000004;967.3941992;967.3941992;967.4186019999997;967.4186019999997;967.4597239000004;967.4597239000004;None;7;0;967.4597239000004;None;968.9594107000003;None;['8'];[0.7956392999994932];968.9594107000003;None;1.1353010000002541;;;;;;;Emoconpilot041;2022_Jan_07_1307;BackwardMask;2020.2.8;119.90393296848843;
;f;030_o_f_s_a.jpg;sad;7;33;m;033_o_m_h_a.jpg;happy;incongruent;9;mismatch;;130;150;;3;175;block2_Pilot_2;30;s_h;s_h_weak;;;;;0;1;1;1;0;16;16;16;;;;;;;;;971.9598954000003;None;973.4384417000001;973.7276967999996;973.7276967999996;973.7519191000001;973.7519191000001;973.7929524000001;973.7929524000001;None;None;0;973.7929524000001;None;975.2928352999998;None;['9'];[1.0380475000001752];975.2928352999998;None;;;;;;;;Emoconpilot041;2022_Jan_07_1307;BackwardMask;2020.2.8;119.90393296848843;
;f;021_o_f_h_a.jpg;happy;9;30;f;030_o_f_h_a.jpg;happy;congruent;9;match;;120;150;;2;194;block2_Pilot_2;21;h_h;h_h_strong;;;;;0;1;1;1;0;17;17;17;;;;;;;;;978.2939711999998;None;979.9293040000002;980.2196230999998;980.2196230999998;980.2357136;980.2357136;980.2764397000001;980.2764397000001;None;9;1;980.2764397000001;None;981.7762345000001;None;['7'];[0.5626972000000023];981.7762345000001;None;0.9746802999998181;;;;;;;Emoconpilot041;2022_Jan_07_1307;BackwardMask;2020.2.8;119.90393296848843;
;f;019_m_f_n_a.jpg;neutral;8;16;m;016_y_m_s_a.jpg;sad;incongruent;7;mismatch;;140;160;;18;163;block2_Pilot_2;19;n_s;n_s_weak;;;;;0;1;1;1;0;18;18;18;;;;;;;;;984.7773637999999;None;986.1543879999999;986.4445369000005;986.4445369000005;986.5940786000001;986.5940786000001;986.6349738999997;986.6349738999997;None;8;0;986.6349738999997;None;988.1353232000001;None;['7'];[0.3316230999998879];988.1353232000001;None;1.0160788000002867;;;;;;;Emoconpilot041;2022_Jan_07_1307;BackwardMask;2020.2.8;119.90393296848843;
;m;033_o_m_n_a.jpg;neutral;8;13;m;013_y_m_n_a.jpg;neutral;congruent;8;match;;140;170;;2;217;block2_Pilot_2;33;n_n;n_n_strong;;;;;0;1;1;1;0;19;19;19;;;;;;;;;991.1360740999999;None;992.9626312999999;993.2530520999999;993.2530520999999;993.2691284000002;993.2691284000002;993.3100203000004;993.3100203000004;None;8;1;993.3100203000004;None;994.8102688999998;None;['7'];[0.3605494000003091];994.8102688999998;None;0.9090716000000612;;;;;;;Emoconpilot041;2022_Jan_07_1307;BackwardMask;2020.2.8;119.90393296848843;
;m;033_o_m_h_a.jpg;happy;9;13;m;013_y_m_n_a.jpg;neutral;incongruent;8;match;;120;170;;2;227;block2_Pilot_2;33;h_n;h_n_weak;;;;;0;1;1;1;0;20;20;20;;;;;;;;;997.8100598000001;None;999.7099506000004;1000.0027707999998;1000.0027707999998;1000.0190358999998;1000.0190358999998;1000.0600665000002;1000.0600665000002;None;9;0;1000.0600665000002;None;1001.5600738000003;None;['7'];[0.3389462999994066];1001.5600738000003;None;0.8310065999994549;;;;;;;Emoconpilot041;2022_Jan_07_1307;BackwardMask;2020.2.8;119.90393296848843;
;f;012_o_f_s_a.jpg;sad;7;16;m;016_y_m_n_a.jpg;neutral;incongruent;8;mismatch;;130;170;;1;238;block2_Pilot_2;12;s_n;s_n_weak;;;;;0;1;1;1;0;21;21;21;;;;;;;;;1004.5603093;None;1006.5471167000005;1006.8444298000004;1006.8444298000004;1006.8527039999999;1006.8527039999999;1006.8934846000002;1006.8934846000002;None;None;0;1006.8934846000002;None;1008.3937071999999;None;['9'];[0.27325740000014775];1008.3937071999999;None;;;;;;;;Emoconpilot041;2022_Jan_07_1307;BackwardMask;2020.2.8;119.90393296848843;
;f;028_y_f_n_a.jpg;neutral;8;21;f;021_o_f_h_a.jpg;happy;incongruent;9;match;;140;150;;18;202;block2_Pilot_2;28;n_h;n_h_strong;;;;;0;1;1;1;0;22;22;22;;;;;;;;;1011.3940807999998;None;1013.0991263000005;1013.3950750000004;1013.3950750000004;1013.5445109000002;1013.5445109000002;1013.5853766999999;1013.5853766999999;None;8;0;1013.5853766999999;None;1015.0855603999998;None;['7'];[0.2854136000005383];1015.0855603999998;None;0.681687299999794;;;;;;;Emoconpilot041;2022_Jan_07_1307;BackwardMask;2020.2.8;119.90393296848843;
;f;028_y_f_s_a.jpg;sad;7;30;f;030_o_f_n_a.jpg;neutral;incongruent;8;match;;130;170;;2;127;block2_Pilot_2;28;s_n;s_n_weak;;;;;0;1;1;1;0;23;23;23;;;;;;;;;1018.0855429000003;None;1019.1557559000003;1019.4448985999998;1019.4448985999998;1019.4611680999997;1019.4611680999997;1019.5021353000002;1019.5021353000002;None;None;0;1019.5021353000002;None;1021.0026777000003;None;['9'];[0.30430340000020806];1021.0026777000003;None;;;;;;;;Emoconpilot041;2022_Jan_07_1307;BackwardMask;2020.2.8;119.90393296848843;
;m;004_o_m_n_a.jpg;neutral;8;40;f;040_y_f_n_a.jpg;neutral;congruent;8;mismatch;;140;170;;1;238;block2_Pilot_2;4;n_n;n_n_weak;;;;;0;1;1;1;0;24;24;24;;;;;;;;;1024.0027099999998;None;1026.0136284;1026.3037064999999;1026.3037064999999;1026.3114545999997;1026.3114545999997;1026.3523620000005;1026.3523620000005;None;None;0;1026.3523620000005;None;1027.8524687;None;['9'];[0.33458149999933084];1027.8524687;None;;;;;;;;Emoconpilot041;2022_Jan_07_1307;BackwardMask;2020.2.8;119.90393296848843;
;m;016_y_m_n_a.jpg;neutral;8;16;m;016_y_m_h_a.jpg;happy;incongruent;9;match;;140;150;;18;239;block2_Pilot_2;16;n_h;n_h_weak;;;;;0;1;1;1;0;25;25;25;;;;;;;;;1030.8535579999998;None;1032.8640089;1033.1539124;1033.1539124;1033.3030263;1033.3030263;1033.3441442000003;1033.3441442000003;None;8;0;1033.3441442000003;None;1034.8442917000002;None;['7'];[0.4386835000004794];1034.8442917000002;None;0.6908374000004187;;;;;;;Emoconpilot041;2022_Jan_07_1307;BackwardMask;2020.2.8;119.90393296848843;
;f;012_o_f_n_a.jpg;neutral;8;33;m;033_o_m_n_a.jpg;neutral;congruent;8;mismatch;;140;170;;3;134;block2_Pilot_2;12;n_n;n_n_weak;;;;;0;1;1;1;0;26;26;26;;;;;;;;;1037.8454622;None;1038.9807652999998;1039.2706252999997;1039.2706252999997;1039.2950056;1039.2950056;1039.3358662;1039.3358662;None;8;1;1039.3358662;None;1040.8360768000002;None;['7'];[0.5430735999998433];1040.8360768000002;None;0.9070964000002277;;;;;;;Emoconpilot041;2022_Jan_07_1307;BackwardMask;2020.2.8;119.90393296848843;
;m;013_y_m_h_a.jpg;happy;9;27;m;027_o_m_s_a.jpg;sad;incongruent;7;match;;120;160;;2;194;block2_Pilot_2;13;h_s;h_s_strong;;;;;0;1;1;1;0;27;27;27;;;;;;;;;1043.8371066;None;1045.4723188999997;1045.7622566999999;1045.7622566999999;1045.7785125;1045.7785125;1045.819383;1045.819383;None;9;0;1045.819383;None;1047.3193604999997;None;['7'];[0.28348449999975855];1047.3193604999997;None;0.7595751999997447;;;;;;;Emoconpilot041;2022_Jan_07_1307;BackwardMask;2020.2.8;119.90393296848843;
;m;013_y_m_n_a.jpg;neutral;8;28;f;028_y_f_n_a.jpg;neutral;congruent;8;mismatch;;140;170;;1;238;block2_Pilot_2;13;n_n;n_n_weak;;;;;0;1;1;1;0;28;28;28;;;;;;;;;1050.3201589999999;None;1052.3222052;1052.6126229000001;1052.6126229000001;1052.6202585;1052.6202585;1052.6611939000004;1052.6611939000004;None;None;0;1052.6611939000004;None;1054.1612373999997;None;['9'];[1.1377793000001475];1054.1612373999997;None;;;;;;;;Emoconpilot041;2022_Jan_07_1307;BackwardMask;2020.2.8;119.90393296848843;
;f;030_o_f_s_a.jpg;sad;7;33;m;033_o_m_h_a.jpg;happy;incongruent;9;mismatch;;130;150;;3;168;block2_Pilot_2;30;s_h;s_h_weak;;;;;0;1;1;1;0;29;29;29;;;;;;;;;1057.1622533999998;None;1058.5804942000004;1058.8711254999998;1058.8711254999998;1058.8954948;1058.8954948;1058.9363142000002;1058.9363142000002;None;None;0;1058.9363142000002;None;1060.4362515000003;None;['9'];[0.9346855000003416];1060.4362515000003;None;;;;;;;;Emoconpilot041;2022_Jan_07_1307;BackwardMask;2020.2.8;119.90393296848843;
;m;008_y_m_n_a.jpg;neutral;8;12;f;012_o_f_n_a.jpg;neutral;congruent;8;mismatch;;140;170;;18;208;block2_Pilot_2;8;n_n;n_n_weak;;;;;0;1;1;1;0;30;30;30;;;;;;;;;1063.4373817000005;None;1065.1894147000003;1065.4794994000003;1065.4794994000003;1065.6289968;1065.6289968;1065.6697672;1065.6697672;None;8;1;1065.6697672;None;1067.1699826000004;None;['7'];[0.40103089999956865];1067.1699826000004;None;0.8050962000006621;;;;;;;Emoconpilot041;2022_Jan_07_1307;BackwardMask;2020.2.8;119.90393296848843;
;m;008_y_m_s_a.jpg;sad;7;4;m;004_o_m_n_a.jpg;neutral;incongruent;8;match;;130;170;;2;231;block2_Pilot_2;8;s_n;s_n_weak;;;;;0;1;1;1;0;31;31;31;;;;;;;;;1070.170169;None;1072.1140707000004;1072.4046084000001;1072.4046084000001;1072.4207968;1072.4207968;1072.4617515999998;1072.4617515999998;None;8;1;1072.4617515999998;None;1073.9615107999998;None;['7'];[0.513417400000435];1073.9615107999998;None;0.7251127999998062;;;;;;;Emoconpilot041;2022_Jan_07_1307;BackwardMask;2020.2.8;119.90393296848843;
;m;016_y_m_n_a.jpg;neutral;8;28;f;028_y_f_n_a.jpg;neutral;congruent;8;mismatch;;140;170;;2;218;block2_Pilot_2;16;n_n;n_n_weak;;;;;0;1;1;1;0;32;32;32;;;;;;;;;1076.9627321999997;None;1078.7971829999997;1079.0881041000002;1079.0881041000002;1079.1042415000002;1079.1042415000002;1079.1450536000002;1079.1450536000002;None;8;1;1079.1450536000002;None;1080.6455035;None;['7'];[0.40550940000048286];1080.6455035;None;0.7060183000003235;;;;;;;Emoconpilot041;2022_Jan_07_1307;BackwardMask;2020.2.8;119.90393296848843;
;m;033_o_m_n_a.jpg;neutral;8;33;m;033_o_m_s_a.jpg;sad;incongruent;7;match;;140;160;;3;141;block2_Pilot_2;33;n_s;n_s_weak;;;;;0;1;1;1;0;33;33;33;;;;;;;;;1083.6453333999998;None;1084.8393698999998;1085.1299663;1085.1299663;1085.1545375000005;1085.1545375000005;1085.1950941000005;1085.1950941000005;None;8;0;1085.1950941000005;None;1086.6952189000003;None;['7'];[0.28364779999992606];1086.6952189000003;None;0.7279023999999481;;;;;;;Emoconpilot041;2022_Jan_07_1307;BackwardMask;2020.2.8;119.90393296848843;
;m;016_y_m_n_a.jpg;neutral;8;13;m;013_y_m_s_a.jpg;sad;incongruent;7;match;;140;160;;1;238;block2_Pilot_2;16;n_s;n_s_weak;;;;;0;1;1;1;0;34;34;34;;;;;;;;;1089.6961950000004;None;1091.6978786999998;1091.988252;1091.988252;1091.9959687;1091.9959687;1092.0371770000002;1092.0371770000002;None;None;0;1092.0371770000002;None;1093.5370898;None;['9'];[0.29776330000004236];1093.5370898;None;;;;;;;;Emoconpilot041;2022_Jan_07_1307;BackwardMask;2020.2.8;119.90393296848843;
;f;030_o_f_h_a.jpg;happy;9;12;f;012_o_f_n_a.jpg;neutral;incongruent;8;match;;120;170;;3;190;block2_Pilot_2;30;h_n;h_n_weak;;;;;0;1;1;1;0;35;35;35;;;;;;;;;1096.5376993;None;1098.1431208000004;1098.4384547;1098.4384547;1098.4628631000005;1098.4628631000005;1098.5038440999997;1098.5038440999997;None;9;0;1098.5038440999997;None;1100.0037125;None;['7'];[0.30311859999983426];1100.0037125;None;0.7791377000003195;;;;;;;Emoconpilot041;2022_Jan_07_1307;BackwardMask;2020.2.8;119.90393296848843;
;f;030_o_f_s_a.jpg;sad;7;12;f;012_o_f_n_a.jpg;neutral;incongruent;8;match;;130;170;;3;197;block2_Pilot_2;30;s_n;s_n_strong;;;;;0;1;1;1;0;36;36;36;;;;;;;;;1103.0048760999998;None;1104.6651468999999;1104.9554281;1104.9554281;1104.9799545000005;1104.9799545000005;1105.0206473999997;1105.0206473999997;None;None;0;1105.0206473999997;None;1106.5211483000003;None;['7'];[0.8818612000004578];1106.5211483000003;None;;;;;;;;Emoconpilot041;2022_Jan_07_1307;BackwardMask;2020.2.8;119.90393296848843;
;m;004_o_m_s_a.jpg;sad;7;8;m;008_y_m_h_a.jpg;happy;incongruent;9;match;;130;150;;3;201;block2_Pilot_2;4;s_h;s_h_strong;;;;;0;1;1;1;0;37;37;37;;;;;;;;;1109.5214811000005;None;1111.2041483000003;1111.4967308000005;1111.4967308000005;1111.5215120000003;1111.5215120000003;1111.5621585;1111.5621585;None;7;0;1111.5621585;None;1113.0624081000005;None;['7'];[0.36456250000082946];1113.0624081000005;None;0.8168152999996892;;;;;;;Emoconpilot041;2022_Jan_07_1307;BackwardMask;2020.2.8;119.90393296848843;
;f;040_y_f_n_a.jpg;neutral;8;16;m;016_y_m_n_a.jpg;neutral;congruent;8;mismatch;;140;170;;3;198;block2_Pilot_2;40;n_n;n_n_strong;;;;;0;1;1;1;0;38;38;38;;;;;;;;;1116.0625976000001;None;1117.7350211000003;1118.0304684000002;1118.0304684000002;1118.0550518;1118.0550518;1118.0958620000001;1118.0958620000001;None;8;1;1118.0958620000001;None;1119.5958296999997;None;['7'];[0.31916309999996884];1119.5958296999997;None;0.6669659999997748;;;;;;;Emoconpilot041;2022_Jan_07_1307;BackwardMask;2020.2.8;119.90393296848843;
;m;027_o_m_n_a.jpg;neutral;8;16;m;016_y_m_s_a.jpg;sad;incongruent;7;match;;140;160;;1;238;block2_Pilot_2;27;n_s;n_s_strong;;;;;0;1;1;1;0;39;39;39;;;;;;;;;1122.5959346999998;None;1124.5984559999997;1124.8891603000002;1124.8891603000002;1124.8968716;1124.8968716;1124.9377268999997;1124.9377268999997;None;None;0;1124.9377268999997;None;1126.4378881000002;None;['9'];[0.3010191000003033];1126.4378881000002;None;;;;;;;;Emoconpilot041;2022_Jan_07_1307;BackwardMask;2020.2.8;119.90393296848843;
;m;033_o_m_n_a.jpg;neutral;8;40;f;040_y_f_h_a.jpg;happy;incongruent;9;mismatch;;140;150;;2;137;block2_Pilot_2;33;n_h;n_h_strong;;;;;0;1;1;1;0;40;40;40;;;;;;;;;1129.4386684;None;1130.5990315999998;1130.889193;1130.889193;1130.9051896;1130.9051896;1130.9462335999997;1130.9462335999997;None;8;0;1130.9462335999997;None;1132.4462200999997;None;['7'];[0.38079370000014023];1132.4462200999997;None;0.7287217999992208;;;;;;;Emoconpilot041;2022_Jan_07_1307;BackwardMask;2020.2.8;119.90393296848843;
;m;004_o_m_s_a.jpg;sad;7;8;m;008_y_m_h_a.jpg;happy;incongruent;9;match;;130;150;;18;193;block2_Pilot_2;4;s_h;s_h_strong;;;;;0;1;1;1;0;41;41;41;;;;;;;;;1135.4465275000002;None;1137.0626079000003;1137.3555341;1137.3555341;1137.5053231000002;1137.5053231000002;1137.5462266000004;1137.5462266000004;None;7;0;1137.5462266000004;None;1139.0463287000002;None;['7'];[0.3004317999993873];1139.0463287000002;None;0.7048019999992903;;;;;;;Emoconpilot041;2022_Jan_07_1307;BackwardMask;2020.2.8;119.90393296848843;
;f;012_o_f_h_a.jpg;happy;9;4;m;004_o_m_s_a.jpg;sad;incongruent;7;mismatch;;120;160;;3;198;block2_Pilot_2;12;h_s;h_s_weak;;;;;0;1;1;1;0;42;42;42;;;;;;;;;1142.0470996000004;None;1143.7032470000004;1143.9973287000003;1143.9973287000003;1144.0221646999998;1144.0221646999998;1144.0630929;1144.0630929;None;9;0;1144.0630929;None;1145.5630907000004;None;['7'];[0.6876399000002493];1145.5630907000004;None;0.987921599999936;;;;;;;Emoconpilot041;2022_Jan_07_1307;BackwardMask;2020.2.8;119.90393296848843;
;f;012_o_f_n_a.jpg;neutral;8;8;m;008_y_m_s_a.jpg;sad;incongruent;7;mismatch;;140;160;;1;238;block2_Pilot_2;12;n_s;n_s_strong;;;;;0;1;1;1;0;43;43;43;;;;;;;;;1148.5639689999998;None;1150.5773242000005;1150.8730574;1150.8730574;1150.8806321000002;1150.8806321000002;1150.9214376999998;1150.9214376999998;None;None;0;1150.9214376999998;None;1152.4216549000002;None;['9'];[0.341276299999663];1152.4216549000002;None;;;;;;;;Emoconpilot041;2022_Jan_07_1307;BackwardMask;2020.2.8;119.90393296848843;
;f;040_y_f_n_a.jpg;neutral;8;8;m;008_y_m_n_a.jpg;neutral;congruent;8;mismatch;;140;170;;3;165;block2_Pilot_2;40;n_n;n_n_weak;;;;;0;1;1;1;0;44;44;44;;;;;;;;;1155.4224464;None;1156.8169974000002;1157.106304;1157.106304;1157.1306709;1157.1306709;1157.1715187999998;1157.1715187999998;None;8;1;1157.1715187999998;None;1158.6717082000005;None;['7'];[0.31507870000041294];1158.6717082000005;None;0.6393504999996367;;;;;;;Emoconpilot041;2022_Jan_07_1307;BackwardMask;2020.2.8;119.90393296848843;
;f;028_y_f_h_a.jpg;happy;9;33;m;033_o_m_n_a.jpg;neutral;incongruent;8;mismatch;;120;170;;1;238;block2_Pilot_2;28;h_n;h_n_strong;;;;;0;1;1;1;0;45;45;45;;;;;;;;;1161.6725358000003;None;1163.6655964000001;1163.9561046999997;1163.9561046999997;1163.9643013000004;1163.9643013000004;1164.0052385999998;1164.0052385999998;None;None;0;1164.0052385999998;None;1165.5050762;None;['9'];[0.5058235999995304];1165.5050762;None;;;;;;;;Emoconpilot041;2022_Jan_07_1307;BackwardMask;2020.2.8;119.90393296848843;
;m;027_o_m_s_a.jpg;sad;7;19;f;019_m_f_n_a.jpg;neutral;incongruent;8;mismatch;;130;170;;2;236;block2_Pilot_2;27;s_n;s_n_weak;;;;;0;1;1;1;0;46;46;46;;;;;;;;;1168.5138822;None;1170.4803410000004;1170.7728499000004;1170.7728499000004;1170.7893618999997;1170.7893618999997;1170.8302381000003;1170.8302381000003;None;8;1;1170.8302381000003;None;1172.3302949;None;['8'];[0.3284070999998221];1172.3302949;None;0.9964550999993662;;;;;;;Emoconpilot041;2022_Jan_07_1307;BackwardMask;2020.2.8;119.90393296848843;
;m;027_o_m_h_a.jpg;happy;9;19;f;019_m_f_s_a.jpg;sad;incongruent;7;mismatch;;120;160;;1;238;block2_Pilot_2;27;h_s;h_s_strong;;;;;0;1;1;1;0;47;47;47;;;;;;;;;1175.3304355999999;None;1177.3444144000005;1177.6401812000004;1177.6401812000004;1177.6478091999998;1177.6478091999998;1177.6887464000001;1177.6887464000001;None;None;0;1177.6887464000001;None;1179.188776;None;['9'];[0.31820499999957974];1179.188776;None;;;;;;;;Emoconpilot041;2022_Jan_07_1307;BackwardMask;2020.2.8;119.90393296848843;
;m;016_y_m_h_a.jpg;happy;9;4;m;004_o_m_s_a.jpg;sad;incongruent;7;match;;120;160;;3;227;block2_Pilot_2;16;h_s;h_s_strong;;;;;0;1;1;1;0;48;48;48;;;;;;;;;1182.1895585000002;None;1184.0881933;1184.3815765999998;1184.3815765999998;1184.4062827999996;1184.4062827999996;1184.4472444000003;1184.4472444000003;None;9;0;1184.4472444000003;None;1185.9477089000002;None;['7'];[0.32721979999951145];1185.9477089000002;None;0.9319236000001183;;;;;;;Emoconpilot041;2022_Jan_07_1307;BackwardMask;2020.2.8;119.90393296848843;
;f;040_y_f_h_a.jpg;happy;9;13;m;013_y_m_h_a.jpg;happy;congruent;9;mismatch;;120;150;;3;165;block2_Pilot_2;40;h_h;h_h_strong;;;;;0;1;1;1;0;49;49;49;;;;;;;;;1188.9480215000003;None;1190.3301308999999;1190.6232529;1190.6232529;1190.6481445;1190.6481445;1190.6889708999997;1190.6889708999997;None;9;1;1190.6889708999997;None;1192.1890813;None;['7'];[0.4058517999992546];1192.1890813;None;0.7059940999997707;;;;;;;Emoconpilot041;2022_Jan_07_1307;BackwardMask;2020.2.8;119.90393296848843;
;m;033_o_m_s_a.jpg;sad;7;28;f;028_y_f_n_a.jpg;neutral;incongruent;8;mismatch;;130;170;;2;227;block2_Pilot_2;33;s_n;s_n_weak;;;;;0;1;1;1;0;50;50;50;;;;;;;;;1195.1895370000002;None;1197.0887887999997;1197.3818109000003;1197.3818109000003;1197.3982592000002;1197.3982592000002;1197.4391733000002;1197.4391733000002;None;8;1;1197.4391733000002;None;1198.9392456000005;None;['8'];[0.3355981000004249];1198.9392456000005;None;1.0357659999999669;;;;;;;Emoconpilot041;2022_Jan_07_1307;BackwardMask;2020.2.8;119.90393296848843;
;f;019_m_f_s_a.jpg;sad;7;27;m;027_o_m_h_a.jpg;happy;incongruent;9;mismatch;;130;150;;1;238;block2_Pilot_2;19;s_h;s_h_weak;;;;;0;1;1;1;0;51;51;51;;;;;;;;;1201.9400944;None;1203.9495787000005;1204.2407068000002;1204.2407068000002;1204.2485435999997;1204.2485435999997;1204.2892414999997;1204.2892414999997;None;None;0;1204.2892414999997;None;1205.7893008;None;['9'];[0.38964299999952345];1205.7893008;None;;;;;;;;Emoconpilot041;2022_Jan_07_1307;BackwardMask;2020.2.8;119.90393296848843;
;m;016_y_m_h_a.jpg;happy;9;19;f;019_m_f_n_a.jpg;neutral;incongruent;8;mismatch;;120;170;;18;238;block2_Pilot_2;16;h_n;h_n_strong;;;;;0;1;1;1;0;52;52;52;;;;;;;;;1208.7902347;None;1210.7809634000005;1211.0737525000004;1211.0737525000004;1211.2235018000001;1211.2235018000001;1211.2644273000005;1211.2644273000005;None;None;0;1211.2644273000005;None;1212.7643801000004;None;['7'];[0.5425869000000603];1212.7643801000004;None;;;;;;;;Emoconpilot041;2022_Jan_07_1307;BackwardMask;2020.2.8;119.90393296848843;
;f;021_o_f_s_a.jpg;sad;7;8;m;008_y_m_n_a.jpg;neutral;incongruent;8;mismatch;;130;170;;1;238;block2_Pilot_2;21;s_n;s_n_strong;;;;;0;1;1;1;0;53;53;53;;;;;;;;;1215.7652512000004;None;1217.7539773999997;1218.0487689000001;1218.0487689000001;1218.0570188000002;1218.0570188000002;1218.0978961;1218.0978961;None;None;0;1218.0978961;None;1219.5977881;None;"['9', '8', '9']";"[0.33317859999988286, 0.4132446000003256, 2.1491357000004427]";1219.5977881;None;;;;;;;;Emoconpilot041;2022_Jan_07_1307;BackwardMask;2020.2.8;119.90393296848843;
;f;012_o_f_s_a.jpg;sad;7;33;m;033_o_m_s_a.jpg;sad;congruent;7;mismatch;;130;160;;2;148;block2_Pilot_2;12;s_s;s_s_weak;;;;;0;1;1;1;0;54;54;54;;;;;;;;;1222.5981653;None;1223.8353925000001;1224.1322319;1224.1322319;1224.1488334000005;1224.1488334000005;1224.1896020000004;1224.1896020000004;None;9;0;1224.1896020000004;None;1225.6896239999996;None;['8'];[0.4092233000001215];1225.6896239999996;None;0.8373227000001862;;;;;;;Emoconpilot041;2022_Jan_07_1307;BackwardMask;2020.2.8;119.90393296848843;
;f;030_o_f_s_a.jpg;sad;7;40;f;040_y_f_s_a.jpg;sad;congruent;7;match;;130;160;;3;136;block2_Pilot_2;30;s_s;s_s_strong;;;;;0;1;1;1;0;55;55;55;;;;;;;;;1228.6897319;None;1229.8544192999998;1230.1494455000002;1230.1494455000002;1230.1739134999998;1230.1739134999998;1230.2148422999999;1230.2148422999999;None;8;0;1230.2148422999999;None;1231.7147704999998;None;['8'];[0.9039536000000226];1231.7147704999998;None;1.0680708999998387;;;;;;;Emoconpilot041;2022_Jan_07_1307;BackwardMask;2020.2.8;119.90393296848843;
;m;027_o_m_s_a.jpg;sad;7;28;f;028_y_f_h_a.jpg;happy;incongruent;9;mismatch;;130;150;;1;238;block2_Pilot_2;27;s_h;s_h_weak;;;;;0;1;1;1;0;56;56;56;;;;;;;;;1234.7149183000001;None;1236.7065659999998;1236.9993937999998;1236.9993937999998;1237.0074292999998;1237.0074292999998;1237.0482641999997;1237.0482641999997;None;None;0;1237.0482641999997;None;1238.5484056000005;None;['9'];[0.5424517999999807];1238.5484056000005;None;;;;;;;;Emoconpilot041;2022_Jan_07_1307;BackwardMask;2020.2.8;119.90393296848843;
;m;004_o_m_n_a.jpg;neutral;8;8;m;008_y_m_s_a.jpg;sad;incongruent;7;match;;140;160;;3;225;block2_Pilot_2;4;n_s;n_s_strong;;;;;0;1;1;1;0;57;57;57;;;;;;;;;1241.5483769000002;None;1243.4505160999997;1243.7412903000004;1243.7412903000004;1243.7657668000002;1243.7657668000002;1243.8068135000003;1243.8068135000003;None;8;0;1243.8068135000003;None;1245.3073968999997;None;['7'];[0.39953329999934795];1245.3073968999997;None;0.8120638999998846;;;;;;;Emoconpilot041;2022_Jan_07_1307;BackwardMask;2020.2.8;119.90393296848843;
;f;012_o_f_s_a.jpg;sad;7;40;f;040_y_f_s_a.jpg;sad;congruent;7;match;;130;160;;1;238;block2_Pilot_2;12;s_s;s_s_strong;;;;;0;1;1;1;0;58;58;58;;;;;;;;;1248.3076013999998;None;1250.2940287000001;1250.5910187999998;1250.5910187999998;1250.5993076000004;1250.5993076000004;1250.6401611000001;1250.6401611000001;None;None;0;1250.6401611000001;None;1252.1404025000002;None;['9'];[0.6623196000000462];1252.1404025000002;None;;;;;;;;Emoconpilot041;2022_Jan_07_1307;BackwardMask;2020.2.8;119.90393296848843;
;f;021_o_f_h_a.jpg;happy;9;4;m;004_o_m_n_a.jpg;neutral;incongruent;8;mismatch;;120;170;;1;238;block2_Pilot_2;21;h_n;h_n_weak;;;;;0;1;1;1;0;59;59;59;;;;;;;;;1255.1407771000004;None;1257.1450457;1257.4416133000004;1257.4416133000004;1257.4493803000005;1257.4493803000005;1257.4902533000004;1257.4902533000004;None;None;0;1257.4902533000004;None;1258.9903837000002;None;['9'];[0.5645408999998835];1258.9903837000002;None;;;;;;;;Emoconpilot041;2022_Jan_07_1307;BackwardMask;2020.2.8;119.90393296848843;
;f;040_y_f_h_a.jpg;happy;9;16;m;016_y_m_n_a.jpg;neutral;incongruent;8;mismatch;;120;170;;2;154;block2_Pilot_2;40;h_n;h_n_weak;;;;;0;1;1;1;0;60;60;60;;;;;;;;;1261.9913404999998;None;1263.2856041000005;1263.5747915000002;1263.5747915000002;1263.5912212000003;1263.5912212000003;1263.6320210000003;1263.6320210000003;None;9;0;1263.6320210000003;None;1265.1320837000003;None;['7'];[0.710837999999967];1265.1320837000003;None;1.1227443000007042;;;;;;;Emoconpilot041;2022_Jan_07_1307;BackwardMask;2020.2.8;119.90393296848843;
;m;008_y_m_n_a.jpg;neutral;8;4;m;004_o_m_s_a.jpg;sad;incongruent;7;match;;140;160;;18;145;block2_Pilot_2;8;n_s;n_s_strong;;;;;0;1;1;1;0;61;61;61;;;;;;;;;1268.1324218999998;None;1269.3739489;1269.6669167;1269.6669167;1269.8164634000004;1269.8164634000004;1269.8575363;1269.8575363;None;8;0;1269.8575363;None;1271.357196;None;['7'];[0.6296526999994967];1271.357196;None;0.7533348999995724;;;;;;;Emoconpilot041;2022_Jan_07_1307;BackwardMask;2020.2.8;119.90393296848843;
;f;021_o_f_s_a.jpg;sad;7;33;m;033_o_m_h_a.jpg;happy;incongruent;9;mismatch;;130;150;;1;238;block2_Pilot_2;21;s_h;s_h_strong;;;;;0;1;1;1;0;62;62;62;;;;;;;;;1274.3583509999999;None;1276.3467339;1276.6416053000003;1276.6416053000003;1276.6497218000004;1276.6497218000004;1276.6905807000003;1276.6905807000003;None;None;0;1276.6905807000003;None;1278.1907352999997;None;['9'];[0.38000470000042696];1278.1907352999997;None;;;;;;;;Emoconpilot041;2022_Jan_07_1307;BackwardMask;2020.2.8;119.90393296848843;
;m;033_o_m_n_a.jpg;neutral;8;30;f;030_o_f_h_a.jpg;happy;incongruent;9;mismatch;;140;150;;18;171;block2_Pilot_2;33;n_h;n_h_weak;;;;;0;1;1;1;0;63;63;63;;;;;;;;;1281.1917564000005;None;1282.6374008000003;1282.9339667000004;1282.9339667000004;1283.0833129000002;1283.0833129000002;1283.1241656000002;1283.1241656000002;None;8;0;1283.1241656000002;None;1284.6242328999997;None;['7'];[0.3385868000004848];1284.6242328999997;None;0.7105482000006305;;;;;;;Emoconpilot041;2022_Jan_07_1307;BackwardMask;2020.2.8;119.90393296848843;
;m;027_o_m_n_a.jpg;neutral;8;27;m;027_o_m_h_a.jpg;happy;incongruent;9;match;;140;150;;2;164;block2_Pilot_2;27;n_h;n_h_weak;;;;;0;1;1;1;0;64;64;64;;;;;;;;;1287.6250011000002;None;1289.0106569999998;1289.3012915999998;1289.3012915999998;1289.3169866999997;1289.3169866999997;1289.3573848000005;1289.3573848000005;None;8;0;1289.3573848000005;None;1290.8574858000002;None;['7'];[0.5454192999995939];1290.8574858000002;None;1.0133132999999361;;;;;;;Emoconpilot041;2022_Jan_07_1307;BackwardMask;2020.2.8;119.90393296848843;
;m;008_y_m_n_a.jpg;neutral;8;40;f;040_y_f_n_a.jpg;neutral;congruent;8;mismatch;;140;170;;1;238;block2_Pilot_2;8;n_n;n_n_strong;;;;;0;1;1;1;0;65;65;65;;;;;;;;;1293.8588298000004;None;1295.8602799999999;1296.1508144999998;1296.1508144999998;1296.1586863000002;1296.1586863000002;1296.1996023000002;1296.1996023000002;None;None;0;1296.1996023000002;None;1297.6995978000004;None;['9'];[0.4952813999998398];1297.6995978000004;None;;;;;;;;Emoconpilot041;2022_Jan_07_1307;BackwardMask;2020.2.8;119.90393296848843;
;f;040_y_f_h_a.jpg;happy;9;21;f;021_o_f_n_a.jpg;neutral;incongruent;8;match;;120;170;;18;239;block2_Pilot_2;40;h_n;h_n_strong;;;;;0;1;1;1;0;66;66;66;;;;;;;;;1300.6995741;None;1302.7001920000002;1302.9922523000005;1302.9922523000005;1303.1420415000002;1303.1420415000002;1303.1829525000003;1303.1829525000003;None;9;0;1303.1829525000003;None;1304.6827014;None;['7'];[0.3201185000007172];1304.6827014;None;0.8198841000003085;;;;;;;Emoconpilot041;2022_Jan_07_1307;BackwardMask;2020.2.8;119.90393296848843;
;f;021_o_f_s_a.jpg;sad;7;28;f;028_y_f_h_a.jpg;happy;incongruent;9;match;;130;150;;1;238;block2_Pilot_2;21;s_h;s_h_weak;;;;;0;1;1;1;0;67;67;67;;;;;;;;;1307.6830557000003;None;1309.6725533999997;1309.9672619000003;1309.9672619000003;1309.9755006000005;1309.9755006000005;1310.0164599;1310.0164599;None;None;0;1310.0164599;None;1311.5170758000004;None;['9'];[0.35779289999936736];1311.5170758000004;None;;;;;;;;Emoconpilot041;2022_Jan_07_1307;BackwardMask;2020.2.8;119.90393296848843;
;f;021_o_f_n_a.jpg;neutral;8;30;f;030_o_f_n_a.jpg;neutral;congruent;8;match;;140;170;;2;209;block2_Pilot_2;21;n_n;n_n_strong;;;;;0;1;1;1;0;68;68;68;;;;;;;;;1314.5163987000005;None;1316.2840418000005;1316.5759699999999;1316.5759699999999;1316.5923024000003;1316.5923024000003;1316.6332149999998;1316.6332149999998;None;8;1;1316.6332149999998;None;1318.1331871000002;None;['8'];[0.5736896999997043];1318.1331871000002;None;1.0817013999994742;;;;;;;Emoconpilot041;2022_Jan_07_1307;BackwardMask;2020.2.8;119.90393296848843;
;f;040_y_f_s_a.jpg;sad;7;13;m;013_y_m_s_a.jpg;sad;congruent;7;mismatch;;130;160;;3;147;block2_Pilot_2;40;s_s;s_s_strong;;;;;0;1;1;1;0;69;69;69;;;;;;;;;1321.1334826000002;None;1322.3667615000004;1322.6592645;1322.6592645;1322.6840268000005;1322.6840268000005;1322.7250113999999;1322.7250113999999;None;8;0;1322.7250113999999;None;1324.2251003000001;None;['7'];[0.48176280000006955];1324.2251003000001;None;0.7978974999996353;;;;;;;Emoconpilot041;2022_Jan_07_1307;BackwardMask;2020.2.8;119.90393296848843;
;f;040_y_f_s_a.jpg;sad;7;21;f;021_o_f_h_a.jpg;happy;incongruent;9;match;;130;150;;3;172;block2_Pilot_2;40;s_h;s_h_strong;;;;;0;1;1;1;0;70;70;70;;;;;;;;;1327.2258209000001;None;1328.6661378999997;1328.9594383000003;1328.9594383000003;1328.9841499000004;1328.9841499000004;1329.0252292000005;1329.0252292000005;None;None;0;1329.0252292000005;None;1330.5255151000001;None;"['7', '9']";"[0.06924919999983103, 0.7573700000002646]";1330.5255151000001;None;;;;;;;;Emoconpilot041;2022_Jan_07_1307;BackwardMask;2020.2.8;119.90393296848843;
;m;013_y_m_s_a.jpg;sad;7;16;m;016_y_m_n_a.jpg;neutral;incongruent;8;match;;130;170;;1;238;block2_Pilot_2;13;s_n;s_n_strong;;;;;0;1;1;1;0;71;71;71;;;;;;;;;1333.5258113;None;1335.5172595000004;1335.8094253;1335.8094253;1335.8177790999998;1335.8177790999998;1335.8584385000004;1335.8584385000004;None;None;0;1335.8584385000004;None;1337.358905;None;['9'];[0.323965099999441];1337.358905;None;;;;;;;;Emoconpilot041;2022_Jan_07_1307;BackwardMask;2020.2.8;119.90393296848843;
;m;008_y_m_s_a.jpg;sad;7;12;f;012_o_f_h_a.jpg;happy;incongruent;9;mismatch;;130;150;;18;238;block2_Pilot_2;8;s_h;s_h_weak;;;;;0;1;1;1;0;72;72;72;;;;;;;;;1340.3591646000004;None;1342.382463;1342.6765543000001;1342.6765543000001;1342.825962;1342.825962;1342.8671529000003;1342.8671529000003;None;7;0;1342.8671529000003;None;1344.3672404999998;None;['7'];[0.3235921999994389];1344.3672404999998;None;1.0156481999993048;;;;;;;Emoconpilot041;2022_Jan_07_1307;BackwardMask;2020.2.8;119.90393296848843;
;m;013_y_m_s_a.jpg;sad;7;21;f;021_o_f_n_a.jpg;neutral;incongruent;8;mismatch;;130;170;;1;238;block2_Pilot_2;13;s_n;s_n_weak;;;;;0;1;1;1;0;73;73;73;;;;;;;;;1347.3672554000004;None;1349.3592272000005;1349.6516625000004;1349.6516625000004;1349.6598584000003;1349.6598584000003;1349.7001928;1349.7001928;None;None;0;1349.7001928;None;1351.2004785;None;['9'];[0.25834840000061376];1351.2004785;None;;;;;;;;Emoconpilot041;2022_Jan_07_1307;BackwardMask;2020.2.8;119.90393296848843;
