Person,primeGender,prime,primeEmotion,corrAnsPrime,targetPerson,targetGender,target,targetEmotion,Cond,corrAnsTar,gender,condition,ID_primer,ID_target,PrimerTime,PrimerTime120,JitterTime,conditionsFile,primePerson,emotion_condition,Condition,example.thisRepN,example.thisTrialN,example.thisN,example.thisIndex,readinBlocks.thisRepN,readinBlocks.thisTrialN,readinBlocks.thisN,readinBlocks.thisIndex,trials.thisRepN,trials.thisTrialN,trials.thisN,trials.thisIndex,text_intro.started,text_intro.stopped,text_probe.started,text_probe.stopped,key_resp_2.keys,key_resp_2.rt,key_resp_2.started,key_resp_2.stopped,polygon_ISI.started,polygon_ISI.stopped,polygon.started,polygon.stopped,primerImage.started,primerImage.stopped,maskImage.started,maskImage.stopped,response.started,response.stopped,key_resp.keys,key_resp.corr,key_resp.started,key_resp.stopped,text.started,text.stopped,key_resp_Rating.keys,key_resp_Rating.rt,key_resp_Rating.started,key_resp_Rating.stopped,text_start.started,text_start.stopped,text_pause.started,text_pause.stopped,key_resp.rt,participant,date,expName,psychopyVersion,frameRate,
,,,,,,,,,,,,,,,,,,,,,,,,,,,,,,,,,,135.34173940000005,140.3038944000001,140.3038944000001,None,7,21.834105000000022,135.34173940000005,None,,,,,,,,,,,,,,,,,,,,,,,,,,Emoconpilot027,2021_Oct_27_1229,BackwardMask,2020.2.8,119.66446085174819,
2,f,1113_y_f_s_a.jpg,sad,7,1,m,1111_m_m_h_a.jpg,happy,incongruent,9,mix,s+h,130,150,1,2,148,,,,,0,0,0,0,,,,,,,,,,,,,,,,,157.28485420000004,None,158.60918550000008,158.9267059,158.9267059,158.96034580000003,158.96034580000003,158.99421210000003,158.99421210000003,None,None,0,158.99421210000003,None,160.49491390000003,None,['8'],[1.2164757000000463],160.49491390000003,None,,,,,,Emoconpilot027,2021_Oct_27_1229,BackwardMask,2020.2.8,119.66446085174819,
2,f,1111_m_m_h_a.jpg,happy,9,3,f,1113_y_f_s_a.jpg,sad,incongruent,7,mix,h+s,120,160,9,18,195,,,,,0,1,1,1,,,,,,,,,,,,,,,,,163.4957406000001,None,165.14655090000008,165.437995,165.437995,165.58728930000007,165.58728930000007,165.62779970000008,165.62779970000008,None,None,0,165.62779970000008,None,167.12819560000003,None,"['9', '7']","[0.03959609999992608, 2.631286599999953]",167.12819560000003,None,,,,,,Emoconpilot027,2021_Oct_27_1229,BackwardMask,2020.2.8,119.66446085174819,
2,f,1112_m_f_n_a.jpg,neutral,8,2,f,1112_m_f_n_a.jpg,neutral,congruent,8,match,n+n,140,170,9,18,134,,,,,0,2,2,2,,,,,,,,,,,,,,,,,170.1288909000001,None,171.2737707,171.5630189000001,171.5630189000001,171.71225560000005,171.71225560000005,171.75381750000008,171.75381750000008,None,None,0,171.75381750000008,None,173.25328750000006,None,"['7', '7']","[0.010112000000049193, 2.170071300000018]",173.25328750000006,None,,,,,,Emoconpilot027,2021_Oct_27_1229,BackwardMask,2020.2.8,119.66446085174819,
,m,033_o_m_h_a.jpg,happy,9,30,f,030_o_f_n_a.jpg,neutral,incongruent,8,mismatch,,120,170,,18,238,block1_Pilot_2,33,h_n,h_n_strong,,,,,0,0,0,0,0,0,0,0,,,,,,,,,177.30864240000005,None,179.30862280000008,179.60419530000001,179.60419530000001,179.75392020000004,179.75392020000004,179.79465900000002,179.79465900000002,None,9,0,179.79465900000002,None,181.29502520000005,None,['7'],[0.7123454000000038],181.29502520000005,None,176.25326630000006,None,None,None,0.6528366999999662,Emoconpilot027,2021_Oct_27_1229,BackwardMask,2020.2.8,119.66446085174819,
,m,004_o_m_h_a.jpg,happy,9,12,f,012_o_f_h_a.jpg,happy,congruent,9,mismatch,,120,150,,2,218,block1_Pilot_2,4,h_h,h_h_weak,,,,,0,0,0,0,0,1,1,1,,,,,,,,,184.29518380000002,None,186.16882570000007,186.4632210000001,186.4632210000001,186.4792569000001,186.4792569000001,186.52048710000008,186.52048710000008,None,None,0,186.52048710000008,None,188.02115270000002,None,['9'],[0.3303215999999338],188.02115270000002,None,,,,,,Emoconpilot027,2021_Oct_27_1229,BackwardMask,2020.2.8,119.66446085174819,
,f,012_o_f_h_a.jpg,happy,9,33,m,033_o_m_h_a.jpg,happy,congruent,9,mismatch,,120,150,,2,140,block1_Pilot_2,12,h_h,h_h_weak,,,,,0,0,0,0,0,2,2,2,,,,,,,,,191.0203792000001,None,192.2026132000001,192.4963629,192.4963629,192.51269810000008,192.51269810000008,192.55324810000002,192.55324810000002,None,9,1,192.55324810000002,None,194.0534745000001,None,None,,194.0534745000001,None,,,,,1.1823082000000795,Emoconpilot027,2021_Oct_27_1229,BackwardMask,2020.2.8,119.66446085174819,
,f,040_y_f_n_a.jpg,neutral,8,40,f,040_y_f_h_a.jpg,happy,incongruent,9,match,,140,150,,2,192,block1_Pilot_2,40,n_h,n_h_weak,,,,,0,0,0,0,0,3,3,3,,,,,,,,,197.0537868,None,198.7250371,199.01366900000005,199.01366900000005,199.02989850000006,199.02989850000006,199.0701725,199.0701725,None,9,1,199.0701725,None,200.5701567000001,None,['7'],[0.48526809999998477],200.5701567000001,None,,,,,1.033382999999958,Emoconpilot027,2021_Oct_27_1229,BackwardMask,2020.2.8,119.66446085174819,
,m,013_y_m_s_a.jpg,sad,7,16,m,016_y_m_n_a.jpg,neutral,incongruent,8,match,,130,170,,3,155,block1_Pilot_2,13,s_n,s_n_weak,,,,,0,0,0,0,0,4,4,4,,,,,,,,,203.57097770000007,None,204.8761009000001,205.17136390000007,205.17136390000007,205.19638650000002,205.19638650000002,205.2368861000001,205.2368861000001,None,7,0,205.2368861000001,None,206.7372474,None,['7'],[1.3181485000000066],206.7372474,None,,,,,1.2906116000000338,Emoconpilot027,2021_Oct_27_1229,BackwardMask,2020.2.8,119.66446085174819,
,f,012_o_f_h_a.jpg,happy,9,21,f,021_o_f_h_a.jpg,happy,congruent,9,match,,120,150,,2,216,block1_Pilot_2,12,h_h,h_h_strong,,,,,0,0,0,0,0,5,5,5,,,,,,,,,209.73724370000002,None,211.54662370000005,211.83825230000002,211.83825230000002,211.85451410000007,211.85451410000007,211.89542970000002,211.89542970000002,None,9,1,211.89542970000002,None,213.3955059000001,None,['7'],[0.7720469999999295],213.3955059000001,None,,,,,1.1519902999999658,Emoconpilot027,2021_Oct_27_1229,BackwardMask,2020.2.8,119.66446085174819,
,f,040_y_f_s_a.jpg,sad,7,40,f,040_y_f_h_a.jpg,happy,incongruent,9,match,,130,150,,1,238,block1_Pilot_2,40,s_h,s_h_weak,,,,,0,0,0,0,0,6,6,6,,,,,,,,,216.39566320000006,None,218.42000570000005,218.71303610000007,218.71303610000007,218.72143210000002,218.72143210000002,218.76213760000007,218.76213760000007,None,None,0,218.76213760000007,None,220.2621851,None,['9'],[1.8092255999999907],220.2621851,None,,,,,,Emoconpilot027,2021_Oct_27_1229,BackwardMask,2020.2.8,119.66446085174819,
,m,033_o_m_n_a.jpg,neutral,8,27,m,027_o_m_n_a.jpg,neutral,congruent,8,match,,140,170,,18,238,block1_Pilot_2,33,n_n,n_n_weak,,,,,0,0,0,0,0,7,7,7,,,,,,,,,223.2623572000001,None,225.35250140000005,225.64705420000007,225.64705420000007,225.79666210000005,225.79666210000005,225.8372604000001,225.8372604000001,None,7,0,225.8372604000001,None,227.33742110000003,None,['7'],[1.5419081000000006],227.33742110000003,None,,,,,1.1541486999999506,Emoconpilot027,2021_Oct_27_1229,BackwardMask,2020.2.8,119.66446085174819,
,f,040_y_f_h_a.jpg,happy,9,19,f,019_m_f_n_a.jpg,neutral,incongruent,8,match,,120,170,,1,238,block1_Pilot_2,40,h_n,h_n_strong,,,,,0,0,0,0,0,8,8,8,,,,,,,,,230.3374851000001,None,232.6325673,232.92295980000006,232.92295980000006,232.93079350000005,232.93079350000005,232.9706354000001,232.9706354000001,None,None,0,232.9706354000001,None,234.47166130000005,None,['9'],[2.0798909000000094],234.47166130000005,None,,,,,,Emoconpilot027,2021_Oct_27_1229,BackwardMask,2020.2.8,119.66446085174819,
,m,013_y_m_h_a.jpg,happy,9,12,f,012_o_f_s_a.jpg,sad,incongruent,7,mismatch,,120,160,,3,198,block1_Pilot_2,13,h_s,h_s_weak,,,,,0,0,0,0,0,9,9,9,,,,,,,,,237.47201340000004,None,239.1766632,239.47218340000006,239.47218340000006,239.49663020000003,239.49663020000003,239.5374974,239.5374974,None,9,0,239.5374974,None,241.03791230000002,None,['7'],[0.49749629999996614],241.03791230000002,None,,,,,0.981957599999987,Emoconpilot027,2021_Oct_27_1229,BackwardMask,2020.2.8,119.66446085174819,
,m,008_y_m_h_a.jpg,happy,9,4,m,004_o_m_n_a.jpg,neutral,incongruent,8,match,,120,170,,18,150,block1_Pilot_2,8,h_n,h_n_strong,,,,,0,0,0,0,0,10,10,10,,,,,,,,,244.03802080000003,None,245.3008092,245.5891818,245.5891818,245.73850720000007,245.73850720000007,245.77928530000008,245.77928530000008,None,9,0,245.77928530000008,None,247.27945910000005,None,['7'],[0.7440144000000828],247.27945910000005,None,,,,,0.7881677999999965,Emoconpilot027,2021_Oct_27_1229,BackwardMask,2020.2.8,119.66446085174819,
,f,019_m_f_h_a.jpg,happy,9,27,m,027_o_m_s_a.jpg,sad,incongruent,7,mismatch,,120,160,,1,238,block1_Pilot_2,19,h_s,h_s_weak,,,,,0,0,0,0,0,11,11,11,,,,,,,,,250.27989660000003,None,252.27622280000003,252.57212570000002,252.57212570000002,252.58034120000002,252.58034120000002,252.6212356000001,252.6212356000001,None,None,0,252.6212356000001,None,254.1212395,None,['9'],[1.4542328999999654],254.1212395,None,,,,,,Emoconpilot027,2021_Oct_27_1229,BackwardMask,2020.2.8,119.66446085174819,
,m,016_y_m_s_a.jpg,sad,7,4,m,004_o_m_s_a.jpg,sad,congruent,7,match,,130,160,,18,142,block1_Pilot_2,16,s_s,s_s_strong,,,,,0,0,0,0,0,12,12,12,,,,,,,,,257.12139590000004,None,258.3198153000001,258.61387620000005,258.61387620000005,258.7638009000001,258.7638009000001,258.8046349000001,258.8046349000001,None,7,1,258.8046349000001,None,260.30470320000006,None,['7'],[1.4387909000000718],260.30470320000006,None,,,,,1.2267550000000256,Emoconpilot027,2021_Oct_27_1229,BackwardMask,2020.2.8,119.66446085174819,
,f,021_o_f_n_a.jpg,neutral,8,21,f,021_o_f_h_a.jpg,happy,incongruent,9,match,,140,150,,3,171,block1_Pilot_2,21,n_h,n_h_weak,,,,,0,0,0,0,0,13,13,13,,,,,,,,,263.304881,None,264.8356688,265.1313566,265.1313566,265.15559640000004,265.15559640000004,265.1964769000001,265.1964769000001,None,8,0,265.1964769000001,None,266.69656050000003,None,['7'],[1.0709961000000021],266.69656050000003,None,,,,,1.4269550999999865,Emoconpilot027,2021_Oct_27_1229,BackwardMask,2020.2.8,119.66446085174819,
,f,012_o_f_h_a.jpg,happy,9,13,m,013_y_m_h_a.jpg,happy,congruent,9,mismatch,,120,150,,3,213,block1_Pilot_2,12,h_h,h_h_weak,,,,,0,0,0,0,0,14,14,14,,,,,,,,,269.6981423000001,None,271.4821733,271.7726758,271.7726758,271.7974438000001,271.7974438000001,271.838257,271.838257,None,9,1,271.838257,None,273.33837660000006,None,['7'],[0.5010606000000735],273.33837660000006,None,,,,,0.737101100000018,Emoconpilot027,2021_Oct_27_1229,BackwardMask,2020.2.8,119.66446085174819,
,f,021_o_f_s_a.jpg,sad,7,27,m,027_o_m_n_a.jpg,neutral,incongruent,8,mismatch,,130,170,,3,174,block1_Pilot_2,21,s_n,s_n_weak,,,,,0,0,0,0,0,15,15,15,,,,,,,,,276.3392569,None,277.8010713000001,278.0894538,278.0894538,278.1144312,278.1144312,278.1551148000001,278.1551148000001,None,None,0,278.1551148000001,None,279.6551408,None,"['7', '7']","[0.39230000000009113, 1.1843002000000524]",279.6551408,None,,,,,,Emoconpilot027,2021_Oct_27_1229,BackwardMask,2020.2.8,119.66446085174819,
,f,019_m_f_n_a.jpg,neutral,8,19,f,019_m_f_h_a.jpg,happy,incongruent,9,match,,140,150,,3,238,block1_Pilot_2,19,n_h,n_h_weak,,,,,0,0,0,0,0,16,16,16,,,,,,,,,282.65533330000005,None,284.6909441,284.9817538000001,284.9817538000001,285.00602030000005,285.00602030000005,285.0468397000001,285.0468397000001,None,8,0,285.0468397000001,None,286.5470121000001,None,['7'],[0.6043670999999904],286.5470121000001,None,,,,,0.8885885999999346,Emoconpilot027,2021_Oct_27_1229,BackwardMask,2020.2.8,119.66446085174819,
,f,028_y_f_n_a.jpg,neutral,8,30,f,030_o_f_s_a.jpg,sad,incongruent,7,match,,140,160,,18,219,block1_Pilot_2,28,n_s,n_s_weak,,,,,0,0,0,0,0,17,17,17,,,,,,,,,289.54699630000005,None,291.39782,291.6904412,291.6904412,291.8396788,291.8396788,291.88031220000005,291.88031220000005,None,7,1,291.88031220000005,None,293.38053460000003,None,['7'],[0.7628911000000471],293.38053460000003,None,,,,,0.863131400000043,Emoconpilot027,2021_Oct_27_1229,BackwardMask,2020.2.8,119.66446085174819,
,m,008_y_m_h_a.jpg,happy,9,8,m,008_y_m_s_a.jpg,sad,incongruent,7,match,,120,160,,3,176,block1_Pilot_2,8,h_s,h_s_weak,,,,,0,0,0,0,0,18,18,18,,,,,,,,,296.38168770000004,None,297.8571336000001,298.14826270000003,298.14826270000003,298.1731854000001,298.1731854000001,298.2138096000001,298.2138096000001,None,9,0,298.2138096000001,None,299.7138447000001,None,['7'],[0.6375272000000223],299.7138447000001,None,,,,,0.617639699999927,Emoconpilot027,2021_Oct_27_1229,BackwardMask,2020.2.8,119.66446085174819,
,f,019_m_f_h_a.jpg,happy,9,33,m,033_o_m_n_a.jpg,neutral,incongruent,8,mismatch,,120,170,,18,136,block1_Pilot_2,19,h_n,h_n_weak,,,,,0,0,0,0,0,19,19,19,,,,,,,,,302.7139622000001,None,303.85510180000006,304.1482039,304.1482039,304.2983918000001,304.2983918000001,304.33894140000007,304.33894140000007,None,9,0,304.33894140000007,None,305.83889540000007,None,['7'],[0.6086455999999316],305.83889540000007,None,,,,,0.7325171999999611,Emoconpilot027,2021_Oct_27_1229,BackwardMask,2020.2.8,119.66446085174819,
,m,013_y_m_n_a.jpg,neutral,8,12,f,012_o_f_s_a.jpg,sad,incongruent,7,mismatch,,140,160,,2,132,block1_Pilot_2,13,n_s,n_s_strong,,,,,0,0,0,0,0,20,20,20,,,,,,,,,308.8392246000001,None,310.00049590000003,310.2909271000001,310.2909271000001,310.3068151000001,310.3068151000001,310.3475747000001,310.3475747000001,None,None,0,310.3475747000001,None,311.8474771000001,None,['8'],[0.15994420000004084],311.8474771000001,None,,,,,,Emoconpilot027,2021_Oct_27_1229,BackwardMask,2020.2.8,119.66446085174819,
,f,040_y_f_s_a.jpg,sad,7,8,m,008_y_m_h_a.jpg,happy,incongruent,9,mismatch,,130,150,,2,175,block1_Pilot_2,40,s_h,s_h_weak,,,,,0,0,0,0,0,21,21,21,,,,,,,,,314.84763670000007,None,316.3145423000001,316.6070033000001,316.6070033000001,316.6236441000001,316.6236441000001,316.6642782,316.6642782,None,None,0,316.6642782,None,318.16438890000006,None,"['8', '7']","[0.7391670999999178, 1.2511244999999462]",318.16438890000006,None,,,,,,Emoconpilot027,2021_Oct_27_1229,BackwardMask,2020.2.8,119.66446085174819,
,m,004_o_m_h_a.jpg,happy,9,40,f,040_y_f_s_a.jpg,sad,incongruent,7,mismatch,,120,160,,2,193,block1_Pilot_2,4,h_s,h_s_weak,,,,,0,0,0,0,0,22,22,22,,,,,,,,,321.1652177000001,None,322.82068760000004,323.11581680000006,323.11581680000006,323.13193250000006,323.13193250000006,323.1726067000001,323.1726067000001,None,9,0,323.1726067000001,None,324.67275760000007,None,['7'],[0.630726799999934],324.67275760000007,None,,,,,0.6108388000000105,Emoconpilot027,2021_Oct_27_1229,BackwardMask,2020.2.8,119.66446085174819,
,f,028_y_f_s_a.jpg,sad,7,13,m,013_y_m_n_a.jpg,neutral,incongruent,8,mismatch,,130,170,,2,126,block1_Pilot_2,28,s_n,s_n_weak,,,,,0,0,0,0,0,23,23,23,,,,,,,,,327.6728951,None,328.7401026,329.0322655000001,329.0322655000001,329.04866300000003,329.04866300000003,329.08946290000006,329.08946290000006,None,None,0,329.08946290000006,None,330.5894809,None,['7'],[0.42593750000003183],330.5894809,None,,,,,,Emoconpilot027,2021_Oct_27_1229,BackwardMask,2020.2.8,119.66446085174819,
,m,004_o_m_h_a.jpg,happy,9,40,f,040_y_f_n_a.jpg,neutral,incongruent,8,mismatch,,120,170,,3,146,block1_Pilot_2,4,h_n,h_n_strong,,,,,0,0,0,0,0,24,24,24,,,,,,,,,333.59078840000006,None,334.8473742000001,335.1411670000001,335.1411670000001,335.16549570000006,335.16549570000006,335.2063412000001,335.2063412000001,None,None,0,335.2063412000001,None,336.7062483000001,None,"['9', '8']","[0.3413223999999673, 1.1572687000000315]",336.7062483000001,None,,,,,,Emoconpilot027,2021_Oct_27_1229,BackwardMask,2020.2.8,119.66446085174819,
,m,008_y_m_s_a.jpg,sad,7,30,f,030_o_f_n_a.jpg,neutral,incongruent,8,mismatch,,130,170,,3,132,block1_Pilot_2,8,s_n,s_n_strong,,,,,0,0,0,0,0,25,25,25,,,,,,,,,339.70649790000004,None,340.83217890000003,341.1244752,341.1244752,341.14895250000006,341.14895250000006,341.18970920000004,341.18970920000004,None,7,0,341.18970920000004,None,342.68983360000004,None,['7'],[0.6696223000000145],342.68983360000004,None,,,,,0.9297457000000122,Emoconpilot027,2021_Oct_27_1229,BackwardMask,2020.2.8,119.66446085174819,
,f,040_y_f_n_a.jpg,neutral,8,40,f,040_y_f_s_a.jpg,sad,incongruent,7,match,,140,160,,2,123,block1_Pilot_2,40,n_s,n_s_weak,,,,,0,0,0,0,0,26,26,26,,,,,,,,,345.68811660000006,None,346.77083100000004,347.0649316,347.0649316,347.0810511000001,347.0810511000001,347.1215439,347.1215439,None,None,0,347.1215439,None,348.6214672000001,None,"['8', '8']","[0.11400170000001708, 0.8339545000000044]",348.6214672000001,None,,,,,,Emoconpilot027,2021_Oct_27_1229,BackwardMask,2020.2.8,119.66446085174819,
,f,028_y_f_s_a.jpg,sad,7,27,m,027_o_m_s_a.jpg,sad,congruent,7,mismatch,,130,160,,3,159,block1_Pilot_2,28,s_s,s_s_weak,,,,,0,0,0,0,0,27,27,27,,,,,,,,,351.6215175000001,None,352.9829731000001,353.2728571,353.2728571,353.2974031000001,353.2974031000001,353.33813640000005,353.33813640000005,None,7,1,353.33813640000005,None,354.8382894,None,['7'],[0.8890695999999707],354.8382894,None,,,,,0.8771963000000369,Emoconpilot027,2021_Oct_27_1229,BackwardMask,2020.2.8,119.66446085174819,
,f,012_o_f_s_a.jpg,sad,7,27,m,027_o_m_s_a.jpg,sad,congruent,7,mismatch,,130,160,,18,166,block1_Pilot_2,12,s_s,s_s_weak,,,,,0,0,0,0,0,28,28,28,,,,,,,,,357.83906850000005,None,359.2339266,359.52436580000006,359.52436580000006,359.67440640000007,359.67440640000007,359.71463600000004,359.71463600000004,None,7,1,359.71463600000004,None,361.21560680000005,None,['7'],[0.5838103000000956],361.21560680000005,None,,,,,0.5808841000000484,Emoconpilot027,2021_Oct_27_1229,BackwardMask,2020.2.8,119.66446085174819,
,f,028_y_f_n_a.jpg,neutral,8,28,f,028_y_f_h_a.jpg,happy,incongruent,9,match,,140,150,,2,186,block1_Pilot_2,28,n_h,n_h_weak,,,,,0,0,0,0,0,29,29,29,,,,,,,,,364.21623910000005,None,365.8691116000001,366.1582347000001,366.1582347000001,366.17465030000005,366.17465030000005,366.21516010000005,366.21516010000005,None,None,0,366.21516010000005,None,367.7153568000001,None,"['8', '8']","[0.5800557000000026, 1.3400348000000122]",367.7153568000001,None,,,,,,Emoconpilot027,2021_Oct_27_1229,BackwardMask,2020.2.8,119.66446085174819,
,m,027_o_m_n_a.jpg,neutral,8,16,m,016_y_m_n_a.jpg,neutral,congruent,8,match,,140,170,,2,188,block1_Pilot_2,27,n_n,n_n_weak,,,,,0,0,0,0,0,30,30,30,,,,,,,,,370.71541260000004,None,372.3087309,372.6004987,372.6004987,372.616392,372.616392,372.6568893000001,372.6568893000001,None,None,0,372.6568893000001,None,374.1571028000001,None,['9'],[0.9463038000000097],374.1571028000001,None,,,,,,Emoconpilot027,2021_Oct_27_1229,BackwardMask,2020.2.8,119.66446085174819,
,f,012_o_f_s_a.jpg,sad,7,13,m,013_y_m_n_a.jpg,neutral,incongruent,8,mismatch,,130,170,,3,162,block1_Pilot_2,12,s_n,s_n_strong,,,,,0,0,0,0,0,31,31,31,,,,,,,,,377.15732130000004,None,378.51192520000006,378.8080238,378.8080238,378.8329547000001,378.8329547000001,378.8737158,378.8737158,None,9,0,378.8737158,None,380.37386620000007,None,['9'],[0.8578370999999834],380.37386620000007,None,,,,,1.4777370999998993,Emoconpilot027,2021_Oct_27_1229,BackwardMask,2020.2.8,119.66446085174819,
,f,012_o_f_s_a.jpg,sad,7,16,m,016_y_m_h_a.jpg,happy,incongruent,9,mismatch,,130,150,,1,238,block1_Pilot_2,12,s_h,s_h_strong,,,,,0,0,0,0,0,32,32,32,,,,,,,,,383.3743058,None,385.36020410000003,385.65823150000006,385.65823150000006,385.66651950000005,385.66651950000005,385.7072250000001,385.7072250000001,None,None,0,385.7072250000001,None,387.20785020000005,None,['9'],[0.9035814000000073],387.20785020000005,None,,,,,,Emoconpilot027,2021_Oct_27_1229,BackwardMask,2020.2.8,119.66446085174819,
,f,028_y_f_n_a.jpg,neutral,8,21,f,021_o_f_n_a.jpg,neutral,congruent,8,match,,140,170,,3,220,block1_Pilot_2,28,n_n,n_n_weak,,,,,0,0,0,0,0,33,33,33,,,,,,,,,390.2078094000001,None,392.1063515000001,392.40094940000006,392.40094940000006,392.4252076,392.4252076,392.4661674,392.4661674,None,8,1,392.4661674,None,393.96612820000007,None,['7'],[1.441338700000074],393.96612820000007,None,,,,,0.8534141000000091,Emoconpilot027,2021_Oct_27_1229,BackwardMask,2020.2.8,119.66446085174819,
,f,040_y_f_h_a.jpg,happy,9,33,m,033_o_m_s_a.jpg,sad,incongruent,7,mismatch,,120,160,,2,194,block1_Pilot_2,40,h_s,h_s_weak,,,,,0,0,0,0,0,34,34,34,,,,,,,,,396.9663646,None,398.59480670000005,398.8838796,398.8838796,398.90052120000007,398.90052120000007,398.9412698000001,398.9412698000001,None,None,0,398.9412698000001,None,400.44154490000005,None,['9'],[0.8142334000000346],400.44154490000005,None,,,,,,Emoconpilot027,2021_Oct_27_1229,BackwardMask,2020.2.8,119.66446085174819,
,f,028_y_f_h_a.jpg,happy,9,8,m,008_y_m_n_a.jpg,neutral,incongruent,8,mismatch,,120,170,,3,162,block1_Pilot_2,28,h_n,h_n_weak,,,,,0,0,0,0,0,35,35,35,,,,,,,,,403.44137710000007,None,404.81030970000006,405.1010484000001,405.1010484000001,405.12536380000006,405.12536380000006,405.16628690000005,405.16628690000005,None,9,0,405.16628690000005,None,406.6669350000001,None,['7'],[0.41262949999998],406.6669350000001,None,,,,,0.761179200000015,Emoconpilot027,2021_Oct_27_1229,BackwardMask,2020.2.8,119.66446085174819,
,m,013_y_m_n_a.jpg,neutral,8,27,m,027_o_m_n_a.jpg,neutral,congruent,8,match,,140,170,,2,126,block1_Pilot_2,13,n_n,n_n_strong,,,,,0,0,0,0,0,36,36,36,,,,,,,,,409.666471,None,410.78655890000005,411.0761146000001,411.0761146000001,411.09248650000006,411.09248650000006,411.13330700000006,411.13330700000006,None,8,1,411.13330700000006,None,412.63308860000006,None,['8'],[0.3746243000000504],412.63308860000006,None,,,,,1.0264442000000145,Emoconpilot027,2021_Oct_27_1229,BackwardMask,2020.2.8,119.66446085174819,
,f,028_y_f_s_a.jpg,sad,7,19,f,019_m_f_n_a.jpg,neutral,incongruent,8,match,,130,170,,2,156,block1_Pilot_2,28,s_n,s_n_strong,,,,,0,0,0,0,0,37,37,37,,,,,,,,,415.6339085000001,None,416.9439343,417.2342434000001,417.2342434000001,417.25073610000004,417.25073610000004,417.2917537000001,417.2917537000001,None,9,0,417.2917537000001,None,418.7919081,None,['8'],[0.4317833000000064],418.7919081,None,,,,,1.187841800000001,Emoconpilot027,2021_Oct_27_1229,BackwardMask,2020.2.8,119.66446085174819,
,m,016_y_m_s_a.jpg,sad,7,19,f,019_m_f_n_a.jpg,neutral,incongruent,8,mismatch,,130,170,,3,138,block1_Pilot_2,16,s_n,s_n_weak,,,,,0,0,0,0,0,38,38,38,,,,,,,,,421.7919524,None,422.9540674000001,423.2427689000001,423.2427689000001,423.2675862000001,423.2675862000001,423.3085178,423.3085178,None,7,0,423.3085178,None,424.8084279000001,None,['7'],[0.4391858000000184],424.8084279000001,None,,,,,0.9233768000000282,Emoconpilot027,2021_Oct_27_1229,BackwardMask,2020.2.8,119.66446085174819,
,m,033_o_m_s_a.jpg,sad,7,27,m,027_o_m_n_a.jpg,neutral,incongruent,8,match,,130,170,,3,120,block1_Pilot_2,33,s_n,s_n_strong,,,,,0,0,0,0,0,39,39,39,,,,,,,,,427.80974520000007,None,428.8215629,429.117841,429.117841,429.14246560000004,429.14246560000004,429.1835288000001,429.1835288000001,None,7,0,429.1835288000001,None,430.68349580000006,None,['7'],[1.0121116999999913],430.68349580000006,None,,,,,0.6959402999999611,Emoconpilot027,2021_Oct_27_1229,BackwardMask,2020.2.8,119.66446085174819,
,f,040_y_f_s_a.jpg,sad,7,33,m,033_o_m_n_a.jpg,neutral,incongruent,8,mismatch,,130,170,,1,238,block1_Pilot_2,40,s_n,s_n_weak,,,,,0,0,0,0,0,40,40,40,,,,,,,,,433.68468540000003,None,435.6790522,435.96799840000006,435.96799840000006,435.9762514,435.9762514,436.01692550000007,436.01692550000007,None,None,0,436.01692550000007,None,437.5175710000001,None,['9'],[0.8022644000000128],437.5175710000001,None,,,,,,Emoconpilot027,2021_Oct_27_1229,BackwardMask,2020.2.8,119.66446085174819,
,f,021_o_f_n_a.jpg,neutral,8,19,f,019_m_f_s_a.jpg,sad,incongruent,7,match,,140,160,,1,238,block1_Pilot_2,21,n_s,n_s_strong,,,,,0,0,0,0,0,41,41,41,,,,,,,,,440.51788710000005,None,442.5870752000001,442.8770382,442.8770382,442.8845583000001,442.8845583000001,442.9255833000001,442.9255833000001,None,None,0,442.9255833000001,None,444.4255267000001,None,['9'],[0.3741016999999829],444.4255267000001,None,,,,,,Emoconpilot027,2021_Oct_27_1229,BackwardMask,2020.2.8,119.66446085174819,
,m,033_o_m_h_a.jpg,happy,9,27,m,027_o_m_h_a.jpg,happy,congruent,9,match,,120,150,,3,134,block1_Pilot_2,33,h_h,h_h_weak,,,,,0,0,0,0,0,42,42,42,,,,,,,,,447.42575120000004,None,448.5555011,448.85162230000003,448.85162230000003,448.87660370000003,448.87660370000003,448.91739530000007,448.91739530000007,None,9,1,448.91739530000007,None,450.4173833000001,None,['7'],[0.526413400000024],450.4173833000001,None,,,,,0.6982686000000058,Emoconpilot027,2021_Oct_27_1229,BackwardMask,2020.2.8,119.66446085174819,
,f,040_y_f_s_a.jpg,sad,7,4,m,004_o_m_h_a.jpg,happy,incongruent,9,mismatch,,130,150,,2,225,block1_Pilot_2,40,s_h,s_h_strong,,,,,0,0,0,0,0,43,43,43,,,,,,,,,453.4174753000001,None,455.30071480000015,455.5932441,455.5932441,455.6100529,455.6100529,455.65063340000006,455.65063340000006,None,8,0,455.65063340000006,None,457.1516693000001,None,['8'],[0.967957399999932],457.1516693000001,None,,,,,1.4049074000001838,Emoconpilot027,2021_Oct_27_1229,BackwardMask,2020.2.8,119.66446085174819,
,m,027_o_m_s_a.jpg,sad,7,21,f,021_o_f_n_a.jpg,neutral,incongruent,8,mismatch,,130,170,,18,238,block1_Pilot_2,27,s_n,s_n_weak,,,,,0,0,0,0,0,44,44,44,,,,,,,,,460.1513709000001,None,462.14706520000004,462.4352666,462.4352666,462.5851559,462.5851559,462.6259407,462.6259407,None,7,0,462.6259407,None,464.1259327,None,['7'],[0.729625900000201],464.1259327,None,,,,,0.8214755999999852,Emoconpilot027,2021_Oct_27_1229,BackwardMask,2020.2.8,119.66446085174819,
,m,016_y_m_h_a.jpg,happy,9,16,m,016_y_m_n_a.jpg,neutral,incongruent,8,match,,120,170,,3,202,block1_Pilot_2,16,h_n,h_n_weak,,,,,0,0,0,0,0,45,45,45,,,,,,,,,467.12595020000003,None,468.8256953,469.1187516,469.1187516,469.1435200000001,469.1435200000001,469.18449980000014,469.18449980000014,None,9,0,469.18449980000014,None,470.6845141000001,None,['7'],[0.6592078999999558],470.6845141000001,None,,,,,0.5592996999998832,Emoconpilot027,2021_Oct_27_1229,BackwardMask,2020.2.8,119.66446085174819,
,m,033_o_m_h_a.jpg,happy,9,13,m,013_y_m_n_a.jpg,neutral,incongruent,8,match,,120,170,,2,150,block1_Pilot_2,33,h_n,h_n_weak,,,,,0,0,0,0,0,46,46,46,,,,,,,,,473.6845008,None,474.94272850000016,475.2354878000001,475.2354878000001,475.2519238,475.2519238,475.2929497,475.2929497,None,None,0,475.2929497,None,476.79311630000007,None,"['9', '8']","[0.11869950000004792, 1.1346126999999342]",476.79311630000007,None,,,,,,Emoconpilot027,2021_Oct_27_1229,BackwardMask,2020.2.8,119.66446085174819,
,f,012_o_f_n_a.jpg,neutral,8,16,m,016_y_m_n_a.jpg,neutral,congruent,8,mismatch,,140,170,,1,238,block1_Pilot_2,12,n_n,n_n_strong,,,,,0,0,0,0,0,47,47,47,,,,,,,,,479.7929564000001,None,481.8328742000001,482.1279346000001,482.1279346000001,482.1354053,482.1354053,482.17638220000003,482.17638220000003,None,None,0,482.17638220000003,None,483.67625440000006,None,['9'],[0.6673875000001317],483.67625440000006,None,,,,,,Emoconpilot027,2021_Oct_27_1229,BackwardMask,2020.2.8,119.66446085174819,
,f,040_y_f_n_a.jpg,neutral,8,30,f,030_o_f_h_a.jpg,happy,incongruent,9,match,,140,150,,2,194,block1_Pilot_2,40,n_h,n_h_strong,,,,,0,0,0,0,0,48,48,48,,,,,,,,,486.6765634000001,None,488.31200020000006,488.60283849999996,488.60283849999996,488.61866980000013,488.61866980000013,488.65979960000004,488.65979960000004,None,8,0,488.65979960000004,None,490.15977010000006,None,['7'],[0.5837724000000435],490.15977010000006,None,,,,,1.2436024000000998,Emoconpilot027,2021_Oct_27_1229,BackwardMask,2020.2.8,119.66446085174819,
,m,013_y_m_n_a.jpg,neutral,8,12,f,012_o_f_s_a.jpg,sad,incongruent,7,mismatch,,140,160,,18,238,block1_Pilot_2,13,n_s,n_s_weak,,,,,0,0,0,0,0,49,49,49,,,,,,,,,493.15962590000004,None,495.16360770000006,495.45288789999995,495.45288789999995,495.60237630000006,495.60237630000006,495.6432093000001,495.6432093000001,None,8,0,495.6432093000001,None,497.1433807000001,None,['7'],[1.6402272000000266],497.1433807000001,None,,,,,0.7404790999999022,Emoconpilot027,2021_Oct_27_1229,BackwardMask,2020.2.8,119.66446085174819,
,f,012_o_f_h_a.jpg,happy,9,12,f,012_o_f_n_a.jpg,neutral,incongruent,8,match,,120,170,,2,125,block1_Pilot_2,12,h_n,h_n_strong,,,,,0,0,0,0,0,50,50,50,,,,,,,,,500.1442059000001,None,501.1981673,501.49430600000005,501.49430600000005,501.51084630000014,501.51084630000014,501.55172430000016,501.55172430000016,None,9,0,501.55172430000016,None,503.0516284,None,['7'],[1.1879766000001837],503.0516284,None,,,,,0.74388399999998,Emoconpilot027,2021_Oct_27_1229,BackwardMask,2020.2.8,119.66446085174819,
,m,008_y_m_s_a.jpg,sad,7,19,f,019_m_f_s_a.jpg,sad,congruent,7,mismatch,,130,160,,2,202,block1_Pilot_2,8,s_s,s_s_strong,,,,,0,0,0,0,0,51,51,51,,,,,,,,,506.0521378000001,None,507.77702450000015,508.06981429999996,508.06981429999996,508.08601210000006,508.08601210000006,508.1269519,508.1269519,None,7,1,508.1269519,None,509.62675420000005,None,['7'],[0.9089344999999867],509.62675420000005,None,,,,,1.2964825999999903,Emoconpilot027,2021_Oct_27_1229,BackwardMask,2020.2.8,119.66446085174819,
,f,028_y_f_n_a.jpg,neutral,8,12,f,012_o_f_n_a.jpg,neutral,congruent,8,match,,140,170,,2,214,block1_Pilot_2,28,n_n,n_n_strong,,,,,0,0,0,0,0,52,52,52,,,,,,,,,512.6270744000001,None,514.4324442,514.728472,514.728472,514.7444234,514.7444234,514.7851876,514.7851876,None,8,1,514.7851876,None,516.2854191000001,None,['8'],[1.050285600000052],516.2854191000001,None,,,,,0.8865419999999631,Emoconpilot027,2021_Oct_27_1229,BackwardMask,2020.2.8,119.66446085174819,
,m,027_o_m_h_a.jpg,happy,9,19,f,019_m_f_h_a.jpg,happy,congruent,9,mismatch,,120,150,,3,165,block1_Pilot_2,27,h_h,h_h_strong,,,,,0,0,0,0,0,53,53,53,,,,,,,,,519.2855751,None,520.6942201000002,520.9869980000001,520.9869980000001,521.0113917000001,521.0113917000001,521.0519812,521.0519812,None,9,1,521.0519812,None,522.5519864,None,['7'],[0.76767800000016],522.5519864,None,,,,,0.5717967000000499,Emoconpilot027,2021_Oct_27_1229,BackwardMask,2020.2.8,119.66446085174819,
,m,008_y_m_s_a.jpg,sad,7,13,m,013_y_m_h_a.jpg,happy,incongruent,9,match,,130,150,,18,200,block1_Pilot_2,8,s_h,s_h_strong,,,,,0,0,0,0,0,54,54,54,,,,,,,,,525.5523096,None,527.2381694000001,527.5286902,527.5286902,527.6781489,527.6781489,527.7189600000002,527.7189600000002,None,7,0,527.7189600000002,None,529.2189659000001,None,['7'],[0.7568002999998953],529.2189659000001,None,,,,,0.7767288000000008,Emoconpilot027,2021_Oct_27_1229,BackwardMask,2020.2.8,119.66446085174819,
,f,030_o_f_n_a.jpg,neutral,8,28,f,028_y_f_s_a.jpg,sad,incongruent,7,match,,140,160,,18,238,block1_Pilot_2,30,n_s,n_s_weak,,,,,0,0,0,0,0,55,55,55,,,,,,,,,532.2198566,None,534.2301051,534.5204912000002,534.5204912000002,534.6697496000002,534.6697496000002,534.7108109000001,534.7108109000001,None,7,1,534.7108109000001,None,536.2107157,None,['7'],[0.7809996999999385],536.2107157,None,,,,,0.6808545999999751,Emoconpilot027,2021_Oct_27_1229,BackwardMask,2020.2.8,119.66446085174819,
,f,019_m_f_h_a.jpg,happy,9,27,m,027_o_m_h_a.jpg,happy,congruent,9,mismatch,,120,150,,1,238,block1_Pilot_2,19,h_h,h_h_strong,,,,,0,0,0,0,0,56,56,56,,,,,,,,,539.2108247000001,None,541.2064986,541.4951628000001,541.4951628000001,541.5032153,541.5032153,541.5442261000001,541.5442261000001,None,None,0,541.5442261000001,None,543.0443065,None,None,,543.0443065,None,,,,,,Emoconpilot027,2021_Oct_27_1229,BackwardMask,2020.2.8,119.66446085174819,
,m,004_o_m_s_a.jpg,sad,7,4,m,004_o_m_h_a.jpg,happy,incongruent,9,match,,130,150,,18,155,block1_Pilot_2,4,s_h,s_h_weak,,,,,0,0,0,0,0,57,57,57,,,,,,,,,546.0450447000001,None,547.3488773000001,547.6452459,547.6452459,547.7950254,547.7950254,547.836069,547.836069,None,None,0,547.836069,None,549.3359938000001,None,['7'],[0.6717009999999846],549.3359938000001,None,,,,,,Emoconpilot027,2021_Oct_27_1229,BackwardMask,2020.2.8,119.66446085174819,
,f,021_o_f_s_a.jpg,sad,7,27,m,027_o_m_n_a.jpg,neutral,incongruent,8,mismatch,,130,170,,3,224,block1_Pilot_2,21,s_n,s_n_weak,,,,,0,0,0,0,0,58,58,58,,,,,,,,,552.3361343000001,None,554.2135783000001,554.5038987,554.5038987,554.5286347000001,554.5286347000001,554.5694751999999,554.5694751999999,None,7,0,554.5694751999999,None,556.0695834,None,['7'],[1.2500304000000142],556.0695834,None,,,,,0.9343250999997963,Emoconpilot027,2021_Oct_27_1229,BackwardMask,2020.2.8,119.66446085174819,
,f,021_o_f_h_a.jpg,happy,9,27,m,027_o_m_n_a.jpg,neutral,incongruent,8,mismatch,,120,170,,2,147,block1_Pilot_2,21,h_n,h_n_strong,,,,,0,0,0,0,0,59,59,59,,,,,,,,,559.0700506000001,None,560.3499821,560.6460412000001,560.6460412000001,560.6621728,560.6621728,560.702976,560.702976,None,None,0,560.702976,None,562.2032621000001,None,['7'],[1.0043124000001171],562.2032621000001,None,,,,,,Emoconpilot027,2021_Oct_27_1229,BackwardMask,2020.2.8,119.66446085174819,
,f,040_y_f_n_a.jpg,neutral,8,13,m,013_y_m_h_a.jpg,happy,incongruent,9,mismatch,,140,150,,3,237,block1_Pilot_2,40,n_h,n_h_strong,,,,,0,0,0,0,0,60,60,60,,,,,,,,,565.2043292000001,None,567.1969564000001,567.4877624000001,567.4877624000001,567.5122145,567.5122145,567.5531455,567.5531455,None,7,0,567.5531455,None,569.0532208,None,['8'],[1.1542394000000513],569.0532208,None,,,,,0.9502837,Emoconpilot027,2021_Oct_27_1229,BackwardMask,2020.2.8,119.66446085174819,
,m,027_o_m_n_a.jpg,neutral,8,19,f,019_m_f_h_a.jpg,happy,incongruent,9,mismatch,,140,150,,3,199,block1_Pilot_2,27,n_h,n_h_strong,,,,,0,0,0,0,0,61,61,61,,,,,,,,,572.0541461,None,573.7338869,574.0296138000001,574.0296138000001,574.0542064000001,574.0542064000001,574.0949757000001,574.0949757000001,None,7,0,574.0949757000001,None,575.5948029000001,None,['7'],[1.100733900000023],575.5948029000001,None,,,,,1.3125724000001355,Emoconpilot027,2021_Oct_27_1229,BackwardMask,2020.2.8,119.66446085174819,
,m,027_o_m_h_a.jpg,happy,9,21,f,021_o_f_s_a.jpg,sad,incongruent,7,mismatch,,120,160,,2,169,block1_Pilot_2,27,h_s,h_s_strong,,,,,0,0,0,0,0,62,62,62,,,,,,,,,578.595804,None,580.0234992000001,580.3133292,580.3133292,580.3291903000002,580.3291903000002,580.3699116,580.3699116,None,9,0,580.3699116,None,581.8700149000001,None,['7'],[0.40947879999998804],581.8700149000001,None,,,,,0.9095965999999862,Emoconpilot027,2021_Oct_27_1229,BackwardMask,2020.2.8,119.66446085174819,
,m,013_y_m_n_a.jpg,neutral,8,33,m,033_o_m_h_a.jpg,happy,incongruent,9,match,,140,150,,18,238,block1_Pilot_2,13,n_h,n_h_strong,,,,,0,0,0,0,0,63,63,63,,,,,,,,,584.8714258,None,586.8730954,587.1632972,587.1632972,587.3126882000001,587.3126882000001,587.3536713000001,587.3536713000001,None,8,0,587.3536713000001,None,588.8534420000001,None,['7'],[1.5782398000001194],588.8534420000001,None,,,,,0.9101537999999891,Emoconpilot027,2021_Oct_27_1229,BackwardMask,2020.2.8,119.66446085174819,
,m,033_o_m_n_a.jpg,neutral,8,30,f,030_o_f_s_a.jpg,sad,incongruent,7,mismatch,,140,160,,1,238,block1_Pilot_2,33,n_s,n_s_weak,,,,,0,0,0,0,0,64,64,64,,,,,,,,,591.8543709,None,593.8630113000002,594.1549275,594.1549275,594.1630066,594.1630066,594.2037452,594.2037452,None,None,0,594.2037452,None,595.7040435000001,None,['9'],[0.8317194999999629],595.7040435000001,None,,,,,,Emoconpilot027,2021_Oct_27_1229,BackwardMask,2020.2.8,119.66446085174819,
,m,033_o_m_s_a.jpg,sad,7,4,m,004_o_m_s_a.jpg,sad,congruent,7,match,,130,160,,18,146,block1_Pilot_2,33,s_s,s_s_weak,,,,,0,0,0,0,0,65,65,65,,,,,,,,,598.7045131,None,599.9294730000001,600.2214413000002,600.2214413000002,600.3711762,600.3711762,600.4120686000001,600.4120686000001,None,7,1,600.4120686000001,None,601.9121580000001,None,['7'],[1.7995421000000533],601.9121580000001,None,,,,,1.1555739000000358,Emoconpilot027,2021_Oct_27_1229,BackwardMask,2020.2.8,119.66446085174819,
,m,016_y_m_s_a.jpg,sad,7,28,f,028_y_f_h_a.jpg,happy,incongruent,9,mismatch,,130,150,,18,238,block1_Pilot_2,16,s_h,s_h_strong,,,,,0,0,0,0,0,66,66,66,,,,,,,,,604.9134431,None,606.9041108000001,607.1964885,607.1964885,607.3465081000002,607.3465081000002,607.3872294,607.3872294,None,7,0,607.3872294,None,608.8872584000001,None,['7'],[0.4644906000000901],608.8872584000001,None,,,,,0.33250150000003487,Emoconpilot027,2021_Oct_27_1229,BackwardMask,2020.2.8,119.66446085174819,
,f,030_o_f_h_a.jpg,happy,9,28,f,028_y_f_h_a.jpg,happy,congruent,9,match,,120,150,,3,234,block1_Pilot_2,30,h_h,h_h_weak,,,,,0,0,0,0,0,67,67,67,,,,,,,,,611.8873801,None,613.8941308000001,614.1888550000001,614.1888550000001,614.2130768,614.2130768,614.2541452,614.2541452,None,9,1,614.2541452,None,615.7539873000001,None,['7'],[1.1017305000000306],615.7539873000001,None,,,,,0.7295974999999544,Emoconpilot027,2021_Oct_27_1229,BackwardMask,2020.2.8,119.66446085174819,
,m,013_y_m_h_a.jpg,happy,9,4,m,004_o_m_h_a.jpg,happy,congruent,9,match,,120,150,,2,141,block1_Pilot_2,13,h_h,h_h_strong,,,,,0,0,0,0,0,68,68,68,,,,,,,,,618.7551054,None,619.9541023000002,620.2472207000001,620.2472207000001,620.2634125,620.2634125,620.3041207000001,620.3041207000001,None,9,1,620.3041207000001,None,621.8043295,None,['7'],[0.5953462999998465],621.8043295,None,,,,,0.5275936000000456,Emoconpilot027,2021_Oct_27_1229,BackwardMask,2020.2.8,119.66446085174819,
,f,028_y_f_s_a.jpg,sad,7,8,m,008_y_m_s_a.jpg,sad,congruent,7,mismatch,,130,160,,1,238,block1_Pilot_2,28,s_s,s_s_strong,,,,,0,0,0,0,0,69,69,69,,,,,,,,,624.8049247000001,None,626.8067495,627.0971551,627.0971551,627.1050192,627.1050192,627.1460423999999,627.1460423999999,None,None,0,627.1460423999999,None,628.6461719000001,None,['9'],[2.1134487000001627],628.6461719000001,None,,,,,,Emoconpilot027,2021_Oct_27_1229,BackwardMask,2020.2.8,119.66446085174819,
,f,028_y_f_s_a.jpg,sad,7,30,f,030_o_f_h_a.jpg,happy,incongruent,9,match,,130,150,,2,199,block1_Pilot_2,28,s_h,s_h_weak,,,,,0,0,0,0,0,70,70,70,,,,,,,,,631.6460955,None,633.3155587000001,633.6053794,633.6053794,633.6218631000002,633.6218631000002,633.6627635,633.6627635,None,9,1,633.6627635,None,635.1628475,None,['7'],[0.8367905999998584],635.1628475,None,,,,,1.1847649999999703,Emoconpilot027,2021_Oct_27_1229,BackwardMask,2020.2.8,119.66446085174819,
,m,008_y_m_h_a.jpg,happy,9,21,f,021_o_f_n_a.jpg,neutral,incongruent,8,mismatch,,120,170,,2,137,block1_Pilot_2,8,h_n,h_n_weak,,,,,0,0,0,0,0,71,71,71,,,,,,,,,638.1638991,None,639.3166974000001,639.6056680000002,639.6056680000002,639.6218196,639.6218196,639.6630098,639.6630098,None,9,0,639.6630098,None,641.1643728000001,None,['8'],[1.619297399999823],641.1643728000001,None,,,,,0.8004455000000235,Emoconpilot027,2021_Oct_27_1229,BackwardMask,2020.2.8,119.66446085174819,
,f,012_o_f_n_a.jpg,neutral,8,8,m,008_y_m_s_a.jpg,sad,incongruent,7,mismatch,,140,160,,2,208,block1_Pilot_2,12,n_s,n_s_weak,,,,,0,0,0,0,0,72,72,72,,,,,,,,,644.1631748,None,645.9426641,646.2395087,646.2395087,646.2554619,646.2554619,646.2963309000002,646.2963309000002,None,None,0,646.2963309000002,None,647.7972777,None,['9'],[1.1941982999999254],647.7972777,None,,,,,,Emoconpilot027,2021_Oct_27_1229,BackwardMask,2020.2.8,119.66446085174819,
,m,016_y_m_n_a.jpg,neutral,8,8,m,008_y_m_n_a.jpg,neutral,congruent,8,match,,140,170,,3,211,block1_Pilot_2,16,n_n,n_n_strong,,,,,0,0,0,0,0,73,73,73,,,,,,,,,650.7963237000001,None,652.5800702000001,652.8727777000001,652.8727777000001,652.8972638,652.8972638,652.9381884,652.9381884,None,8,1,652.9381884,None,654.4383118000001,None,['8'],[0.9133209999999963],654.4383118000001,None,,,,,1.3253138000000035,Emoconpilot027,2021_Oct_27_1229,BackwardMask,2020.2.8,119.66446085174819,
,m,016_y_m_h_a.jpg,happy,9,13,m,013_y_m_s_a.jpg,sad,incongruent,7,match,,120,160,,3,138,block1_Pilot_2,16,h_s,h_s_weak,,,,,0,0,0,0,0,74,74,74,,,,,,,,,657.4392173000001,None,658.5971915,658.889437,658.889437,658.9141502,658.9141502,658.9549488,658.9549488,None,9,0,658.9549488,None,660.4549322,None,['7'],[0.9768248000000312],660.4549322,None,,,,,0.6047889999999825,Emoconpilot027,2021_Oct_27_1229,BackwardMask,2020.2.8,119.66446085174819,
,m,016_y_m_n_a.jpg,neutral,8,19,f,019_m_f_s_a.jpg,sad,incongruent,7,mismatch,,140,160,,2,185,block1_Pilot_2,16,n_s,n_s_strong,,,,,0,0,0,0,0,75,75,75,,,,,,,,,663.4552115000001,None,665.0218032,665.314717,665.314717,665.3310494,665.3310494,665.3718650000001,665.3718650000001,None,8,0,665.3718650000001,None,666.8719047,None,['9'],[0.7677985000000263],666.8719047,None,,,,,1.227844100000084,Emoconpilot027,2021_Oct_27_1229,BackwardMask,2020.2.8,119.66446085174819,
,m,027_o_m_s_a.jpg,sad,7,8,m,008_y_m_s_a.jpg,sad,congruent,7,match,,130,160,,1,238,block1_Pilot_2,27,s_s,s_s_strong,,,,,0,0,0,0,0,76,76,76,,,,,,,,,669.8726941,None,671.8634859000001,672.1562392000001,672.1562392000001,672.1644954000001,672.1644954000001,672.2053001000002,672.2053001000002,None,None,0,672.2053001000002,None,673.7051861,None,['9'],[0.6622883999998521],673.7051861,None,,,,,,Emoconpilot027,2021_Oct_27_1229,BackwardMask,2020.2.8,119.66446085174819,
,f,019_m_f_n_a.jpg,neutral,8,27,m,027_o_m_n_a.jpg,neutral,congruent,8,mismatch,,140,170,,3,186,block1_Pilot_2,19,n_n,n_n_strong,,,,,0,0,0,0,0,77,77,77,,,,,,,,,676.7064953000001,None,678.2900100000002,678.5818712,678.5818712,678.6062178,678.6062178,678.6470099000001,678.6470099000001,None,8,1,678.6470099000001,None,680.1470295000001,None,['8'],[1.1727630000000318],680.1470295000001,None,,,,,0.7286624999999276,Emoconpilot027,2021_Oct_27_1229,BackwardMask,2020.2.8,119.66446085174819,
,m,004_o_m_s_a.jpg,sad,7,12,f,012_o_f_s_a.jpg,sad,congruent,7,mismatch,,130,160,,1,238,block1_Pilot_2,4,s_s,s_s_strong,,,,,0,0,0,0,0,78,78,78,,,,,,,,,683.1475001000001,None,685.1379426000001,685.4319514000001,685.4319514000001,685.4395756000001,685.4395756000001,685.4806528000001,685.4806528000001,None,None,0,685.4806528000001,None,686.9806263,None,['9'],[2.21905670000001],686.9806263,None,,,,,,Emoconpilot027,2021_Oct_27_1229,BackwardMask,2020.2.8,119.66446085174819,
,f,019_m_f_n_a.jpg,neutral,8,13,m,013_y_m_s_a.jpg,sad,incongruent,7,mismatch,,140,160,,3,207,block1_Pilot_2,19,n_s,n_s_strong,,,,,0,0,0,0,0,79,79,79,,,,,,,,,689.9806441000001,None,691.7265993000001,692.0154773000002,692.0154773000002,692.0397378,692.0397378,692.0805906,692.0805906,None,8,0,692.0805906,None,693.5806467,None,['8'],[1.0429922000000715],693.5806467,None,,,,,1.1592183000000205,Emoconpilot027,2021_Oct_27_1229,BackwardMask,2020.2.8,119.66446085174819,
,m,027_o_m_h_a.jpg,happy,9,33,m,033_o_m_h_a.jpg,happy,congruent,9,match,,120,150,,1,238,block1_Pilot_2,27,h_h,h_h_strong,,,,,0,0,0,0,0,80,80,80,,,,,,,,,696.5818737,None,698.5837444000001,698.8739796,698.8739796,698.8815988000001,698.8815988000001,698.9225568000002,698.9225568000002,None,None,0,698.9225568000002,None,700.4226938000002,None,['9'],[0.7448486000000685],700.4226938000002,None,,,,,,Emoconpilot027,2021_Oct_27_1229,BackwardMask,2020.2.8,119.66446085174819,
,m,027_o_m_h_a.jpg,happy,9,21,f,021_o_f_s_a.jpg,sad,incongruent,7,mismatch,,120,160,,1,238,block1_Pilot_2,27,h_s,h_s_weak,,,,,0,0,0,0,0,81,81,81,,,,,,,,,703.4231224,None,705.4249650000002,705.7157400000001,705.7157400000001,705.7233897000001,705.7233897000001,705.7643222000002,705.7643222000002,None,None,0,705.7643222000002,None,707.26424,None,['9'],[0.5672835000000305],707.26424,None,,,,,,Emoconpilot027,2021_Oct_27_1229,BackwardMask,2020.2.8,119.66446085174819,
,m,033_o_m_s_a.jpg,sad,7,40,f,040_y_f_n_a.jpg,neutral,incongruent,8,mismatch,,130,170,,3,146,block1_Pilot_2,33,s_n,s_n_weak,,,,,0,0,0,0,0,82,82,82,,,,,,,,,710.2649226000001,None,711.4889957,711.7820056,711.7820056,711.8068284000001,711.8068284000001,711.8477741000002,711.8477741000002,None,None,0,711.8477741000002,None,713.3477413,None,"['7', '7']","[0.5797441000001982, 0.8357891000000564]",713.3477413,None,,,,,,Emoconpilot027,2021_Oct_27_1229,BackwardMask,2020.2.8,119.66446085174819,
,m,008_y_m_h_a.jpg,happy,9,4,m,004_o_m_s_a.jpg,sad,incongruent,7,match,,120,160,,2,225,block1_Pilot_2,8,h_s,h_s_weak,,,,,0,0,0,0,0,83,83,83,,,,,,,,,716.3479234000001,None,718.2308445000001,718.5238468,718.5238468,718.5403403,718.5403403,718.5811840000001,718.5811840000001,None,9,0,718.5811840000001,None,720.0811435,None,['7'],[0.5105028999998922],720.0811435,None,,,,,0.7705863999999565,Emoconpilot027,2021_Oct_27_1229,BackwardMask,2020.2.8,119.66446085174819,
,f,012_o_f_n_a.jpg,neutral,8,4,m,004_o_m_s_a.jpg,sad,incongruent,7,mismatch,,140,160,,3,150,block1_Pilot_2,12,n_s,n_s_strong,,,,,0,0,0,0,0,84,84,84,,,,,,,,,723.0824034,None,724.3613491000001,724.6579287,724.6579287,724.6821622,724.6821622,724.7230791,724.7230791,None,8,0,724.7230791,None,726.2230755,None,['8'],[1.104571999999962],726.2230755,None,,,,,1.388622499999883,Emoconpilot027,2021_Oct_27_1229,BackwardMask,2020.2.8,119.66446085174819,
,f,021_o_f_s_a.jpg,sad,7,40,f,040_y_f_n_a.jpg,neutral,incongruent,8,match,,130,170,,2,156,block1_Pilot_2,21,s_n,s_n_strong,,,,,0,0,0,0,0,85,85,85,,,,,,,,,729.2238030999999,None,730.5289269,730.8240659,730.8240659,730.8405878000001,730.8405878000001,730.8814344,730.8814344,None,None,0,730.8814344,None,732.3816306000001,None,['9'],[0.4338803000000553],732.3816306000001,None,,,,,,Emoconpilot027,2021_Oct_27_1229,BackwardMask,2020.2.8,119.66446085174819,
,m,004_o_m_n_a.jpg,neutral,8,13,m,013_y_m_n_a.jpg,neutral,congruent,8,match,,140,170,,2,225,block1_Pilot_2,4,n_n,n_n_strong,,,,,0,0,0,0,0,86,86,86,,,,,,,,,735.3821246,None,737.2890855,737.5830855000002,737.5830855000002,737.5990332000001,737.5990332000001,737.6399835,737.6399835,None,9,0,737.6399835,None,739.1400322,None,['8'],[0.5555789000000004],739.1400322,None,,,,,1.1198916000000736,Emoconpilot027,2021_Oct_27_1229,BackwardMask,2020.2.8,119.66446085174819,
,m,016_y_m_n_a.jpg,neutral,8,16,m,016_y_m_h_a.jpg,happy,incongruent,9,match,,140,150,,18,193,block1_Pilot_2,16,n_h,n_h_strong,,,,,0,0,0,0,0,87,87,87,,,,,,,,,742.1407688000002,None,743.7674186000002,744.0580055,744.0580055,744.2076741000001,744.2076741000001,744.2483634,744.2483634,None,None,0,744.2483634,None,745.7484103000002,None,"['7', '7']","[0.3872828999999456, 2.4430975000000217]",745.7484103000002,None,,,,,,Emoconpilot027,2021_Oct_27_1229,BackwardMask,2020.2.8,119.66446085174819,
,m,033_o_m_h_a.jpg,happy,9,4,m,004_o_m_h_a.jpg,happy,congruent,9,match,,120,150,,2,195,block1_Pilot_2,33,h_h,h_h_strong,,,,,0,0,0,0,0,88,88,88,,,,,,,,,748.7484911000001,None,750.3819078000001,750.6744966000001,750.6744966000001,750.6909019,750.6909019,750.7317870000002,750.7317870000002,None,9,1,750.7317870000002,None,752.2319553,None,['7'],[0.9758429000000888],752.2319553,None,,,,,0.6759424999997918,Emoconpilot027,2021_Oct_27_1229,BackwardMask,2020.2.8,119.66446085174819,
,m,027_o_m_h_a.jpg,happy,9,16,m,016_y_m_h_a.jpg,happy,congruent,9,match,,120,150,,3,209,block1_Pilot_2,27,h_h,h_h_weak,,,,,0,0,0,0,0,89,89,89,,,,,,,,,755.232193,None,757.0104393000001,757.3000339,757.3000339,757.3245047,757.3245047,757.3652597,757.3652597,None,9,1,757.3652597,None,758.8654841,None,['7'],[0.7821062000000438],758.8654841,None,,,,,0.8905000999998265,Emoconpilot027,2021_Oct_27_1229,BackwardMask,2020.2.8,119.66446085174819,
,m,033_o_m_s_a.jpg,sad,7,16,m,016_y_m_s_a.jpg,sad,congruent,7,match,,130,160,,3,128,block1_Pilot_2,33,s_s,s_s_strong,,,,,0,0,0,0,0,90,90,90,,,,,,,,,761.8663794000001,None,762.9399661,763.2330782000001,763.2330782000001,763.2578779,763.2578779,763.2988268000001,763.2988268000001,None,7,1,763.2988268000001,None,764.7987930000002,None,['8'],[0.6409716999999091],764.7987930000002,None,,,,,0.9408134000000246,Emoconpilot027,2021_Oct_27_1229,BackwardMask,2020.2.8,119.66446085174819,
,f,021_o_f_s_a.jpg,sad,7,30,f,030_o_f_s_a.jpg,sad,congruent,7,match,,130,160,,1,238,block1_Pilot_2,21,s_s,s_s_strong,,,,,0,0,0,0,0,91,91,91,,,,,,,,,767.7996129,None,769.7878802,770.0831453000001,770.0831453000001,770.0914002,770.0914002,770.1322369,770.1322369,None,None,0,770.1322369,None,771.6323715000001,None,"['9', '8']","[0.06314960000008796, 1.47911820000013]",771.6323715000001,None,,,,,,Emoconpilot027,2021_Oct_27_1229,BackwardMask,2020.2.8,119.66446085174819,
,m,033_o_m_n_a.jpg,neutral,8,28,f,028_y_f_s_a.jpg,sad,incongruent,7,mismatch,,140,160,,18,166,block1_Pilot_2,33,n_s,n_s_strong,,,,,0,0,0,0,0,92,92,92,,,,,,,,,774.6334403000001,None,776.0361004000001,776.3256146000001,776.3256146000001,776.4747918,776.4747918,776.5155487,776.5155487,None,7,1,776.5155487,None,778.0158639000001,None,['7'],[1.6636837000000924],778.0158639000001,None,,,,,0.9001619000000574,Emoconpilot027,2021_Oct_27_1229,BackwardMask,2020.2.8,119.66446085174819,
,f,019_m_f_n_a.jpg,neutral,8,30,f,030_o_f_n_a.jpg,neutral,congruent,8,match,,140,170,,18,228,block1_Pilot_2,19,n_n,n_n_weak,,,,,0,0,0,0,0,93,93,93,,,,,,,,,781.0157603,None,782.9345591000001,783.2255557000001,783.2255557000001,783.3749395,783.3749395,783.4158582,783.4158582,None,8,1,783.4158582,None,784.9158947000001,None,['8'],[0.9398286999999073],784.9158947000001,None,,,,,0.9838250000000244,Emoconpilot027,2021_Oct_27_1229,BackwardMask,2020.2.8,119.66446085174819,
,m,008_y_m_s_a.jpg,sad,7,12,f,012_o_f_h_a.jpg,happy,incongruent,9,mismatch,,130,150,,3,130,block1_Pilot_2,8,s_h,s_h_weak,,,,,0,0,0,0,0,94,94,94,,,,,,,,,787.916866,None,789.0178594000001,789.3092100000001,789.3092100000001,789.3333338,789.3333338,789.3743815,789.3743815,None,7,0,789.3743815,None,790.8743228000001,None,['7'],[1.4213472999999794],790.8743228000001,None,,,,,1.4412431999999171,Emoconpilot027,2021_Oct_27_1229,BackwardMask,2020.2.8,119.66446085174819,
,m,016_y_m_n_a.jpg,neutral,8,28,f,028_y_f_n_a.jpg,neutral,congruent,8,mismatch,,140,170,,18,189,block1_Pilot_2,16,n_n,n_n_strong,,,,,0,0,0,0,0,95,95,95,,,,,,,,,793.87536,None,795.4698124000001,795.7591538000001,795.7591538000001,795.9086799000002,795.9086799000002,795.9496119,795.9496119,None,7,0,795.9496119,None,797.4493732000001,None,['7'],[0.742258799999945],797.4493732000001,None,,,,,0.9300253000001248,Emoconpilot027,2021_Oct_27_1229,BackwardMask,2020.2.8,119.66446085174819,
,f,012_o_f_s_a.jpg,sad,7,16,m,016_y_m_h_a.jpg,happy,incongruent,9,mismatch,,130,150,,3,238,block1_Pilot_2,12,s_h,s_h_strong,,,,,0,0,0,0,0,96,96,96,,,,,,,,,800.4502775000001,None,802.4363863000001,802.7339526000001,802.7339526000001,802.7587295000001,802.7587295000001,802.7995402000001,802.7995402000001,None,None,0,802.7995402000001,None,804.2996803000001,None,['9'],[0.4200773999998546],804.2996803000001,None,,,,,,Emoconpilot027,2021_Oct_27_1229,BackwardMask,2020.2.8,119.66446085174819,
,m,013_y_m_h_a.jpg,happy,9,27,m,027_o_m_h_a.jpg,happy,congruent,9,match,,120,150,,18,238,block1_Pilot_2,13,h_h,h_h_strong,,,,,0,0,0,0,0,97,97,97,,,,,,,,,807.2998477000001,None,809.3038775,809.5926490000002,809.5926490000002,809.7421752,809.7421752,809.7829488,809.7829488,None,9,1,809.7829488,None,811.2831669,None,['7'],[0.8765226000000439],811.2831669,None,,,,,0.5769450999998753,Emoconpilot027,2021_Oct_27_1229,BackwardMask,2020.2.8,119.66446085174819,
,m,016_y_m_s_a.jpg,sad,7,33,m,033_o_m_n_a.jpg,neutral,incongruent,8,match,,130,170,,1,238,block1_Pilot_2,16,s_n,s_n_weak,,,,,0,0,0,0,0,98,98,98,,,,,,,,,814.284165,None,816.2749776,816.5674901,816.5674901,816.5758316000001,816.5758316000001,816.61662,816.61662,None,None,0,816.61662,None,818.1165550000001,None,None,,818.1165550000001,None,,,,,,Emoconpilot027,2021_Oct_27_1229,BackwardMask,2020.2.8,119.66446085174819,
,m,008_y_m_n_a.jpg,neutral,8,30,f,030_o_f_n_a.jpg,neutral,congruent,8,mismatch,,140,170,,1,238,block1_Pilot_2,8,n_n,n_n_weak,,,,,0,0,0,0,0,99,99,99,,,,,,,,,821.1166637000001,None,823.1439358,823.4346411000001,823.4346411000001,823.4425125,823.4425125,823.4834582000001,823.4834582000001,None,None,0,823.4834582000001,None,824.9834248,None,['9'],[0.5682928000001084],824.9834248,None,,,,,,Emoconpilot027,2021_Oct_27_1229,BackwardMask,2020.2.8,119.66446085174819,
,m,008_y_m_s_a.jpg,sad,7,30,f,030_o_f_s_a.jpg,sad,congruent,7,mismatch,,130,160,,2,133,block1_Pilot_2,8,s_s,s_s_weak,,,,,0,0,0,0,0,100,100,100,,,,,,,,,827.983919,None,829.1118973,829.4015798,829.4015798,829.4176028000002,829.4176028000002,829.4584762,829.4584762,None,7,1,829.4584762,None,830.9584868,None,['8'],[0.40912100000014107],830.9584868,None,,,,,1.1492212000000563,Emoconpilot027,2021_Oct_27_1229,BackwardMask,2020.2.8,119.66446085174819,
,f,040_y_f_n_a.jpg,neutral,8,30,f,030_o_f_s_a.jpg,sad,incongruent,7,match,,140,160,,3,197,block1_Pilot_2,40,n_s,n_s_strong,,,,,0,0,0,0,0,101,101,101,,,,,,,,,833.9589246,None,835.6196908,835.9099406,835.9099406,835.9343406,835.9343406,835.975269,835.975269,None,7,1,835.975269,None,837.4752897000001,None,['7'],[0.8442411000000902],837.4752897000001,None,,,,,1.0564125000000786,Emoconpilot027,2021_Oct_27_1229,BackwardMask,2020.2.8,119.66446085174819,
,m,004_o_m_h_a.jpg,happy,9,30,f,030_o_f_s_a.jpg,sad,incongruent,7,mismatch,,120,160,,3,121,block1_Pilot_2,4,h_s,h_s_strong,,,,,0,0,0,0,0,102,102,102,,,,,,,,,840.4760948,None,841.5075476,841.8018672000001,841.8018672000001,841.826255,841.826255,841.8671796000001,841.8671796000001,None,9,0,841.8671796000001,None,843.3674907,None,['7'],[0.7441585999999916],843.3674907,None,,,,,0.5164170999998987,Emoconpilot027,2021_Oct_27_1229,BackwardMask,2020.2.8,119.66446085174819,
,f,040_y_f_h_a.jpg,happy,9,8,m,008_y_m_h_a.jpg,happy,congruent,9,mismatch,,120,150,,18,211,block1_Pilot_2,40,h_h,h_h_weak,,,,,0,0,0,0,0,103,103,103,,,,,,,,,846.367295,None,848.1335855,848.4264291,848.4264291,848.5762624000001,848.5762624000001,848.6170766,848.6170766,None,9,1,848.6170766,None,850.1174760000001,None,['7'],[0.6742391999998745],850.1174760000001,None,,,,,0.5107279999999719,Emoconpilot027,2021_Oct_27_1229,BackwardMask,2020.2.8,119.66446085174819,
,f,019_m_f_s_a.jpg,sad,7,16,m,016_y_m_n_a.jpg,neutral,incongruent,8,mismatch,,130,170,,2,198,block1_Pilot_2,19,s_n,s_n_strong,,,,,0,0,0,0,0,104,104,104,,,,,,,,,853.1183214,None,854.8163995,855.1104034,855.1104034,855.1265331,855.1265331,855.1673583000002,855.1673583000002,None,7,0,855.1673583000002,None,856.6674369,None,['7'],[0.46033280000006016],856.6674369,None,,,,,0.8963624999998956,Emoconpilot027,2021_Oct_27_1229,BackwardMask,2020.2.8,119.66446085174819,
,f,040_y_f_s_a.jpg,sad,7,12,f,012_o_f_s_a.jpg,sad,congruent,7,match,,130,160,,18,240,block1_Pilot_2,40,s_s,s_s_strong,,,,,0,0,0,0,0,105,105,105,,,,,,,,,859.6682676,None,861.6760422,861.9684226000002,861.9684226000002,862.1182308,862.1182308,862.1590152000001,862.1590152000001,None,7,1,862.1590152000001,None,863.6591680000001,None,['7'],[1.1325676999999814],863.6591680000001,None,,,,,0.3845717000001514,Emoconpilot027,2021_Oct_27_1229,BackwardMask,2020.2.8,119.66446085174819,
,f,040_y_f_n_a.jpg,neutral,8,33,m,033_o_m_s_a.jpg,sad,incongruent,7,mismatch,,140,160,,3,188,block1_Pilot_2,40,n_s,n_s_weak,,,,,0,0,0,0,0,106,106,106,,,,,,,,,866.6593421,None,868.2671423000002,868.5607443000001,868.5607443000001,868.5850947000001,868.5850947000001,868.6260063,868.6260063,None,7,1,868.6260063,None,870.1259600000001,None,['8'],[0.8336569000000509],870.1259600000001,None,,,,,1.093689300000051,Emoconpilot027,2021_Oct_27_1229,BackwardMask,2020.2.8,119.66446085174819,
,f,028_y_f_h_a.jpg,happy,9,21,f,021_o_f_s_a.jpg,sad,incongruent,7,match,,120,160,,3,193,block1_Pilot_2,28,h_s,h_s_strong,,,,,0,0,0,0,0,107,107,107,,,,,,,,,873.1267505000001,None,874.7448924,875.0356348,875.0356348,875.0601603,875.0601603,875.101103,875.101103,None,9,0,875.101103,None,876.601989,None,['7'],[0.4297371000000112],876.601989,None,,,,,0.7465265999999247,Emoconpilot027,2021_Oct_27_1229,BackwardMask,2020.2.8,119.66446085174819,
,f,040_y_f_s_a.jpg,sad,7,13,m,013_y_m_n_a.jpg,neutral,incongruent,8,mismatch,,130,170,,2,198,block1_Pilot_2,40,s_n,s_n_strong,,,,,0,0,0,0,0,108,108,108,,,,,,,,,879.6023123,None,881.2588849000001,881.5521747,881.5521747,881.5686788,881.5686788,881.6094514000001,881.6094514000001,None,None,0,881.6094514000001,None,883.1098344,None,['9'],[1.0417916999999761],883.1098344,None,,,,,,Emoconpilot027,2021_Oct_27_1229,BackwardMask,2020.2.8,119.66446085174819,
,f,030_o_f_n_a.jpg,neutral,8,33,m,033_o_m_s_a.jpg,sad,incongruent,7,mismatch,,140,160,,1,238,block1_Pilot_2,30,n_s,n_s_strong,,,,,0,0,0,0,0,109,109,109,,,,,,,,,886.1097260000001,None,888.1549304,888.4444577000002,888.4444577000002,888.4523231000001,888.4523231000001,888.4930461000001,888.4930461000001,None,None,0,888.4930461000001,None,889.993027,None,['8'],[1.6865843999999015],889.993027,None,,,,,,Emoconpilot027,2021_Oct_27_1229,BackwardMask,2020.2.8,119.66446085174819,
,f,021_o_f_h_a.jpg,happy,9,40,f,040_y_f_n_a.jpg,neutral,incongruent,8,match,,120,170,,2,125,block1_Pilot_2,21,h_n,h_n_weak,,,,,0,0,0,0,0,110,110,110,,,,,,,,,892.9939692,None,894.0567151,894.3530313000001,894.3530313000001,894.3690686,894.3690686,894.4099268,894.4099268,None,9,0,894.4099268,None,895.9098931000001,None,['7'],[0.5298261999998886],895.9098931000001,None,,,,,1.1097622000002048,Emoconpilot027,2021_Oct_27_1229,BackwardMask,2020.2.8,119.66446085174819,
,f,021_o_f_h_a.jpg,happy,9,16,m,016_y_m_s_a.jpg,sad,incongruent,7,mismatch,,120,160,,1,238,block1_Pilot_2,21,h_s,h_s_strong,,,,,0,0,0,0,0,111,111,111,,,,,,,,,898.9099131,None,900.9139661000002,901.2031115,901.2031115,901.2107561,901.2107561,901.2516016,901.2516016,None,None,0,901.2516016,None,902.7516942,None,['9'],[0.7038995000000341],902.7516942,None,,,,,,Emoconpilot027,2021_Oct_27_1229,BackwardMask,2020.2.8,119.66446085174819,
,f,012_o_f_h_a.jpg,happy,9,8,m,008_y_m_s_a.jpg,sad,incongruent,7,mismatch,,120,160,,1,238,block1_Pilot_2,12,h_s,h_s_weak,,,,,0,0,0,0,0,112,112,112,,,,,,,,,905.7522854000001,None,907.7427935000001,908.0364579,908.0364579,908.0443018000001,908.0443018000001,908.0851515000002,908.0851515000002,None,None,0,908.0851515000002,None,909.5854848000001,None,['9'],[0.6302014000000327],909.5854848000001,None,,,,,,Emoconpilot027,2021_Oct_27_1229,BackwardMask,2020.2.8,119.66446085174819,
,m,013_y_m_h_a.jpg,happy,9,16,m,016_y_m_s_a.jpg,sad,incongruent,7,match,,120,160,,3,202,block1_Pilot_2,13,h_s,h_s_weak,,,,,0,0,0,0,0,113,113,113,,,,,,,,,912.5852723,None,914.2906142000002,914.5867022,914.5867022,914.6109643,914.6109643,914.6517049000001,914.6517049000001,None,9,0,914.6517049000001,None,916.1520691000001,None,['7'],[1.4077078999998776],916.1520691000001,None,,,,,0.571794299999965,Emoconpilot027,2021_Oct_27_1229,BackwardMask,2020.2.8,119.66446085174819,
,f,019_m_f_s_a.jpg,sad,7,4,m,004_o_m_n_a.jpg,neutral,incongruent,8,mismatch,,130,170,,1,238,block1_Pilot_2,19,s_n,s_n_strong,,,,,0,0,0,0,0,114,114,114,,,,,,,,,919.1525644000001,None,921.1544569,921.4452121000002,921.4452121000002,921.4528141000001,921.4528141000001,921.4938148000001,921.4938148000001,None,8,1,921.4938148000001,None,922.9938332000002,None,['9'],[0.33381569999983185],922.9938332000002,None,,,,,1.1216905000001134,Emoconpilot027,2021_Oct_27_1229,BackwardMask,2020.2.8,119.66446085174819,
,f,028_y_f_n_a.jpg,neutral,8,27,m,027_o_m_s_a.jpg,sad,incongruent,7,mismatch,,140,160,,18,238,block1_Pilot_2,28,n_s,n_s_strong,,,,,0,0,0,0,0,115,115,115,,,,,,,,,925.9940137000001,None,927.9965214000001,928.2869615,928.2869615,928.4366008,928.4366008,928.4771406,928.4771406,None,7,1,928.4771406,None,929.9772967000001,None,['7'],[0.6063629000000219],929.9772967000001,None,,,,,0.9705366999999114,Emoconpilot027,2021_Oct_27_1229,BackwardMask,2020.2.8,119.66446085174819,
,m,013_y_m_s_a.jpg,sad,7,12,f,012_o_f_h_a.jpg,happy,incongruent,9,mismatch,,130,150,,1,238,block1_Pilot_2,13,s_h,s_h_strong,,,,,0,0,0,0,0,116,116,116,,,,,,,,,932.9782239000001,None,934.9778832,935.2699675000001,935.2699675000001,935.2782176000001,935.2782176000001,935.3190096000001,935.3190096000001,None,None,0,935.3190096000001,None,936.8190051000001,None,['9'],[0.4046412000000146],936.8190051000001,None,,,,,,Emoconpilot027,2021_Oct_27_1229,BackwardMask,2020.2.8,119.66446085174819,
,m,016_y_m_s_a.jpg,sad,7,19,f,019_m_f_h_a.jpg,happy,incongruent,9,mismatch,,130,150,,1,238,block1_Pilot_2,16,s_h,s_h_strong,,,,,0,0,0,0,0,117,117,117,,,,,,,,,939.8192365,None,941.8108815,942.1035327,942.1035327,942.1115534,942.1115534,942.1525705000001,942.1525705000001,None,None,0,942.1525705000001,None,943.6524074000001,None,['9'],[0.5713812999999845],943.6524074000001,None,,,,,,Emoconpilot027,2021_Oct_27_1229,BackwardMask,2020.2.8,119.66446085174819,
,m,013_y_m_s_a.jpg,sad,7,21,f,021_o_f_h_a.jpg,happy,incongruent,9,mismatch,,130,150,,18,238,block1_Pilot_2,13,s_h,s_h_strong,,,,,0,0,0,0,0,118,118,118,,,,,,,,,946.6535370000001,None,948.6450655000001,948.9368868000001,948.9368868000001,949.0866834000001,949.0866834000001,949.1275985,949.1275985,None,7,0,949.1275985,None,950.6276842,None,['7'],[1.0840385000001334],950.6276842,None,,,,,0.5601853999999094,Emoconpilot027,2021_Oct_27_1229,BackwardMask,2020.2.8,119.66446085174819,
,f,012_o_f_s_a.jpg,sad,7,13,m,013_y_m_h_a.jpg,happy,incongruent,9,mismatch,,130,150,,3,235,block1_Pilot_2,12,s_h,s_h_weak,,,,,0,0,0,0,0,119,119,119,,,,,,,,,953.6279947,None,955.589547,955.8867309,955.8867309,955.9117606,955.9117606,955.9529400000001,955.9529400000001,None,9,1,955.9529400000001,None,957.4528701000002,None,['7'],[0.7148439000000053],957.4528701000002,None,,,,,1.2388424000000668,Emoconpilot027,2021_Oct_27_1229,BackwardMask,2020.2.8,119.66446085174819,
,f,019_m_f_s_a.jpg,sad,7,30,f,030_o_f_h_a.jpg,happy,incongruent,9,match,,130,150,,3,235,block2_Pilot_2,19,s_h,s_h_strong,,,,,0,1,1,1,0,0,0,0,,,,,,,,,980.4907869000001,None,982.4580936,982.7546523000001,982.7546523000001,982.7790620000001,982.7790620000001,982.8199052,982.8199052,None,None,0,982.8199052,None,984.3207738000001,None,['9'],[1.0469702000000325],984.3207738000001,None,,,960.4530810000001,None,,Emoconpilot027,2021_Oct_27_1229,BackwardMask,2020.2.8,119.66446085174819,
,m,008_y_m_n_a.jpg,neutral,8,40,f,040_y_f_h_a.jpg,happy,incongruent,9,mismatch,,140,150,,2,121,block2_Pilot_2,8,n_h,n_h_strong,,,,,0,1,1,1,0,1,1,1,,,,,,,,,987.3208766,None,988.3475297,988.6381220000001,988.6381220000001,988.6542782000001,988.6542782000001,988.6951066000001,988.6951066000001,None,7,0,988.6951066000001,None,990.1950764000001,None,['7'],[1.196525099999917],990.1950764000001,None,,,,,0.9526483000001917,Emoconpilot027,2021_Oct_27_1229,BackwardMask,2020.2.8,119.66446085174819,
,f,012_o_f_h_a.jpg,happy,9,27,m,027_o_m_n_a.jpg,neutral,incongruent,8,mismatch,,120,170,,2,240,block2_Pilot_2,12,h_n,h_n_weak,,,,,0,1,1,1,0,2,2,2,,,,,,,,,993.1960708000001,None,995.2031565,995.4962566000002,995.4962566000002,995.5127973000001,995.5127973000001,995.5536185000001,995.5536185000001,None,9,0,995.5536185000001,None,997.0538877000001,None,['7'],[0.5296975999999631],997.0538877000001,None,,,,,0.48610020000000986,Emoconpilot027,2021_Oct_27_1229,BackwardMask,2020.2.8,119.66446085174819,
,m,008_y_m_h_a.jpg,happy,9,40,f,040_y_f_h_a.jpg,happy,congruent,9,mismatch,,120,150,,18,195,block2_Pilot_2,8,h_h,h_h_strong,,,,,0,1,1,1,0,3,3,3,,,,,,,,,1000.0545317000001,None,1001.6867328000001,1001.9798324000001,1001.9798324000001,1002.1294179000001,1002.1294179000001,1002.1701858000001,1002.1701858000001,None,9,1,1002.1701858000001,None,1003.6704071000001,None,['7'],[0.545218400000067],1003.6704071000001,None,,,,,0.4696718999998666,Emoconpilot027,2021_Oct_27_1229,BackwardMask,2020.2.8,119.66446085174819,
,m,004_o_m_n_a.jpg,neutral,8,33,m,033_o_m_s_a.jpg,sad,incongruent,7,match,,140,160,,18,126,block2_Pilot_2,4,n_s,n_s_weak,,,,,0,1,1,1,0,4,4,4,,,,,,,,,1006.6713434000001,None,1007.7504648000001,1008.0470296000001,1008.0470296000001,1008.1963318,1008.1963318,1008.2372303,1008.2372303,None,7,1,1008.2372303,None,1009.7371184000001,None,['7'],[0.5745957999999973],1009.7371184000001,None,,,,,0.8905495000001338,Emoconpilot027,2021_Oct_27_1229,BackwardMask,2020.2.8,119.66446085174819,
,f,028_y_f_s_a.jpg,sad,7,27,m,027_o_m_n_a.jpg,neutral,incongruent,8,mismatch,,130,170,,18,225,block2_Pilot_2,28,s_n,s_n_strong,,,,,0,1,1,1,0,5,5,5,,,,,,,,,1012.7378816,None,1014.6238388000002,1014.9134859000001,1014.9134859000001,1015.0631172000001,1015.0631172000001,1015.1039276000001,1015.1039276000001,None,7,0,1015.1039276000001,None,1016.6041047000001,None,['7'],[0.619508800000176],1016.6041047000001,None,,,,,0.36772430000019085,Emoconpilot027,2021_Oct_27_1229,BackwardMask,2020.2.8,119.66446085174819,
,m,027_o_m_s_a.jpg,sad,7,30,f,030_o_f_h_a.jpg,happy,incongruent,9,mismatch,,130,150,,18,238,block2_Pilot_2,27,s_h,s_h_weak,,,,,0,1,1,1,0,6,6,6,,,,,,,,,1019.604853,None,1021.5956519000001,1021.8885505000001,1021.8885505000001,1022.0382633000002,1022.0382633000002,1022.0791201,1022.0791201,None,7,0,1022.0791201,None,1023.5793688000001,None,['7'],[0.5403749999998126],1023.5793688000001,None,,,,,0.4166715999999724,Emoconpilot027,2021_Oct_27_1229,BackwardMask,2020.2.8,119.66446085174819,
,m,033_o_m_h_a.jpg,happy,9,40,f,040_y_f_s_a.jpg,sad,incongruent,7,mismatch,,120,160,,1,238,block2_Pilot_2,33,h_s,h_s_strong,,,,,0,1,1,1,0,7,7,7,,,,,,,,,1026.5801102,None,1028.570444,1028.8636627,1028.8636627,1028.8717266,1028.8717266,1028.9125697,1028.9125697,None,None,0,1028.9125697,None,1030.412523,None,['9'],[0.8353099999999358],1030.412523,None,,,,,,Emoconpilot027,2021_Oct_27_1229,BackwardMask,2020.2.8,119.66446085174819,
,f,012_o_f_n_a.jpg,neutral,8,12,f,012_o_f_h_a.jpg,happy,incongruent,9,match,,140,150,,2,200,block2_Pilot_2,12,n_h,n_h_weak,,,,,0,1,1,1,0,8,8,8,,,,,,,,,1033.4137629000002,None,1035.1174648,1035.4141443,1035.4141443,1035.4301356,1035.4301356,1035.4709918,1035.4709918,None,7,0,1035.4709918,None,1036.9711106,None,['8'],[0.7726387000000159],1036.9711106,None,,,,,0.9527344000000539,Emoconpilot027,2021_Oct_27_1229,BackwardMask,2020.2.8,119.66446085174819,
,f,030_o_f_n_a.jpg,neutral,8,19,f,019_m_f_n_a.jpg,neutral,congruent,8,match,,140,170,,1,238,block2_Pilot_2,30,n_n,n_n_weak,,,,,0,1,1,1,0,9,9,9,,,,,,,,,1039.9719863,None,1041.974875,1042.2643788,1042.2643788,1042.2720394,1042.2720394,1042.3129046000001,1042.3129046000001,None,None,0,1042.3129046000001,None,1043.8129094,None,['9'],[0.5307607000002008],1043.8129094,None,,,,,,Emoconpilot027,2021_Oct_27_1229,BackwardMask,2020.2.8,119.66446085174819,
,m,013_y_m_h_a.jpg,happy,9,8,m,008_y_m_n_a.jpg,neutral,incongruent,8,match,,120,170,,1,238,block2_Pilot_2,13,h_n,h_n_strong,,,,,0,1,1,1,0,10,10,10,,,,,,,,,1046.8138038,None,1048.8182570000001,1049.1144097000001,1049.1144097000001,1049.1221173000001,1049.1221173000001,1049.1629098,1049.1629098,None,None,0,1049.1629098,None,1050.6631648,None,['9'],[0.5285833999998886],1050.6631648,None,,,,,,Emoconpilot027,2021_Oct_27_1229,BackwardMask,2020.2.8,119.66446085174819,
,f,040_y_f_h_a.jpg,happy,9,19,f,019_m_f_s_a.jpg,sad,incongruent,7,match,,120,160,,3,133,block2_Pilot_2,40,h_s,h_s_strong,,,,,0,1,1,1,0,11,11,11,,,,,,,,,1053.6633415000001,None,1054.780095,1055.0724849,1055.0724849,1055.0970906,1055.0970906,1055.1382711,1055.1382711,None,9,0,1055.1382711,None,1056.6383171,None,['7'],[0.7212847999999212],1056.6383171,None,,,,,0.7653821999999764,Emoconpilot027,2021_Oct_27_1229,BackwardMask,2020.2.8,119.66446085174819,
,f,040_y_f_h_a.jpg,happy,9,13,m,013_y_m_s_a.jpg,sad,incongruent,7,mismatch,,120,160,,3,226,block2_Pilot_2,40,h_s,h_s_strong,,,,,0,1,1,1,0,12,12,12,,,,,,,,,1059.6381800000001,None,1061.5299834,1061.8226093,1061.8226093,1061.8474095000001,1061.8474095000001,1061.8882547,1061.8882547,None,9,0,1061.8882547,None,1063.3884635,None,['7'],[1.163025399999924],1063.3884635,None,,,,,0.8394977000000381,Emoconpilot027,2021_Oct_27_1229,BackwardMask,2020.2.8,119.66446085174819,
,f,030_o_f_s_a.jpg,sad,7,27,m,027_o_m_h_a.jpg,happy,incongruent,9,mismatch,,130,150,,1,238,block2_Pilot_2,30,s_h,s_h_strong,,,,,0,1,1,1,0,13,13,13,,,,,,,,,1066.3892973,None,1068.4366604000002,1068.7316504,1068.7316504,1068.7394619000002,1068.7394619000002,1068.7801519,1068.7801519,None,None,0,1068.7801519,None,1070.2806112,None,['9'],[0.7590583000001061],1070.2806112,None,,,,,,Emoconpilot027,2021_Oct_27_1229,BackwardMask,2020.2.8,119.66446085174819,
,m,033_o_m_h_a.jpg,happy,9,30,f,030_o_f_s_a.jpg,sad,incongruent,7,mismatch,,120,160,,1,238,block2_Pilot_2,33,h_s,h_s_weak,,,,,0,1,1,1,0,14,14,14,,,,,,,,,1073.2807378,None,1075.2736521000002,1075.5645921,1075.5645921,1075.5726823,1075.5726823,1075.6135962,1075.6135962,None,None,0,1075.6135962,None,1077.1135701,None,['9'],[0.5660378000000037],1077.1135701,None,,,,,,Emoconpilot027,2021_Oct_27_1229,BackwardMask,2020.2.8,119.66446085174819,
,f,030_o_f_s_a.jpg,sad,7,28,f,028_y_f_n_a.jpg,neutral,incongruent,8,match,,130,170,,3,198,block2_Pilot_2,30,s_n,s_n_weak,,,,,0,1,1,1,0,15,15,15,,,,,,,,,1080.1137006000001,None,1081.7991172,1082.0900483,1082.0900483,1082.1145911,1082.1145911,1082.1554098000001,1082.1554098000001,None,8,1,1082.1554098000001,None,1083.6554484,None,['8'],[1.09635749999984],1083.6554484,None,,,,,1.2040938000000097,Emoconpilot027,2021_Oct_27_1229,BackwardMask,2020.2.8,119.66446085174819,
,f,030_o_f_s_a.jpg,sad,7,33,m,033_o_m_h_a.jpg,happy,incongruent,9,mismatch,,130,150,,3,175,block2_Pilot_2,30,s_h,s_h_weak,,,,,0,1,1,1,0,16,16,16,,,,,,,,,1086.655447,None,1088.1352622,1088.431967,1088.431967,1088.4562931,1088.4562931,1088.4972913000001,1088.4972913000001,None,7,0,1088.4972913000001,None,1089.9972376,None,['8'],[0.7545149000000038],1089.9972376,None,,,,,1.038275499999827,Emoconpilot027,2021_Oct_27_1229,BackwardMask,2020.2.8,119.66446085174819,
,f,021_o_f_h_a.jpg,happy,9,30,f,030_o_f_h_a.jpg,happy,congruent,9,match,,120,150,,2,194,block2_Pilot_2,21,h_h,h_h_strong,,,,,0,1,1,1,0,17,17,17,,,,,,,,,1092.9982049,None,1094.6331075,1094.9237526,1094.9237526,1094.9397341000001,1094.9397341000001,1094.9804923000002,1094.9804923000002,None,9,1,1094.9804923000002,None,1096.4807875000001,None,['7'],[1.6789238999999725],1096.4807875000001,None,,,,,0.8031326000000263,Emoconpilot027,2021_Oct_27_1229,BackwardMask,2020.2.8,119.66446085174819,
,f,019_m_f_n_a.jpg,neutral,8,16,m,016_y_m_s_a.jpg,sad,incongruent,7,mismatch,,140,160,,18,163,block2_Pilot_2,19,n_s,n_s_weak,,,,,0,1,1,1,0,18,18,18,,,,,,,,,1099.4814365,None,1100.85852,1101.1488038,1101.1488038,1101.2982483,1101.2982483,1101.3390903,1101.3390903,None,8,0,1101.3390903,None,1102.8390611,None,['7'],[1.3767219999999725],1102.8390611,None,,,,,0.8605590999998185,Emoconpilot027,2021_Oct_27_1229,BackwardMask,2020.2.8,119.66446085174819,
,m,033_o_m_n_a.jpg,neutral,8,13,m,013_y_m_n_a.jpg,neutral,congruent,8,match,,140,170,,2,217,block2_Pilot_2,33,n_n,n_n_strong,,,,,0,1,1,1,0,19,19,19,,,,,,,,,1105.8398986,None,1107.6850195,1107.9740961,1107.9740961,1107.9900399,1107.9900399,1108.0309206,1108.0309206,None,8,1,1108.0309206,None,1109.5310285,None,['8'],[0.46069340000008197],1109.5310285,None,,,,,0.9290223999998943,Emoconpilot027,2021_Oct_27_1229,BackwardMask,2020.2.8,119.66446085174819,
,m,033_o_m_h_a.jpg,happy,9,13,m,013_y_m_n_a.jpg,neutral,incongruent,8,match,,120,170,,2,227,block2_Pilot_2,33,h_n,h_n_weak,,,,,0,1,1,1,0,20,20,20,,,,,,,,,1112.5311749,None,1114.4323572,1114.723722,1114.723722,1114.7401897,1114.7401897,1114.7810221,1114.7810221,None,9,0,1114.7810221,None,1116.2811181,None,['7'],[1.55052969999997],1116.2811181,None,,,,,0.6346556000000874,Emoconpilot027,2021_Oct_27_1229,BackwardMask,2020.2.8,119.66446085174819,
,f,012_o_f_s_a.jpg,sad,7,16,m,016_y_m_n_a.jpg,neutral,incongruent,8,mismatch,,130,170,,1,238,block2_Pilot_2,12,s_n,s_n_weak,,,,,0,1,1,1,0,21,21,21,,,,,,,,,1119.2812088,None,1121.2682772,1121.5654394,1121.5654394,1121.5735249000002,1121.5735249000002,1121.6143562,1121.6143562,None,None,0,1121.6143562,None,1123.1144685000002,None,['9'],[1.1732339000000138],1123.1144685000002,None,,,,,,Emoconpilot027,2021_Oct_27_1229,BackwardMask,2020.2.8,119.66446085174819,
,f,028_y_f_n_a.jpg,neutral,8,21,f,021_o_f_h_a.jpg,happy,incongruent,9,match,,140,150,,18,202,block2_Pilot_2,28,n_h,n_h_strong,,,,,0,1,1,1,0,22,22,22,,,,,,,,,1126.1146094,None,1127.8355774000001,1128.124425,1128.124425,1128.2737987,1128.2737987,1128.3147347000001,1128.3147347000001,None,8,0,1128.3147347000001,None,1129.8151560000001,None,['7'],[1.5764137999999548],1129.8151560000001,None,,,,,1.2287768000001051,Emoconpilot027,2021_Oct_27_1229,BackwardMask,2020.2.8,119.66446085174819,
,f,028_y_f_s_a.jpg,sad,7,30,f,030_o_f_n_a.jpg,neutral,incongruent,8,match,,130,170,,2,127,block2_Pilot_2,28,s_n,s_n_weak,,,,,0,1,1,1,0,23,23,23,,,,,,,,,1132.8149668,None,1133.8856662,1134.1740001,1134.1740001,1134.1905346,1134.1905346,1134.2315653,1134.2315653,None,7,0,1134.2315653,None,1135.7313126000001,None,['7'],[0.43650320000006104],1135.7313126000001,None,,,,,0.6561377999998967,Emoconpilot027,2021_Oct_27_1229,BackwardMask,2020.2.8,119.66446085174819,
,m,004_o_m_n_a.jpg,neutral,8,40,f,040_y_f_n_a.jpg,neutral,congruent,8,mismatch,,140,170,,1,238,block2_Pilot_2,4,n_n,n_n_weak,,,,,0,1,1,1,0,24,24,24,,,,,,,,,1138.7315877,None,1140.7717044,1141.0663497,1141.0663497,1141.0740064000001,1141.0740064000001,1141.1149354000001,1141.1149354000001,None,None,0,1141.1149354000001,None,1142.6152623,None,None,,1142.6152623,None,,,,,,Emoconpilot027,2021_Oct_27_1229,BackwardMask,2020.2.8,119.66446085174819,
,m,016_y_m_n_a.jpg,neutral,8,16,m,016_y_m_h_a.jpg,happy,incongruent,9,match,,140,150,,18,239,block2_Pilot_2,16,n_h,n_h_weak,,,,,0,1,1,1,0,25,25,25,,,,,,,,,1145.6153881,None,1147.6278041,1147.9163406,1147.9163406,1148.0659916,1148.0659916,1148.1068101,1148.1068101,None,7,0,1148.1068101,None,1149.6068117,None,['7'],[1.1367504999998346],1149.6068117,None,,,,,0.7409528999999111,Emoconpilot027,2021_Oct_27_1229,BackwardMask,2020.2.8,119.66446085174819,
,f,012_o_f_n_a.jpg,neutral,8,33,m,033_o_m_n_a.jpg,neutral,congruent,8,mismatch,,140,170,,3,134,block2_Pilot_2,12,n_n,n_n_weak,,,,,0,1,1,1,0,26,26,26,,,,,,,,,1152.6078095,None,1153.7448018,1154.0416787000001,1154.0416787000001,1154.0660254,1154.0660254,1154.106865,1154.106865,None,7,0,1154.106865,None,1155.6067533,None,['7'],[0.6889950999998291],1155.6067533,None,,,,,0.8848173999999744,Emoconpilot027,2021_Oct_27_1229,BackwardMask,2020.2.8,119.66446085174819,
,m,013_y_m_h_a.jpg,happy,9,27,m,027_o_m_s_a.jpg,sad,incongruent,7,match,,120,160,,2,194,block2_Pilot_2,13,h_s,h_s_strong,,,,,0,1,1,1,0,27,27,27,,,,,,,,,1158.6071444000002,None,1160.2437889,1160.5337435000001,1160.5337435000001,1160.5495436,1160.5495436,1160.5904898000001,1160.5904898000001,None,9,0,1160.5904898000001,None,1162.0903964000001,None,['7'],[0.5493923999999879],1162.0903964000001,None,,,,,0.8012762999999268,Emoconpilot027,2021_Oct_27_1229,BackwardMask,2020.2.8,119.66446085174819,
,m,013_y_m_n_a.jpg,neutral,8,28,f,028_y_f_n_a.jpg,neutral,congruent,8,mismatch,,140,170,,1,238,block2_Pilot_2,13,n_n,n_n_weak,,,,,0,1,1,1,0,28,28,28,,,,,,,,,1165.0912184000001,None,1167.0928484,1167.3834998,1167.3834998,1167.3911581,1167.3911581,1167.431984,1167.431984,None,None,0,1167.431984,None,1168.9320441,None,['9'],[2.147663599999987],1168.9320441,None,,,,,,Emoconpilot027,2021_Oct_27_1229,BackwardMask,2020.2.8,119.66446085174819,
,f,030_o_f_s_a.jpg,sad,7,33,m,033_o_m_h_a.jpg,happy,incongruent,9,mismatch,,130,150,,3,168,block2_Pilot_2,30,s_h,s_h_weak,,,,,0,1,1,1,0,29,29,29,,,,,,,,,1171.9322488,None,1173.3518184,1173.6419425000001,1173.6419425000001,1173.6665217,1173.6665217,1173.707286,1173.707286,None,7,0,1173.707286,None,1175.2080303,None,['8'],[1.2397375000000466],1175.2080303,None,,,,,1.2124638000000232,Emoconpilot027,2021_Oct_27_1229,BackwardMask,2020.2.8,119.66446085174819,
,m,008_y_m_n_a.jpg,neutral,8,12,f,012_o_f_n_a.jpg,neutral,congruent,8,mismatch,,140,170,,18,208,block2_Pilot_2,8,n_n,n_n_weak,,,,,0,1,1,1,0,30,30,30,,,,,,,,,1178.2076574,None,1179.9602612,1180.2503081,1180.2503081,1180.399921,1180.399921,1180.4407903000001,1180.4407903000001,None,8,1,1180.4407903000001,None,1181.9408219,None,['7'],[0.8509092000001601],1181.9408219,None,,,,,0.5990091999999549,Emoconpilot027,2021_Oct_27_1229,BackwardMask,2020.2.8,119.66446085174819,
,m,008_y_m_s_a.jpg,sad,7,4,m,004_o_m_n_a.jpg,neutral,incongruent,8,match,,130,170,,2,231,block2_Pilot_2,8,s_n,s_n_weak,,,,,0,1,1,1,0,31,31,31,,,,,,,,,1184.9409414000002,None,1186.8852429,1187.1756753,1187.1756753,1187.1916596,1187.1916596,1187.232561,1187.232561,None,7,0,1187.232561,None,1188.7325582,None,['7'],[0.9789659000000484],1188.7325582,None,,,,,0.7190599000000475,Emoconpilot027,2021_Oct_27_1229,BackwardMask,2020.2.8,119.66446085174819,
,m,016_y_m_n_a.jpg,neutral,8,28,f,028_y_f_n_a.jpg,neutral,congruent,8,mismatch,,140,170,,2,218,block2_Pilot_2,16,n_n,n_n_weak,,,,,0,1,1,1,0,32,32,32,,,,,,,,,1191.7331708000002,None,1193.5677826,1193.8589909,1193.8589909,1193.8751565,1193.8751565,1193.9159938,1193.9159938,None,8,1,1193.9159938,None,1195.4160766,None,['8'],[0.487439699999868],1195.4160766,None,,,,,0.9317917000000762,Emoconpilot027,2021_Oct_27_1229,BackwardMask,2020.2.8,119.66446085174819,
,m,033_o_m_n_a.jpg,neutral,8,33,m,033_o_m_s_a.jpg,sad,incongruent,7,match,,140,160,,3,141,block2_Pilot_2,33,n_s,n_s_weak,,,,,0,1,1,1,0,33,33,33,,,,,,,,,1198.4167335,None,1199.6100876,1199.900902,1199.900902,1199.9252854000001,1199.9252854000001,1199.9661276000002,1199.9661276000002,None,8,0,1199.9661276000002,None,1201.4661587,None,['8'],[0.6373588000001291],1201.4661587,None,,,,,0.641597099999899,Emoconpilot027,2021_Oct_27_1229,BackwardMask,2020.2.8,119.66446085174819,
,m,016_y_m_n_a.jpg,neutral,8,13,m,013_y_m_s_a.jpg,sad,incongruent,7,match,,140,160,,1,238,block2_Pilot_2,16,n_s,n_s_weak,,,,,0,1,1,1,0,34,34,34,,,,,,,,,1204.466383,None,1206.4697485000002,1206.7593777,1206.7593777,1206.7671099000002,1206.7671099000002,1206.8079548,1206.8079548,None,None,0,1206.8079548,None,1208.3081409000001,None,['9'],[0.9715437999998358],1208.3081409000001,None,,,,,,Emoconpilot027,2021_Oct_27_1229,BackwardMask,2020.2.8,119.66446085174819,
,f,030_o_f_h_a.jpg,happy,9,12,f,012_o_f_n_a.jpg,neutral,incongruent,8,match,,120,170,,3,190,block2_Pilot_2,30,h_n,h_n_weak,,,,,0,1,1,1,0,35,35,35,,,,,,,,,1211.3088076000001,None,1212.9109275,1213.2012351,1213.2012351,1213.2256594,1213.2256594,1213.2664053,1213.2664053,None,9,0,1213.2664053,None,1214.7664192,None,None,,1214.7664192,None,,,,,0.7893758000000162,Emoconpilot027,2021_Oct_27_1229,BackwardMask,2020.2.8,119.66446085174819,
,f,030_o_f_s_a.jpg,sad,7,12,f,012_o_f_n_a.jpg,neutral,incongruent,8,match,,130,170,,3,197,block2_Pilot_2,30,s_n,s_n_strong,,,,,0,1,1,1,0,36,36,36,,,,,,,,,1217.7664879000001,None,1219.4277103,1219.7179733,1219.7179733,1219.7423283,1219.7423283,1219.7831413000001,1219.7831413000001,None,None,0,1219.7831413000001,None,1221.2833572,None,"['8', '8']","[0.06853449999994154, 0.9001332000000275]",1221.2833572,None,,,,,,Emoconpilot027,2021_Oct_27_1229,BackwardMask,2020.2.8,119.66446085174819,
,m,004_o_m_s_a.jpg,sad,7,8,m,008_y_m_h_a.jpg,happy,incongruent,9,match,,130,150,,3,201,block2_Pilot_2,4,s_h,s_h_strong,,,,,0,1,1,1,0,37,37,37,,,,,,,,,1224.2841805,None,1225.9662714,1226.2595134,1226.2595134,1226.2839955,1226.2839955,1226.3248706000002,1226.3248706000002,None,7,0,1226.3248706000002,None,1227.8250524,None,['7'],[0.6628149999999096],1227.8250524,None,,,,,0.7626589999999851,Emoconpilot027,2021_Oct_27_1229,BackwardMask,2020.2.8,119.66446085174819,
,f,040_y_f_n_a.jpg,neutral,8,16,m,016_y_m_n_a.jpg,neutral,congruent,8,mismatch,,140,170,,3,198,block2_Pilot_2,40,n_n,n_n_strong,,,,,0,1,1,1,0,38,38,38,,,,,,,,,1230.8247852,None,1232.5452692000001,1232.8348742,1232.8348742,1232.8593355,1232.8593355,1232.9002716,1232.9002716,None,8,1,1232.9002716,None,1234.400326,None,['8'],[1.0794161999999687],1234.400326,None,,,,,1.3634039999999459,Emoconpilot027,2021_Oct_27_1229,BackwardMask,2020.2.8,119.66446085174819,
,m,027_o_m_n_a.jpg,neutral,8,16,m,016_y_m_s_a.jpg,sad,incongruent,7,match,,140,160,,1,238,block2_Pilot_2,27,n_s,n_s_strong,,,,,0,1,1,1,0,39,39,39,,,,,,,,,1237.4011571,None,1239.4061688000002,1239.7017433,1239.7017433,1239.709393,1239.709393,1239.7501956,1239.7501956,None,None,0,1239.7501956,None,1241.2503501,None,['9'],[0.6374797999999373],1241.2503501,None,,,,,,Emoconpilot027,2021_Oct_27_1229,BackwardMask,2020.2.8,119.66446085174819,
,m,033_o_m_n_a.jpg,neutral,8,40,f,040_y_f_h_a.jpg,happy,incongruent,9,mismatch,,140,150,,2,137,block2_Pilot_2,33,n_h,n_h_strong,,,,,0,1,1,1,0,40,40,40,,,,,,,,,1244.2508279,None,1245.4357996,1245.7266843,1245.7266843,1245.7428329000002,1245.7428329000002,1245.7837934000001,1245.7837934000001,None,None,0,1245.7837934000001,None,1247.2841332,None,['8'],[1.4995536999999786],1247.2841332,None,,,,,,Emoconpilot027,2021_Oct_27_1229,BackwardMask,2020.2.8,119.66446085174819,
,m,004_o_m_s_a.jpg,sad,7,8,m,008_y_m_h_a.jpg,happy,incongruent,9,match,,130,150,,18,193,block2_Pilot_2,4,s_h,s_h_strong,,,,,0,1,1,1,0,41,41,41,,,,,,,,,1250.2839774000001,None,1251.9006323,1252.1932216,1252.1932216,1252.3428282,1252.3428282,1252.3837138000001,1252.3837138000001,None,7,0,1252.3837138000001,None,1253.883761,None,['7'],[0.9877575999998953],1253.883761,None,,,,,0.9359953999999107,Emoconpilot027,2021_Oct_27_1229,BackwardMask,2020.2.8,119.66446085174819,
,f,012_o_f_h_a.jpg,happy,9,4,m,004_o_m_s_a.jpg,sad,incongruent,7,mismatch,,120,160,,3,198,block2_Pilot_2,12,h_s,h_s_weak,,,,,0,1,1,1,0,42,42,42,,,,,,,,,1256.8854769,None,1258.5413499000001,1258.8350213,1258.8350213,1258.8597852,1258.8597852,1258.9007801,1258.9007801,None,9,0,1258.9007801,None,1260.4006754,None,['7'],[0.5351371000001564],1260.4006754,None,,,,,0.6109079000000293,Emoconpilot027,2021_Oct_27_1229,BackwardMask,2020.2.8,119.66446085174819,
,f,012_o_f_n_a.jpg,neutral,8,8,m,008_y_m_s_a.jpg,sad,incongruent,7,mismatch,,140,160,,1,238,block2_Pilot_2,12,n_s,n_s_strong,,,,,0,1,1,1,0,43,43,43,,,,,,,,,1263.4013466000001,None,1265.4201764,1265.7106189,1265.7106189,1265.7182073000001,1265.7182073000001,1265.759205,1265.759205,None,None,0,1265.759205,None,1267.2591753000002,None,['9'],[0.7486237000000528],1267.2591753000002,None,,,,,,Emoconpilot027,2021_Oct_27_1229,BackwardMask,2020.2.8,119.66446085174819,
,f,040_y_f_n_a.jpg,neutral,8,8,m,008_y_m_n_a.jpg,neutral,congruent,8,mismatch,,140,170,,3,165,block2_Pilot_2,40,n_n,n_n_weak,,,,,0,1,1,1,0,44,44,44,,,,,,,,,1270.2598949,None,1271.6557658000002,1271.9524546,1271.9524546,1271.9766892,1271.9766892,1272.017648,1272.017648,None,8,1,1272.017648,None,1273.5180343,None,['8'],[0.921664200000123],1273.5180343,None,,,,,1.110267199999953,Emoconpilot027,2021_Oct_27_1229,BackwardMask,2020.2.8,119.66446085174819,
,f,028_y_f_h_a.jpg,happy,9,33,m,033_o_m_n_a.jpg,neutral,incongruent,8,mismatch,,120,170,,1,238,block2_Pilot_2,28,h_n,h_n_strong,,,,,0,1,1,1,0,45,45,45,,,,,,,,,1276.5183346000001,None,1278.5115393,1278.8022097,1278.8022097,1278.8102058,1278.8102058,1278.8511193000002,1278.8511193000002,None,None,0,1278.8511193000002,None,1280.3512562,None,['9'],[1.1285235000000284],1280.3512562,None,,,,,,Emoconpilot027,2021_Oct_27_1229,BackwardMask,2020.2.8,119.66446085174819,
,m,027_o_m_s_a.jpg,sad,7,19,f,019_m_f_n_a.jpg,neutral,incongruent,8,mismatch,,130,170,,2,236,block2_Pilot_2,27,s_n,s_n_weak,,,,,0,1,1,1,0,46,46,46,,,,,,,,,1283.3516993,None,1285.3256658,1285.6190671000002,1285.6190671000002,1285.6354326,1285.6354326,1285.6761785,1285.6761785,None,None,0,1285.6761785,None,1287.1761999,None,['9'],[0.43154200000003584],1287.1761999,None,,,,,,Emoconpilot027,2021_Oct_27_1229,BackwardMask,2020.2.8,119.66446085174819,
,m,027_o_m_h_a.jpg,happy,9,19,f,019_m_f_s_a.jpg,sad,incongruent,7,mismatch,,120,160,,1,238,block2_Pilot_2,27,h_s,h_s_strong,,,,,0,1,1,1,0,47,47,47,,,,,,,,,1290.1773897,None,1292.1952383,1292.4861687,1292.4861687,1292.4939365,1292.4939365,1292.5350377,1292.5350377,None,None,0,1292.5350377,None,1294.0350477,None,['9'],[0.6126787999999124],1294.0350477,None,,,,,,Emoconpilot027,2021_Oct_27_1229,BackwardMask,2020.2.8,119.66446085174819,
,m,016_y_m_h_a.jpg,happy,9,4,m,004_o_m_s_a.jpg,sad,incongruent,7,match,,120,160,,3,227,block2_Pilot_2,16,h_s,h_s_strong,,,,,0,1,1,1,0,48,48,48,,,,,,,,,1297.035904,None,1298.9344772,1299.2275995,1299.2275995,1299.2523128,1299.2523128,1299.2932136,1299.2932136,None,9,0,1299.2932136,None,1300.7933500000001,None,['7'],[0.9105116999999154],1300.7933500000001,None,,,,,0.59451799999988,Emoconpilot027,2021_Oct_27_1229,BackwardMask,2020.2.8,119.66446085174819,
,f,040_y_f_h_a.jpg,happy,9,13,m,013_y_m_h_a.jpg,happy,congruent,9,mismatch,,120,150,,3,165,block2_Pilot_2,40,h_h,h_h_strong,,,,,0,1,1,1,0,49,49,49,,,,,,,,,1303.7941046,None,1305.1756394000001,1305.4693152,1305.4693152,1305.4942597000002,1305.4942597000002,1305.5354109,1305.5354109,None,9,1,1305.5354109,None,1307.035247,None,['7'],[0.5485392000000502],1307.035247,None,,,,,0.4803522000001976,Emoconpilot027,2021_Oct_27_1229,BackwardMask,2020.2.8,119.66446085174819,
,m,033_o_m_s_a.jpg,sad,7,28,f,028_y_f_n_a.jpg,neutral,incongruent,8,mismatch,,130,170,,2,227,block2_Pilot_2,33,s_n,s_n_weak,,,,,0,1,1,1,0,50,50,50,,,,,,,,,1310.0361377000002,None,1311.9356494,1312.2277346,1312.2277346,1312.2442416000001,1312.2442416000001,1312.2850992,1312.2850992,None,7,0,1312.2850992,None,1313.7853818,None,['7'],[1.4224870000000465],1313.7853818,None,,,,,0.6106191999999737,Emoconpilot027,2021_Oct_27_1229,BackwardMask,2020.2.8,119.66446085174819,
,f,019_m_f_s_a.jpg,sad,7,27,m,027_o_m_h_a.jpg,happy,incongruent,9,mismatch,,130,150,,1,238,block2_Pilot_2,19,s_h,s_h_weak,,,,,0,1,1,1,0,51,51,51,,,,,,,,,1316.7862094,None,1318.7923644,1319.0865846000002,1319.0865846000002,1319.094291,1319.094291,1319.1352862,1319.1352862,None,None,0,1319.1352862,None,1320.6355054,None,['9'],[1.8120457999998507],1320.6355054,None,,,,,,Emoconpilot027,2021_Oct_27_1229,BackwardMask,2020.2.8,119.66446085174819,
,m,016_y_m_h_a.jpg,happy,9,19,f,019_m_f_n_a.jpg,neutral,incongruent,8,mismatch,,120,170,,18,238,block2_Pilot_2,16,h_n,h_n_strong,,,,,0,1,1,1,0,52,52,52,,,,,,,,,1323.6353641,None,1325.6268981,1325.9196938,1325.9196938,1326.0696933000002,1326.0696933000002,1326.1102418,1326.1102418,None,9,0,1326.1102418,None,1327.6104236,None,['7'],[1.4533175999999912],1327.6104236,None,,,,,0.44938379999985045,Emoconpilot027,2021_Oct_27_1229,BackwardMask,2020.2.8,119.66446085174819,
,f,021_o_f_s_a.jpg,sad,7,8,m,008_y_m_n_a.jpg,neutral,incongruent,8,mismatch,,130,170,,1,238,block2_Pilot_2,21,s_n,s_n_strong,,,,,0,1,1,1,0,53,53,53,,,,,,,,,1330.6104123,None,1332.5999078,1332.8949372,1332.8949372,1332.9031377000001,1332.9031377000001,1332.9438038,1332.9438038,None,None,0,1332.9438038,None,1334.4440665,None,['9'],[0.6196245999999519],1334.4440665,None,,,,,,Emoconpilot027,2021_Oct_27_1229,BackwardMask,2020.2.8,119.66446085174819,
,f,012_o_f_s_a.jpg,sad,7,33,m,033_o_m_s_a.jpg,sad,congruent,7,mismatch,,130,160,,2,148,block2_Pilot_2,12,s_s,s_s_weak,,,,,0,1,1,1,0,54,54,54,,,,,,,,,1337.4444903,None,1338.6798952000001,1338.9782421,1338.9782421,1338.9947929,1338.9947929,1339.0358994,1339.0358994,None,9,0,1339.0358994,None,1340.5356208,None,None,,1340.5356208,None,,,,,1.0358214999998836,Emoconpilot027,2021_Oct_27_1229,BackwardMask,2020.2.8,119.66446085174819,
,f,030_o_f_s_a.jpg,sad,7,40,f,040_y_f_s_a.jpg,sad,congruent,7,match,,130,160,,3,136,block2_Pilot_2,30,s_s,s_s_strong,,,,,0,1,1,1,0,55,55,55,,,,,,,,,1343.5367319,None,1344.7634118,1345.0540186,1345.0540186,1345.0782944,1345.0782944,1345.1191515,1345.1191515,None,7,1,1345.1191515,None,1346.6191101,None,['8'],[0.8365142999998625],1346.6191101,None,,,,,1.0965939000000162,Emoconpilot027,2021_Oct_27_1229,BackwardMask,2020.2.8,119.66446085174819,
,m,027_o_m_s_a.jpg,sad,7,28,f,028_y_f_h_a.jpg,happy,incongruent,9,mismatch,,130,150,,1,238,block2_Pilot_2,27,s_h,s_h_weak,,,,,0,1,1,1,0,56,56,56,,,,,,,,,1349.6200953,None,1351.6123276,1351.9036024,1351.9036024,1351.9117221000001,1351.9117221000001,1351.9525631000001,1351.9525631000001,None,None,0,1351.9525631000001,None,1353.4528616,None,['9'],[0.8109365000000253],1353.4528616,None,,,,,,Emoconpilot027,2021_Oct_27_1229,BackwardMask,2020.2.8,119.66446085174819,
,m,004_o_m_n_a.jpg,neutral,8,8,m,008_y_m_s_a.jpg,sad,incongruent,7,match,,140,160,,3,225,block2_Pilot_2,4,n_s,n_s_strong,,,,,0,1,1,1,0,57,57,57,,,,,,,,,1356.4526971,None,1358.3731484,1358.6627149,1358.6627149,1358.6868622,1358.6868622,1358.7277395,1358.7277395,None,7,1,1358.7277395,None,1360.2277393000002,None,['7'],[1.3957820000000538],1360.2277393000002,None,,,,,1.0639263000000483,Emoconpilot027,2021_Oct_27_1229,BackwardMask,2020.2.8,119.66446085174819,
,f,012_o_f_s_a.jpg,sad,7,40,f,040_y_f_s_a.jpg,sad,congruent,7,match,,130,160,,1,238,block2_Pilot_2,12,s_s,s_s_strong,,,,,0,1,1,1,0,58,58,58,,,,,,,,,1363.2286356,None,1365.2159987,1365.5120497,1365.5120497,1365.5203519000002,1365.5203519000002,1365.5613104000001,1365.5613104000001,None,None,0,1365.5613104000001,None,1367.0609897000002,None,['9'],[0.9867122000000563],1367.0609897000002,None,,,,,,Emoconpilot027,2021_Oct_27_1229,BackwardMask,2020.2.8,119.66446085174819,
,f,021_o_f_h_a.jpg,happy,9,4,m,004_o_m_n_a.jpg,neutral,incongruent,8,mismatch,,120,170,,1,238,block2_Pilot_2,21,h_n,h_n_weak,,,,,0,1,1,1,0,59,59,59,,,,,,,,,1370.0615030000001,None,1372.0824307,1372.371222,1372.371222,1372.3788176,1372.3788176,1372.4197570000001,1372.4197570000001,None,None,0,1372.4197570000001,None,1373.9196684,None,['9'],[1.0319601000001057],1373.9196684,None,,,,,,Emoconpilot027,2021_Oct_27_1229,BackwardMask,2020.2.8,119.66446085174819,
,f,040_y_f_h_a.jpg,happy,9,16,m,016_y_m_n_a.jpg,neutral,incongruent,8,mismatch,,120,170,,2,154,block2_Pilot_2,40,h_n,h_n_weak,,,,,0,1,1,1,0,60,60,60,,,,,,,,,1376.9204977,None,1378.2131733,1378.5041118000001,1378.5041118000001,1378.5205911,1378.5205911,1378.5615073000001,1378.5615073000001,None,9,0,1378.5615073000001,None,1380.0615401,None,['7'],[1.3942913000000772],1380.0615401,None,,,,,0.87008139999989,Emoconpilot027,2021_Oct_27_1229,BackwardMask,2020.2.8,119.66446085174819,
,m,008_y_m_n_a.jpg,neutral,8,4,m,004_o_m_s_a.jpg,sad,incongruent,7,match,,140,160,,18,145,block2_Pilot_2,8,n_s,n_s_strong,,,,,0,1,1,1,0,61,61,61,,,,,,,,,1383.0618924,None,1384.3112897,1384.6046311,1384.6046311,1384.7540853,1384.7540853,1384.7949088,1384.7949088,None,8,0,1384.7949088,None,1386.2949285,None,['7'],[0.29661570000007487],1386.2949285,None,,,,,0.7329037999998036,Emoconpilot027,2021_Oct_27_1229,BackwardMask,2020.2.8,119.66446085174819,
,f,021_o_f_s_a.jpg,sad,7,33,m,033_o_m_h_a.jpg,happy,incongruent,9,mismatch,,130,150,,1,238,block2_Pilot_2,21,s_h,s_h_strong,,,,,0,1,1,1,0,62,62,62,,,,,,,,,1389.2957719,None,1391.2849659,1391.5793522000001,1391.5793522000001,1391.5875478,1391.5875478,1391.6284026,1391.6284026,None,None,0,1391.6284026,None,1393.1285152,None,['9'],[0.4792814999998427],1393.1285152,None,,,,,,Emoconpilot027,2021_Oct_27_1229,BackwardMask,2020.2.8,119.66446085174819,
,m,033_o_m_n_a.jpg,neutral,8,30,f,030_o_f_h_a.jpg,happy,incongruent,9,mismatch,,140,150,,18,171,block2_Pilot_2,33,n_h,n_h_weak,,,,,0,1,1,1,0,63,63,63,,,,,,,,,1396.1285104,None,1397.5904649000001,1397.8798945,1397.8798945,1398.0293490000001,1398.0293490000001,1398.0702211,1398.0702211,None,8,0,1398.0702211,None,1399.5701893,None,['8'],[1.3015913000001547],1399.5701893,None,,,,,1.2015117000000828,Emoconpilot027,2021_Oct_27_1229,BackwardMask,2020.2.8,119.66446085174819,
,m,027_o_m_n_a.jpg,neutral,8,27,m,027_o_m_h_a.jpg,happy,incongruent,9,match,,140,150,,2,164,block2_Pilot_2,27,n_h,n_h_weak,,,,,0,1,1,1,0,64,64,64,,,,,,,,,1402.5710479000002,None,1403.9599383,1404.2550988,1404.2550988,1404.271049,1404.271049,1404.3120448,1404.3120448,None,None,0,1404.3120448,None,1405.8121181000001,None,['9'],[1.0753765999997995],1405.8121181000001,None,,,,,,Emoconpilot027,2021_Oct_27_1229,BackwardMask,2020.2.8,119.66446085174819,
,m,008_y_m_n_a.jpg,neutral,8,40,f,040_y_f_n_a.jpg,neutral,congruent,8,mismatch,,140,170,,1,238,block2_Pilot_2,8,n_n,n_n_strong,,,,,0,1,1,1,0,65,65,65,,,,,,,,,1408.8130175000001,None,1410.8205087000001,1411.1136576000001,1411.1136576000001,1411.1213057,1411.1213057,1411.1622088000001,1411.1622088000001,None,None,0,1411.1622088000001,None,1412.6621079000001,None,['9'],[0.6416368999998667],1412.6621079000001,None,,,,,,Emoconpilot027,2021_Oct_27_1229,BackwardMask,2020.2.8,119.66446085174819,
,f,040_y_f_h_a.jpg,happy,9,21,f,021_o_f_n_a.jpg,neutral,incongruent,8,match,,120,170,,18,239,block2_Pilot_2,40,h_n,h_n_strong,,,,,0,1,1,1,0,66,66,66,,,,,,,,,1415.6623714,None,1417.6614525,1417.9549903,1417.9549903,1418.1046762,1418.1046762,1418.1456447,1418.1456447,None,9,0,1418.1456447,None,1419.6455921000002,None,['7'],[1.6100708000001305],1419.6455921000002,None,,,,,0.9661424000000807,Emoconpilot027,2021_Oct_27_1229,BackwardMask,2020.2.8,119.66446085174819,
,f,021_o_f_s_a.jpg,sad,7,28,f,028_y_f_h_a.jpg,happy,incongruent,9,match,,130,150,,1,238,block2_Pilot_2,21,s_h,s_h_weak,,,,,0,1,1,1,0,67,67,67,,,,,,,,,1422.6461279,None,1424.6360766,1424.9299576,1424.9299576,1424.9382258,1424.9382258,1424.979154,1424.979154,None,None,0,1424.979154,None,1426.4792836000001,None,['9'],[1.7522919999998976],1426.4792836000001,None,,,,,,Emoconpilot027,2021_Oct_27_1229,BackwardMask,2020.2.8,119.66446085174819,
,f,021_o_f_n_a.jpg,neutral,8,30,f,030_o_f_n_a.jpg,neutral,congruent,8,match,,140,170,,2,209,block2_Pilot_2,21,n_n,n_n_strong,,,,,0,1,1,1,0,68,68,68,,,,,,,,,1429.4792457,None,1431.2975517,1431.5889734,1431.5889734,1431.6053258,1431.6053258,1431.645919,1431.645919,None,None,0,1431.645919,None,1433.145829,None,['9'],[1.3659080999998423],1433.145829,None,,,,,,Emoconpilot027,2021_Oct_27_1229,BackwardMask,2020.2.8,119.66446085174819,
,f,040_y_f_s_a.jpg,sad,7,13,m,013_y_m_s_a.jpg,sad,congruent,7,mismatch,,130,160,,3,147,block2_Pilot_2,40,s_s,s_s_strong,,,,,0,1,1,1,0,69,69,69,,,,,,,,,1436.1459719,None,1437.3807534,1437.6720917,1437.6720917,1437.6972042,1437.6972042,1437.7376458,1437.7376458,None,7,1,1437.7376458,None,1439.2376785000001,None,['8'],[0.9218396999999641],1439.2376785000001,None,,,,,1.0941103999998631,Emoconpilot027,2021_Oct_27_1229,BackwardMask,2020.2.8,119.66446085174819,
,f,040_y_f_s_a.jpg,sad,7,21,f,021_o_f_h_a.jpg,happy,incongruent,9,match,,130,150,,3,172,block2_Pilot_2,40,s_h,s_h_strong,,,,,0,1,1,1,0,70,70,70,,,,,,,,,1442.2379421,None,1443.6810068,1443.9720243000002,1443.9720243000002,1443.9970545,1443.9970545,1444.0379541,1444.0379541,None,7,0,1444.0379541,None,1445.5379344,None,['8'],[0.78985119999993],1445.5379344,None,,,,,0.7378989999999703,Emoconpilot027,2021_Oct_27_1229,BackwardMask,2020.2.8,119.66446085174819,
,m,013_y_m_s_a.jpg,sad,7,16,m,016_y_m_n_a.jpg,neutral,incongruent,8,match,,130,170,,1,238,block2_Pilot_2,13,s_n,s_n_strong,,,,,0,1,1,1,0,71,71,71,,,,,,,,,1448.5381240000002,None,1450.5360742,1450.8307446000001,1450.8307446000001,1450.8386569000002,1450.8386569000002,1450.8797031000001,1450.8797031000001,None,None,0,1450.8797031000001,None,1452.3804669,None,['9'],[0.8993381000000227],1452.3804669,None,,,,,,Emoconpilot027,2021_Oct_27_1229,BackwardMask,2020.2.8,119.66446085174819,
,m,008_y_m_s_a.jpg,sad,7,12,f,012_o_f_h_a.jpg,happy,incongruent,9,mismatch,,130,150,,18,238,block2_Pilot_2,8,s_h,s_h_weak,,,,,0,1,1,1,0,72,72,72,,,,,,,,,1455.3799393000002,None,1457.4541188,1457.7479061000001,1457.7479061000001,1457.8973006,1457.8973006,1457.9382608,1457.9382608,None,None,0,1457.9382608,None,1459.4382807,None,['7'],[0.8893980000000283],1459.4382807,None,,,,,,Emoconpilot027,2021_Oct_27_1229,BackwardMask,2020.2.8,119.66446085174819,
,m,013_y_m_s_a.jpg,sad,7,21,f,021_o_f_n_a.jpg,neutral,incongruent,8,mismatch,,130,170,,1,238,block2_Pilot_2,13,s_n,s_n_weak,,,,,0,1,1,1,0,73,73,73,,,,,,,,,1462.4390546,None,1464.4310232,1464.7226655,1464.7226655,1464.7308762,1464.7308762,1464.7716043,1464.7716043,None,None,0,1464.7716043,None,1466.2719511,None,['8'],[0.28788319999989653],1466.2719511,None,,,,,,Emoconpilot027,2021_Oct_27_1229,BackwardMask,2020.2.8,119.66446085174819,
,f,019_m_f_s_a.jpg,sad,7,12,f,012_o_f_n_a.jpg,neutral,incongruent,8,match,,130,170,,2,208,block2_Pilot_2,19,s_n,s_n_weak,,,,,0,1,1,1,0,74,74,74,,,,,,,,,1469.2724121,None,1471.058003,1471.3480907,1471.3480907,1471.3640864000001,1471.3640864000001,1471.4050503,1471.4050503,None,None,0,1471.4050503,None,1472.9051788000002,None,['9'],[0.7504472000000533],1472.9051788000002,None,,,,,,Emoconpilot027,2021_Oct_27_1229,BackwardMask,2020.2.8,119.66446085174819,
,m,016_y_m_s_a.jpg,sad,7,19,f,019_m_f_n_a.jpg,neutral,incongruent,8,mismatch,,130,170,,18,238,block2_Pilot_2,16,s_n,s_n_strong,,,,,0,1,1,1,0,75,75,75,,,,,,,,,1475.9060658,None,1477.8986259,1478.1895351,1478.1895351,1478.3393674000001,1478.3393674000001,1478.3800535,1478.3800535,None,7,0,1478.3800535,None,1479.8804355000002,None,['7'],[1.3513312000000042],1479.8804355000002,None,,,,,1.1075702999999066,Emoconpilot027,2021_Oct_27_1229,BackwardMask,2020.2.8,119.66446085174819,
,f,040_y_f_n_a.jpg,neutral,8,27,m,027_o_m_s_a.jpg,sad,incongruent,7,mismatch,,140,160,,1,238,block2_Pilot_2,40,n_s,n_s_weak,,,,,0,1,1,1,0,76,76,76,,,,,,,,,1482.8810475,None,1484.9237819999998,1485.2150384000001,1485.2150384000001,1485.2229068000001,1485.2229068000001,1485.2637046,1485.2637046,None,None,0,1485.2637046,None,1486.7637683000003,None,None,,1486.7637683000003,None,,,,,,Emoconpilot027,2021_Oct_27_1229,BackwardMask,2020.2.8,119.66446085174819,
,m,016_y_m_h_a.jpg,happy,9,30,f,030_o_f_n_a.jpg,neutral,incongruent,8,mismatch,,120,170,,2,215,block2_Pilot_2,16,h_n,h_n_weak,,,,,0,1,1,1,0,77,77,77,,,,,,,,,1489.7653233,None,1491.5652421999998,1491.8565257999999,1491.8565257999999,1491.8730042000002,1491.8730042000002,1491.9138385,1491.9138385,None,9,0,1491.9138385,None,1493.413967,None,['7'],[1.6497042000000874],1493.413967,None,,,,,0.8218690999997307,Emoconpilot027,2021_Oct_27_1229,BackwardMask,2020.2.8,119.66446085174819,
,m,013_y_m_h_a.jpg,happy,9,28,f,028_y_f_n_a.jpg,neutral,incongruent,8,mismatch,,120,170,,18,191,block2_Pilot_2,13,h_n,h_n_weak,,,,,0,1,1,1,0,78,78,78,,,,,,,,,1496.4146126,None,1498.0452335999998,1498.3404931999999,1498.3404931999999,1498.4895719,1498.4895719,1498.5306312000002,1498.5306312000002,None,9,0,1498.5306312000002,None,1500.0307562000003,None,['7'],[1.2650429999998778],1500.0307562000003,None,,,,,1.077045200000157,Emoconpilot027,2021_Oct_27_1229,BackwardMask,2020.2.8,119.66446085174819,
,m,008_y_m_n_a.jpg,neutral,8,8,m,008_y_m_h_a.jpg,happy,incongruent,9,match,,140,150,,3,228,block2_Pilot_2,8,n_h,n_h_weak,,,,,0,1,1,1,0,79,79,79,,,,,,,,,1503.0309367999998,None,1504.9509174999998,1505.2402821,1505.2402821,1505.2648355000001,1505.2648355000001,1505.3058812,1505.3058812,None,7,0,1505.3058812,None,1506.8056752000002,None,['7'],[1.5539441999999326],1506.8056752000002,None,,,,,0.9259508000000096,Emoconpilot027,2021_Oct_27_1229,BackwardMask,2020.2.8,119.66446085174819,
,m,016_y_m_h_a.jpg,happy,9,13,m,013_y_m_s_a.jpg,sad,incongruent,7,match,,120,160,,1,238,block2_Pilot_2,16,h_s,h_s_weak,,,,,0,1,1,1,0,80,80,80,,,,,,,,,1509.8068932,None,1511.7974481,1512.0902604000003,1512.0902604000003,1512.0983787999999,1512.0983787999999,1512.1393362,1512.1393362,None,None,0,1512.1393362,None,1513.6395201999999,None,['9'],[2.248180600000069],1513.6395201999999,None,,,,,,Emoconpilot027,2021_Oct_27_1229,BackwardMask,2020.2.8,119.66446085174819,
,m,027_o_m_s_a.jpg,sad,7,40,f,040_y_f_h_a.jpg,happy,incongruent,9,mismatch,,130,150,,18,238,block2_Pilot_2,27,s_h,s_h_strong,,,,,0,1,1,1,0,81,81,81,,,,,,,,,1516.6397877,None,1518.6309842,1518.9236938,1518.9236938,1519.0735654999999,1519.0735654999999,1519.1143401,1519.1143401,None,None,0,1519.1143401,None,1520.6147294000002,None,"['7', '7']","[0.025101200000335666, 0.6649115000000165]",1520.6147294000002,None,,,,,,Emoconpilot027,2021_Oct_27_1229,BackwardMask,2020.2.8,119.66446085174819,
,f,019_m_f_n_a.jpg,neutral,8,28,f,028_y_f_h_a.jpg,happy,incongruent,9,match,,140,150,,18,159,block2_Pilot_2,19,n_h,n_h_strong,,,,,0,1,1,1,0,82,82,82,,,,,,,,,1523.6147952000001,None,1524.9685193999999,1525.2574975000002,1525.2574975000002,1525.4070038999998,1525.4070038999998,1525.4478030999999,1525.4478030999999,None,7,0,1525.4478030999999,None,1526.9480187,None,['7'],[0.8355808000001161],1526.9480187,None,,,,,1.0717937000003985,Emoconpilot027,2021_Oct_27_1229,BackwardMask,2020.2.8,119.66446085174819,
,m,013_y_m_n_a.jpg,neutral,8,4,m,004_o_m_n_a.jpg,neutral,congruent,8,match,,140,170,,1,238,block2_Pilot_2,13,n_n,n_n_strong,,,,,0,1,1,1,0,83,83,83,,,,,,,,,1529.9480039,None,1531.9515979000003,1532.2410667,1532.2410667,1532.2487753,1532.2487753,1532.2896045000002,1532.2896045000002,None,None,0,1532.2896045000002,None,1533.7897086000003,None,['9'],[1.9698226999998951],1533.7897086000003,None,,,,,,Emoconpilot027,2021_Oct_27_1229,BackwardMask,2020.2.8,119.66446085174819,
,f,040_y_f_s_a.jpg,sad,7,33,m,033_o_m_s_a.jpg,sad,congruent,7,mismatch,,130,160,,2,130,block2_Pilot_2,40,s_s,s_s_weak,,,,,0,1,1,1,0,84,84,84,,,,,,,,,1536.7905964000001,None,1537.8809500000002,1538.1742451999999,1538.1742451999999,1538.1905778999999,1538.1905778999999,1538.2314195,1538.2314195,None,None,0,1538.2314195,None,1539.7314363,None,['9'],[0.6762165000000095],1539.7314363,None,,,,,,Emoconpilot027,2021_Oct_27_1229,BackwardMask,2020.2.8,119.66446085174819,
,m,013_y_m_s_a.jpg,sad,7,16,m,016_y_m_h_a.jpg,happy,incongruent,9,match,,130,150,,1,238,block2_Pilot_2,13,s_h,s_h_weak,,,,,0,1,1,1,0,85,85,85,,,,,,,,,1542.7317567999999,None,1544.7223752999998,1545.0158925,1545.0158925,1545.0240377,1545.0240377,1545.0647717000002,1545.0647717000002,None,None,0,1545.0647717000002,None,1546.5657256,None,['9'],[0.3621665999999095],1546.5657256,None,,,,,,Emoconpilot027,2021_Oct_27_1229,BackwardMask,2020.2.8,119.66446085174819,
