Person,primeGender,prime,primeEmotion,corrAnsPrime,targetPerson,targetGender,target,targetEmotion,Cond,corrAnsTar,gender,condition,ID_primer,ID_target,PrimerTime,PrimerTime120,JitterTime,conditionsFile,primePerson,emotion_condition,Condition,example.thisRepN,example.thisTrialN,example.thisN,example.thisIndex,readinBlocks.thisRepN,readinBlocks.thisTrialN,readinBlocks.thisN,readinBlocks.thisIndex,trials.thisRepN,trials.thisTrialN,trials.thisN,trials.thisIndex,text_intro.started,text_intro.stopped,text_probe.started,text_probe.stopped,key_resp_2.keys,key_resp_2.rt,key_resp_2.started,key_resp_2.stopped,polygon_ISI.started,polygon_ISI.stopped,polygon.started,polygon.stopped,primerImage.started,primerImage.stopped,maskImage.started,maskImage.stopped,response.started,response.stopped,key_resp.keys,key_resp.corr,key_resp.rt,key_resp.started,key_resp.stopped,text.started,text.stopped,key_resp_Rating.keys,key_resp_Rating.started,key_resp_Rating.stopped,key_resp_Rating.rt,text_start.started,text_start.stopped,text_pause.started,text_pause.stopped,participant,date,expName,psychopyVersion,frameRate,
,,,,,,,,,,,,,,,,,,,,,,,,,,,,,,,,,,165.7842086001765,170.75763800018467,170.75763800018467,None,7,21.805386299965903,165.7842086001765,None,,,,,,,,,,,,,,,,,,,,,,,,,,Emoconpilot030,2021_Oct_20_1148,BackwardMask,2020.2.8,119.67620382652794,
2,f,1113_y_f_s_a.jpg,sad,7,1,m,1111_m_m_h_a.jpg,happy,incongruent,9,mix,s+h,130,150,1,2,148,,,,,0,0,0,0,,,,,,,,,,,,,,,,,187.63319010008126,None,188.88135060016066,189.19675740017556,189.19675740017556,189.21523250010796,189.21523250010796,189.2487165001221,189.2487165001221,None,7,0,1.4205872002057731,189.2487165001221,None,190.74944470007904,None,None,190.74944470007904,None,,,,,,Emoconpilot030,2021_Oct_20_1148,BackwardMask,2020.2.8,119.67620382652794,
2,f,1111_m_m_h_a.jpg,happy,9,3,f,1113_y_f_s_a.jpg,sad,incongruent,7,mix,h+s,120,160,9,18,195,,,,,0,1,1,1,,,,,,,,,,,,,,,,,193.74893160001375,None,195.39326860010624,195.68273090012372,195.68273090012372,195.8323278001044,195.8323278001044,195.8731582001783,195.8731582001783,None,None,0,,195.8731582001783,None,197.3730655000545,None,None,197.3730655000545,None,,,,,,Emoconpilot030,2021_Oct_20_1148,BackwardMask,2020.2.8,119.67620382652794,
2,f,1112_m_f_n_a.jpg,neutral,8,2,f,1112_m_f_n_a.jpg,neutral,congruent,8,match,n+n,140,170,9,18,134,,,,,0,2,2,2,,,,,,,,,,,,,,,,,200.3732094001025,None,201.51111010019667,201.8078942000866,201.8078942000866,201.9570033000782,201.9570033000782,201.9980285000056,201.9980285000056,None,8,1,0.7754814999643713,201.9980285000056,None,203.49810690013692,None,['7'],203.49810690013692,None,[2.027364799985662],,,,,Emoconpilot030,2021_Oct_20_1148,BackwardMask,2020.2.8,119.67620382652794,
,m,033_o_m_h_a.jpg,happy,9,30,f,030_o_f_n_a.jpg,neutral,incongruent,8,mismatch,,120,170,,18,238,block1_Pilot_2,33,h_n,h_n_strong,,,,,0,0,0,0,0,0,0,0,,,,,,,,,207.53614920005202,None,209.53082230011933,209.82425660011359,209.82425660011359,209.97402040008456,209.97402040008456,210.01497670006938,210.01497670006938,None,9,0,0.7905311998911202,210.01497670006938,None,211.51585349999368,None,['7'],211.51585349999368,None,[1.4816786001902074],206.4985553000588,None,None,None,Emoconpilot030,2021_Oct_20_1148,BackwardMask,2020.2.8,119.67620382652794,
,m,004_o_m_h_a.jpg,happy,9,12,f,012_o_f_h_a.jpg,happy,congruent,9,mismatch,,120,150,,2,218,block1_Pilot_2,4,h_h,h_h_weak,,,,,0,0,0,0,0,1,1,1,,,,,,,,,214.5160542000085,None,216.36367760016583,216.65790750016458,216.65790750016458,216.6739710001275,216.6739710001275,216.7151667000726,216.7151667000726,None,9,1,0.826153599889949,216.7151667000726,None,218.21515870001167,None,['7'],218.21515870001167,None,[0.9422687999904156],,,,,Emoconpilot030,2021_Oct_20_1148,BackwardMask,2020.2.8,119.67620382652794,
,f,012_o_f_h_a.jpg,happy,9,33,m,033_o_m_h_a.jpg,happy,congruent,9,mismatch,,120,150,,2,140,block1_Pilot_2,12,h_h,h_h_weak,,,,,0,0,0,0,0,2,2,2,,,,,,,,,221.21610389999114,None,222.39198910002597,222.6828748001717,222.6828748001717,222.6993704000488,222.6993704000488,222.74029410001822,222.74029410001822,None,None,0,,222.74029410001822,None,224.24042410007678,None,['8'],224.24042410007678,None,[1.613004099810496],,,,,Emoconpilot030,2021_Oct_20_1148,BackwardMask,2020.2.8,119.67620382652794,
,f,040_y_f_n_a.jpg,neutral,8,40,f,040_y_f_h_a.jpg,happy,incongruent,9,match,,140,150,,2,192,block1_Pilot_2,40,n_h,n_h_weak,,,,,0,0,0,0,0,3,3,3,,,,,,,,,227.24023120012134,None,228.86708760005422,229.15839430014603,229.15839430014603,229.1748473001644,229.1748473001644,229.2153915001545,229.2153915001545,None,None,0,,229.2153915001545,None,230.71578660001978,None,['8'],230.71578660001978,None,[0.8977140001952648],,,,,Emoconpilot030,2021_Oct_20_1148,BackwardMask,2020.2.8,119.67620382652794,
,m,013_y_m_s_a.jpg,sad,7,16,m,016_y_m_n_a.jpg,neutral,incongruent,8,match,,130,170,,3,155,block1_Pilot_2,13,s_n,s_n_weak,,,,,0,0,0,0,0,4,4,4,,,,,,,,,233.7158777001314,None,235.0175193999894,235.3082608000841,235.3082608000841,235.33275349996984,235.33275349996984,235.37382950005122,235.37382950005122,None,7,0,1.1996909999288619,235.37382950005122,None,236.87375969998538,None,['7'],236.87375969998538,None,[1.9877389001194388],,,,,Emoconpilot030,2021_Oct_20_1148,BackwardMask,2020.2.8,119.67620382652794,
,f,012_o_f_h_a.jpg,happy,9,21,f,021_o_f_h_a.jpg,happy,congruent,9,match,,120,150,,2,216,block1_Pilot_2,12,h_h,h_h_strong,,,,,0,0,0,0,0,5,5,5,,,,,,,,,239.87502500019036,None,241.68207460013218,241.97499090014026,241.97499090014026,241.99139650003053,241.99139650003053,242.03222200018354,242.03222200018354,None,9,1,0.9493703998159617,242.03222200018354,None,243.53218249999918,None,['7'],243.53218249999918,None,[0.521126699866727],,,,,Emoconpilot030,2021_Oct_20_1148,BackwardMask,2020.2.8,119.67620382652794,
,f,040_y_f_s_a.jpg,sad,7,40,f,040_y_f_h_a.jpg,happy,incongruent,9,match,,130,150,,1,238,block1_Pilot_2,40,s_h,s_h_weak,,,,,0,0,0,0,0,6,6,6,,,,,,,,,246.53295879997313,None,248.52535640005954,248.81677590007894,248.81677590007894,248.8250647999812,248.8250647999812,248.86565270018764,248.86565270018764,None,None,0,,248.86565270018764,None,250.36577410018072,None,['9'],250.36577410018072,None,[1.391772500006482],,,,,Emoconpilot030,2021_Oct_20_1148,BackwardMask,2020.2.8,119.67620382652794,
,m,033_o_m_n_a.jpg,neutral,8,27,m,027_o_m_n_a.jpg,neutral,congruent,8,match,,140,170,,18,238,block1_Pilot_2,33,n_n,n_n_weak,,,,,0,0,0,0,0,7,7,7,,,,,,,,,253.36680950014852,None,255.37206279998645,255.66741800005548,255.66741800005548,255.81680160015821,255.81680160015821,255.85760580003262,255.85760580003262,None,8,1,1.4199730998370796,255.85760580003262,None,257.358457100112,None,['7'],257.358457100112,None,[1.0150484000332654],,,,,Emoconpilot030,2021_Oct_20_1148,BackwardMask,2020.2.8,119.67620382652794,
,f,040_y_f_h_a.jpg,happy,9,19,f,019_m_f_n_a.jpg,neutral,incongruent,8,match,,120,170,,1,238,block1_Pilot_2,40,h_n,h_n_strong,,,,,0,0,0,0,0,8,8,8,,,,,,,,,260.35834550019354,None,262.35078620002605,262.6418608999811,262.6418608999811,262.6501754000783,262.6501754000783,262.69070790009573,262.69070790009573,None,None,0,,262.69070790009573,None,264.1911369001027,None,['9'],264.1911369001027,None,[1.0224036001600325],,,,,Emoconpilot030,2021_Oct_20_1148,BackwardMask,2020.2.8,119.67620382652794,
,m,013_y_m_h_a.jpg,happy,9,12,f,012_o_f_s_a.jpg,sad,incongruent,7,mismatch,,120,160,,3,198,block1_Pilot_2,13,h_s,h_s_weak,,,,,0,0,0,0,0,9,9,9,,,,,,,,,267.1913595001679,None,268.8644419000484,269.15916649997234,269.15916649997234,269.18370150006376,269.18370150006376,269.2245593999978,269.2245593999978,None,9,0,0.8529789000749588,269.2245593999978,None,270.7244794999715,None,['7'],270.7244794999715,None,[0.4650123999454081],,,,,Emoconpilot030,2021_Oct_20_1148,BackwardMask,2020.2.8,119.67620382652794,
,m,008_y_m_h_a.jpg,happy,9,4,m,004_o_m_n_a.jpg,neutral,incongruent,8,match,,120,170,,18,150,block1_Pilot_2,8,h_n,h_n_strong,,,,,0,0,0,0,0,10,10,10,,,,,,,,,273.72541700000875,None,274.9843169001397,275.2756559001282,275.2756559001282,275.4255992001854,275.4255992001854,275.4664412001148,275.4664412001148,None,9,0,0.5549980001524091,275.4664412001148,None,276.9662695999723,None,['7'],276.9662695999723,None,[0.3593439001124352],,,,,Emoconpilot030,2021_Oct_20_1148,BackwardMask,2020.2.8,119.67620382652794,
,f,019_m_f_h_a.jpg,happy,9,27,m,027_o_m_s_a.jpg,sad,incongruent,7,mismatch,,120,160,,1,238,block1_Pilot_2,19,h_s,h_s_weak,,,,,0,0,0,0,0,11,11,11,,,,,,,,,279.96666180016473,None,281.9593335001264,282.250762199983,282.250762199983,282.2589004000183,282.2589004000183,282.2996657001786,282.2996657001786,None,None,0,,282.2996657001786,None,283.7995492001064,None,['9'],283.7995492001064,None,[0.9017354999668896],,,,,Emoconpilot030,2021_Oct_20_1148,BackwardMask,2020.2.8,119.67620382652794,
,m,016_y_m_s_a.jpg,sad,7,4,m,004_o_m_s_a.jpg,sad,congruent,7,match,,130,160,,18,142,block1_Pilot_2,16,s_s,s_s_strong,,,,,0,0,0,0,0,12,12,12,,,,,,,,,286.8006213000044,None,287.9933896001894,288.28421590011567,288.28421590011567,288.4340025000274,288.4340025000274,288.47499170014635,288.47499170014635,None,7,1,0.9465046001132578,288.47499170014635,None,289.975880500162,None,['7'],289.975880500162,None,[0.9095680001191795],,,,,Emoconpilot030,2021_Oct_20_1148,BackwardMask,2020.2.8,119.67620382652794,
,f,021_o_f_n_a.jpg,neutral,8,21,f,021_o_f_h_a.jpg,happy,incongruent,9,match,,140,150,,3,171,block1_Pilot_2,21,n_h,n_h_weak,,,,,0,0,0,0,0,13,13,13,,,,,,,,,292.97583770006895,None,294.4235221000854,294.7181526001077,294.7181526001077,294.7421385999769,294.7421385999769,294.78290210012347,294.78290210012347,None,8,0,0.9344845998566598,294.78290210012347,None,296.28346950002015,None,['7'],296.28346950002015,None,[0.3538930001668632],,,,,Emoconpilot030,2021_Oct_20_1148,BackwardMask,2020.2.8,119.67620382652794,
,f,012_o_f_h_a.jpg,happy,9,13,m,013_y_m_h_a.jpg,happy,congruent,9,mismatch,,120,150,,3,213,block1_Pilot_2,12,h_h,h_h_weak,,,,,0,0,0,0,0,14,14,14,,,,,,,,,299.2845334999729,None,301.06618420011364,301.35955810011365,301.35955810011365,301.3843447000254,301.3843447000254,301.4251471001189,301.4251471001189,None,9,1,0.7084066001698375,301.4251471001189,None,302.92526220018044,None,['7'],302.92526220018044,None,[0.32028109999373555],,,,,Emoconpilot030,2021_Oct_20_1148,BackwardMask,2020.2.8,119.67620382652794,
,f,021_o_f_s_a.jpg,sad,7,27,m,027_o_m_n_a.jpg,neutral,incongruent,8,mismatch,,130,170,,3,174,block1_Pilot_2,21,s_n,s_n_weak,,,,,0,0,0,0,0,15,15,15,,,,,,,,,305.9252471001819,None,307.38307710015215,307.67634100001305,307.67634100001305,307.7010266999714,307.7010266999714,307.7419327001553,307.7419327001553,None,None,0,,307.7419327001553,None,309.2420713000465,None,"['9', '7', '7']",309.2420713000465,None,"[0.2194456998258829, 0.6915817998815328, 2.147427399875596]",,,,,Emoconpilot030,2021_Oct_20_1148,BackwardMask,2020.2.8,119.67620382652794,
,f,019_m_f_n_a.jpg,neutral,8,19,f,019_m_f_h_a.jpg,happy,incongruent,9,match,,140,150,,3,238,block1_Pilot_2,19,n_h,n_h_weak,,,,,0,0,0,0,0,16,16,16,,,,,,,,,312.24274910008535,None,314.2523591001518,314.5435352001805,314.5435352001805,314.56770929996856,314.56770929996856,314.6088152001612,314.6088152001612,None,8,0,0.684829399921,314.6088152001612,None,316.10871409997344,None,['7'],316.10871409997344,None,[0.4328530998900533],,,,,Emoconpilot030,2021_Oct_20_1148,BackwardMask,2020.2.8,119.67620382652794,
,f,028_y_f_n_a.jpg,neutral,8,30,f,030_o_f_s_a.jpg,sad,incongruent,7,match,,140,160,,18,219,block1_Pilot_2,28,n_s,n_s_weak,,,,,0,0,0,0,0,17,17,17,,,,,,,,,319.1096845001448,None,320.9549674000591,321.2436230999883,321.2436230999883,321.3931106000673,321.3931106000673,321.43379260017537,321.43379260017537,None,8,0,0.9957937998697162,321.43379260017537,None,322.9344060001895,None,['7'],322.9344060001895,None,[0.5669974000193179],,,,,Emoconpilot030,2021_Oct_20_1148,BackwardMask,2020.2.8,119.67620382652794,
,m,008_y_m_h_a.jpg,happy,9,8,m,008_y_m_s_a.jpg,sad,incongruent,7,match,,120,160,,3,176,block1_Pilot_2,8,h_s,h_s_weak,,,,,0,0,0,0,0,18,18,18,,,,,,,,,325.9347310999874,None,327.4084463000763,327.7016410001088,327.7016410001088,327.7264290000312,327.7264290000312,327.76732910005376,327.76732910005376,None,9,0,0.654191100038588,327.76732910005376,None,329.2673611000646,None,['7'],329.2673611000646,None,[0.386234600096941],,,,,Emoconpilot030,2021_Oct_20_1148,BackwardMask,2020.2.8,119.67620382652794,
,f,019_m_f_h_a.jpg,happy,9,33,m,033_o_m_n_a.jpg,neutral,incongruent,8,mismatch,,120,170,,18,136,block1_Pilot_2,19,h_n,h_n_weak,,,,,0,0,0,0,0,19,19,19,,,,,,,,,332.2676455001347,None,333.40897059999406,333.7016348000616,333.7016348000616,333.8517509000376,333.8517509000376,333.892336799996,333.892336799996,None,9,0,0.5691021999809891,333.892336799996,None,335.39253509999253,None,['7'],335.39253509999253,None,[0.4287233001086861],,,,,Emoconpilot030,2021_Oct_20_1148,BackwardMask,2020.2.8,119.67620382652794,
,m,013_y_m_n_a.jpg,neutral,8,12,f,012_o_f_s_a.jpg,sad,incongruent,7,mismatch,,140,160,,2,132,block1_Pilot_2,13,n_s,n_s_strong,,,,,0,0,0,0,0,20,20,20,,,,,,,,,338.3927335999906,None,339.51569729996845,339.8105919000227,339.8105919000227,339.82682369998656,339.82682369998656,339.86743270000443,339.86743270000443,None,8,0,1.2179040000773966,339.86743270000443,None,341.3676320000086,None,['7'],341.3676320000086,None,[0.485840099863708],,,,,Emoconpilot030,2021_Oct_20_1148,BackwardMask,2020.2.8,119.67620382652794,
,f,040_y_f_s_a.jpg,sad,7,8,m,008_y_m_h_a.jpg,happy,incongruent,9,mismatch,,130,150,,2,175,block1_Pilot_2,40,s_h,s_h_weak,,,,,0,0,0,0,0,21,21,21,,,,,,,,,344.3692364001181,None,345.83395580016077,346.1271836999804,346.1271836999804,346.1435319001321,346.1435319001321,346.1843435000628,346.1843435000628,None,8,0,0.7892938998993486,346.1843435000628,None,347.6851772000082,None,['7'],347.6851772000082,None,[0.38436200004071],,,,,Emoconpilot030,2021_Oct_20_1148,BackwardMask,2020.2.8,119.67620382652794,
,m,004_o_m_h_a.jpg,happy,9,40,f,040_y_f_s_a.jpg,sad,incongruent,7,mismatch,,120,160,,2,193,block1_Pilot_2,4,h_s,h_s_weak,,,,,0,0,0,0,0,22,22,22,,,,,,,,,350.6855198000558,None,352.33569229999557,352.62731920019723,352.62731920019723,352.6436491999775,352.6436491999775,352.6844365000725,352.6844365000725,None,9,0,0.7370073997881263,352.6844365000725,None,354.18446740019135,None,['7'],354.18446740019135,None,[0.404888299992308],,,,,Emoconpilot030,2021_Oct_20_1148,BackwardMask,2020.2.8,119.67620382652794,
,f,028_y_f_s_a.jpg,sad,7,13,m,013_y_m_n_a.jpg,neutral,incongruent,8,mismatch,,130,170,,2,126,block1_Pilot_2,28,s_n,s_n_weak,,,,,0,0,0,0,0,23,23,23,,,,,,,,,357.18532690010034,None,358.2465101000853,358.53565530013293,358.53565530013293,358.5521259000525,358.5521259000525,358.5929950000718,358.5929950000718,None,8,1,1.3083694998640567,358.5929950000718,None,360.09324329998344,None,['8'],360.09324329998344,None,[0.7441885999869555],,,,,Emoconpilot030,2021_Oct_20_1148,BackwardMask,2020.2.8,119.67620382652794,
,m,004_o_m_h_a.jpg,happy,9,40,f,040_y_f_n_a.jpg,neutral,incongruent,8,mismatch,,120,170,,3,146,block1_Pilot_2,4,h_n,h_n_strong,,,,,0,0,0,0,0,24,24,24,,,,,,,,,363.0932536001783,None,364.33151190006174,364.6278562999796,364.6278562999796,364.65222540008835,364.65222540008835,364.69311580015346,364.69311580015346,None,9,0,0.5923719999846071,364.69311580015346,None,366.1930397001561,None,['7'],366.1930397001561,None,[0.2686283001676202],,,,,Emoconpilot030,2021_Oct_20_1148,BackwardMask,2020.2.8,119.67620382652794,
,m,008_y_m_s_a.jpg,sad,7,30,f,030_o_f_n_a.jpg,neutral,incongruent,8,mismatch,,130,170,,3,132,block1_Pilot_2,8,s_n,s_n_strong,,,,,0,0,0,0,0,25,25,25,,,,,,,,,369.19507970009,None,370.31492780009285,370.6111693000421,370.6111693000421,370.6356987999752,370.6356987999752,370.67652159999125,370.67652159999125,None,7,0,0.8410700000822544,370.67652159999125,None,372.17664139997214,None,['7'],372.17664139997214,None,[0.26090400014072657],,,,,Emoconpilot030,2021_Oct_20_1148,BackwardMask,2020.2.8,119.67620382652794,
,f,040_y_f_n_a.jpg,neutral,8,40,f,040_y_f_s_a.jpg,sad,incongruent,7,match,,140,160,,2,123,block1_Pilot_2,40,n_s,n_s_weak,,,,,0,0,0,0,0,26,26,26,,,,,,,,,375.1766017000191,None,376.22149240016006,376.5114008001983,376.5114008001983,376.5275983000174,376.5275983000174,376.568236600142,376.568236600142,None,8,0,0.9652935001067817,376.568236600142,None,378.0692587001249,None,['7'],378.0692587001249,None,[0.2563277999870479],,,,,Emoconpilot030,2021_Oct_20_1148,BackwardMask,2020.2.8,119.67620382652794,
,f,028_y_f_s_a.jpg,sad,7,27,m,027_o_m_s_a.jpg,sad,congruent,7,mismatch,,130,160,,3,159,block1_Pilot_2,28,s_s,s_s_weak,,,,,0,0,0,0,0,27,27,27,,,,,,,,,381.0694453001488,None,382.4050543999765,382.6945897999685,382.6945897999685,382.71927720005624,382.71927720005624,382.76013389998116,382.76013389998116,None,7,1,1.4452474999707192,382.76013389998116,None,384.26030079997145,None,['7'],384.26030079997145,None,[0.9289987999945879],,,,,Emoconpilot030,2021_Oct_20_1148,BackwardMask,2020.2.8,119.67620382652794,
,f,012_o_f_s_a.jpg,sad,7,27,m,027_o_m_s_a.jpg,sad,congruent,7,mismatch,,130,160,,18,166,block1_Pilot_2,12,s_s,s_s_weak,,,,,0,0,0,0,0,28,28,28,,,,,,,,,387.2605362001341,None,388.6506988001056,388.9445170001127,388.9445170001127,389.0944585001562,389.0944585001562,389.13488330016844,389.13488330016844,None,7,1,0.7666784999892116,389.13488330016844,None,390.635429300135,None,['7'],390.635429300135,None,[0.23383419984020293],,,,,Emoconpilot030,2021_Oct_20_1148,BackwardMask,2020.2.8,119.67620382652794,
,f,028_y_f_n_a.jpg,neutral,8,28,f,028_y_f_h_a.jpg,happy,incongruent,9,match,,140,150,,2,186,block1_Pilot_2,28,n_h,n_h_weak,,,,,0,0,0,0,0,29,29,29,,,,,,,,,393.6351144001819,None,395.2102079000324,395.5028709000908,395.5028709000908,395.5191748000216,395.5191748000216,395.5600861001294,395.5600861001294,None,8,0,1.2532232000958174,395.5600861001294,None,397.0601345000323,None,['7'],397.0601345000323,None,[0.3852956001646817],,,,,Emoconpilot030,2021_Oct_20_1148,BackwardMask,2020.2.8,119.67620382652794,
,m,027_o_m_n_a.jpg,neutral,8,16,m,016_y_m_n_a.jpg,neutral,congruent,8,match,,140,170,,2,188,block1_Pilot_2,27,n_n,n_n_weak,,,,,0,0,0,0,0,30,30,30,,,,,,,,,400.0602665001061,None,401.6470854000654,401.93679230008274,401.93679230008274,401.9527356000617,401.9527356000617,401.9934289001394,401.9934289001394,None,8,1,1.3078749000560492,401.9934289001394,None,403.4935838000383,None,"['7', '8']",403.4935838000383,None,"[0.41573840007185936, 1.6557273000944406]",,,,,Emoconpilot030,2021_Oct_20_1148,BackwardMask,2020.2.8,119.67620382652794,
,f,012_o_f_s_a.jpg,sad,7,13,m,013_y_m_n_a.jpg,neutral,incongruent,8,mismatch,,130,170,,3,162,block1_Pilot_2,12,s_n,s_n_strong,,,,,0,0,0,0,0,31,31,31,,,,,,,,,406.4937039001379,None,407.847082399996,408.14457410015166,408.14457410015166,408.16949820006266,408.16949820006266,408.2101549000945,408.2101549000945,None,9,0,1.0270908998791128,408.2101549000945,None,409.7108164001256,None,['8'],409.7108164001256,None,[0.3584374999627471],,,,,Emoconpilot030,2021_Oct_20_1148,BackwardMask,2020.2.8,119.67620382652794,
,f,012_o_f_s_a.jpg,sad,7,16,m,016_y_m_h_a.jpg,happy,incongruent,9,mismatch,,130,150,,1,238,block1_Pilot_2,12,s_h,s_h_strong,,,,,0,0,0,0,0,32,32,32,,,,,,,,,412.71241450007074,None,414.6963169001974,414.9944905000739,414.9944905000739,415.0028062001802,415.0028062001802,415.0435387000907,415.0435387000907,None,None,0,,415.0435387000907,None,416.54365710006095,None,['8'],416.54365710006095,None,[0.7496373001486063],,,,,Emoconpilot030,2021_Oct_20_1148,BackwardMask,2020.2.8,119.67620382652794,
,f,028_y_f_n_a.jpg,neutral,8,21,f,021_o_f_n_a.jpg,neutral,congruent,8,match,,140,170,,3,220,block1_Pilot_2,28,n_n,n_n_weak,,,,,0,0,0,0,0,33,33,33,,,,,,,,,419.54494890011847,None,421.47753130015917,421.77048740000464,421.77048740000464,421.79497919999994,421.79497919999994,421.83572630002163,421.83572630002163,None,8,1,0.74551280005835,421.83572630002163,None,423.3356055000331,None,['7'],423.3356055000331,None,[0.23760530003346503],,,,,Emoconpilot030,2021_Oct_20_1148,BackwardMask,2020.2.8,119.67620382652794,
,f,040_y_f_h_a.jpg,happy,9,33,m,033_o_m_s_a.jpg,sad,incongruent,7,mismatch,,120,160,,2,194,block1_Pilot_2,40,h_s,h_s_weak,,,,,0,0,0,0,0,34,34,34,,,,,,,,,426.33559789997526,None,427.96125739999115,428.2531942999922,428.2531942999922,428.26992210000753,428.26992210000753,428.3108690001536,428.3108690001536,None,9,0,0.9423430000897497,428.3108690001536,None,429.81061609997414,None,['7'],429.81061609997414,None,[0.6505349001381546],,,,,Emoconpilot030,2021_Oct_20_1148,BackwardMask,2020.2.8,119.67620382652794,
,f,028_y_f_h_a.jpg,happy,9,8,m,008_y_m_n_a.jpg,neutral,incongruent,8,mismatch,,120,170,,3,162,block1_Pilot_2,28,h_n,h_n_weak,,,,,0,0,0,0,0,35,35,35,,,,,,,,,432.81076820008457,None,434.17360390000977,434.4618909000419,434.4618909000419,434.4868338999804,434.4868338999804,434.52733640000224,434.52733640000224,None,9,0,0.6698612000327557,434.52733640000224,None,436.02758660004474,None,['7'],436.02758660004474,None,[0.2897065000142902],,,,,Emoconpilot030,2021_Oct_20_1148,BackwardMask,2020.2.8,119.67620382652794,
,m,013_y_m_n_a.jpg,neutral,8,27,m,027_o_m_n_a.jpg,neutral,congruent,8,match,,140,170,,2,126,block1_Pilot_2,13,n_n,n_n_strong,,,,,0,0,0,0,0,36,36,36,,,,,,,,,439.02754639997147,None,440.1469395000022,440.4372915001586,440.4372915001586,440.45393000007607,440.45393000007607,440.4942757000681,440.4942757000681,None,8,1,0.8310946000274271,440.4942757000681,None,441.9941676000599,None,['7'],441.9941676000599,None,[0.5549784998875111],,,,,Emoconpilot030,2021_Oct_20_1148,BackwardMask,2020.2.8,119.67620382652794,
,f,028_y_f_s_a.jpg,sad,7,19,f,019_m_f_n_a.jpg,neutral,incongruent,8,match,,130,170,,2,156,block1_Pilot_2,28,s_n,s_n_strong,,,,,0,0,0,0,0,37,37,37,,,,,,,,,444.9948237000499,None,446.3056720001623,446.59519560006447,446.59519560006447,446.611726900097,446.611726900097,446.6525238000322,446.6525238000322,None,9,0,0.7366861999034882,446.6525238000322,None,448.1527140000835,None,['7'],448.1527140000835,None,[0.40445740008726716],,,,,Emoconpilot030,2021_Oct_20_1148,BackwardMask,2020.2.8,119.67620382652794,
,m,016_y_m_s_a.jpg,sad,7,19,f,019_m_f_n_a.jpg,neutral,incongruent,8,mismatch,,130,170,,3,138,block1_Pilot_2,16,s_n,s_n_weak,,,,,0,0,0,0,0,38,38,38,,,,,,,,,451.15385620016605,None,452.3116630001459,452.6041628001258,452.6041628001258,452.6287611001171,452.6287611001171,452.66933110007085,452.66933110007085,None,7,0,0.8318861001171172,452.66933110007085,None,454.1695534000173,None,['7'],454.1695534000173,None,[0.21963760000653565],,,,,Emoconpilot030,2021_Oct_20_1148,BackwardMask,2020.2.8,119.67620382652794,
,m,033_o_m_s_a.jpg,sad,7,27,m,027_o_m_n_a.jpg,neutral,incongruent,8,match,,130,170,,3,120,block1_Pilot_2,33,s_n,s_n_strong,,,,,0,0,0,0,0,39,39,39,,,,,,,,,457.16997710010037,None,458.1784076001495,458.47085850010626,458.47085850010626,458.4954620001372,458.4954620001372,458.53645700006746,458.53645700006746,None,7,0,0.6688055000267923,458.53645700006746,None,460.03627849998884,None,['7'],460.03627849998884,None,[0.21687059989199042],,,,,Emoconpilot030,2021_Oct_20_1148,BackwardMask,2020.2.8,119.67620382652794,
,f,040_y_f_s_a.jpg,sad,7,33,m,033_o_m_n_a.jpg,neutral,incongruent,8,mismatch,,130,170,,1,238,block1_Pilot_2,40,s_n,s_n_weak,,,,,0,0,0,0,0,40,40,40,,,,,,,,,463.0367319001816,None,465.02749240002595,465.32099959999323,465.32099959999323,465.32931270007975,465.32931270007975,465.3698103001807,465.3698103001807,None,None,0,,465.3698103001807,None,466.86980550014414,None,['9'],466.86980550014414,None,[0.895352500025183],,,,,Emoconpilot030,2021_Oct_20_1148,BackwardMask,2020.2.8,119.67620382652794,
,f,021_o_f_n_a.jpg,neutral,8,19,f,019_m_f_s_a.jpg,sad,incongruent,7,match,,140,160,,1,238,block1_Pilot_2,21,n_s,n_s_strong,,,,,0,0,0,0,0,41,41,41,,,,,,,,,469.87002740008757,None,471.95799390017055,472.2467202001717,472.2467202001717,472.2541446001269,472.2541446001269,472.29525259998627,472.29525259998627,None,8,0,1.1821920999791473,472.29525259998627,None,473.7952009001747,None,['9'],473.7952009001747,None,[0.554071000078693],,,,,Emoconpilot030,2021_Oct_20_1148,BackwardMask,2020.2.8,119.67620382652794,
,m,033_o_m_h_a.jpg,happy,9,27,m,027_o_m_h_a.jpg,happy,congruent,9,match,,120,150,,3,134,block1_Pilot_2,33,h_h,h_h_weak,,,,,0,0,0,0,0,42,42,42,,,,,,,,,476.79513240000233,None,477.92399720009416,478.21070070005953,478.21070070005953,478.235855899984,478.235855899984,478.2766470001079,478.2766470001079,None,9,1,1.0086958999745548,478.2766470001079,None,479.77666159998626,None,['7'],479.77666159998626,None,[0.7412390001118183],,,,,Emoconpilot030,2021_Oct_20_1148,BackwardMask,2020.2.8,119.67620382652794,
,f,040_y_f_s_a.jpg,sad,7,4,m,004_o_m_h_a.jpg,happy,incongruent,9,mismatch,,130,150,,2,225,block1_Pilot_2,40,s_h,s_h_strong,,,,,0,0,0,0,0,43,43,43,,,,,,,,,482.77678170008585,None,484.66053960006684,484.9529030001722,484.9529030001722,484.9696083001327,484.9696083001327,485.0104269001167,485.0104269001167,None,8,0,0.970784500008449,485.0104269001167,None,486.51089180004783,None,['7'],486.51089180004783,None,[0.4544228999875486],,,,,Emoconpilot030,2021_Oct_20_1148,BackwardMask,2020.2.8,119.67620382652794,
,m,027_o_m_s_a.jpg,sad,7,21,f,021_o_f_n_a.jpg,neutral,incongruent,8,mismatch,,130,170,,18,238,block1_Pilot_2,27,s_n,s_n_weak,,,,,0,0,0,0,0,44,44,44,,,,,,,,,489.51225710008293,None,491.50916730007157,491.8047474999912,491.8047474999912,491.95481200003996,491.95481200003996,491.99538610014133,491.99538610014133,None,7,0,0.7700926000252366,491.99538610014133,None,493.49618420004845,None,['7'],493.49618420004845,None,[0.5494170999154449],,,,,Emoconpilot030,2021_Oct_20_1148,BackwardMask,2020.2.8,119.67620382652794,
,m,016_y_m_h_a.jpg,happy,9,16,m,016_y_m_n_a.jpg,neutral,incongruent,8,match,,120,170,,3,202,block1_Pilot_2,16,h_n,h_n_weak,,,,,0,0,0,0,0,45,45,45,,,,,,,,,496.49582920013927,None,498.19279860006645,498.48824590002187,498.48824590002187,498.5130541000981,498.5130541000981,498.5539053999819,498.5539053999819,None,9,0,0.5954569999594241,498.5539053999819,None,500.0539808999747,None,['7'],500.0539808999747,None,[0.23950919997878373],,,,,Emoconpilot030,2021_Oct_20_1148,BackwardMask,2020.2.8,119.67620382652794,
,m,033_o_m_h_a.jpg,happy,9,13,m,013_y_m_n_a.jpg,neutral,incongruent,8,match,,120,170,,2,150,block1_Pilot_2,33,h_n,h_n_weak,,,,,0,0,0,0,0,46,46,46,,,,,,,,,503.05410700012,None,504.31079929997213,504.6051428001374,504.6051428001374,504.62147190002725,504.62147190002725,504.662425900111,504.662425900111,None,9,0,0.7269745001103729,504.662425900111,None,506.1624386999756,None,['7'],506.1624386999756,None,[0.23507459997199476],,,,,Emoconpilot030,2021_Oct_20_1148,BackwardMask,2020.2.8,119.67620382652794,
,f,012_o_f_n_a.jpg,neutral,8,16,m,016_y_m_n_a.jpg,neutral,congruent,8,mismatch,,140,170,,1,238,block1_Pilot_2,12,n_n,n_n_strong,,,,,0,0,0,0,0,47,47,47,,,,,,,,,509.1626103001181,None,511.1727360000368,511.46398440003395,511.46398440003395,511.4716881001368,511.4716881001368,511.51249270001426,511.51249270001426,None,None,0,,511.51249270001426,None,513.0125963001046,None,"['8', '9']",513.0125963001046,None,"[0.08087379997596145, 0.944734999909997]",,,,,Emoconpilot030,2021_Oct_20_1148,BackwardMask,2020.2.8,119.67620382652794,
,f,040_y_f_n_a.jpg,neutral,8,30,f,030_o_f_h_a.jpg,happy,incongruent,9,match,,140,150,,2,194,block1_Pilot_2,40,n_h,n_h_strong,,,,,0,0,0,0,0,48,48,48,,,,,,,,,516.0127462001983,None,517.6508818001021,517.9474591000471,517.9474591000471,517.9634179000277,517.9634179000277,518.0043283000123,518.0043283000123,None,8,0,1.1850281001534313,518.0043283000123,None,519.5044055001345,None,['7'],519.5044055001345,None,[0.47696890006773174],,,,,Emoconpilot030,2021_Oct_20_1148,BackwardMask,2020.2.8,119.67620382652794,
,m,013_y_m_n_a.jpg,neutral,8,12,f,012_o_f_s_a.jpg,sad,incongruent,7,mismatch,,140,160,,18,238,block1_Pilot_2,13,n_s,n_s_weak,,,,,0,0,0,0,0,49,49,49,,,,,,,,,522.5045508001931,None,524.5099959000945,524.8065506001003,524.8065506001003,524.9555278001353,524.9555278001353,524.995977899991,524.995977899991,None,8,0,0.617452000034973,524.995977899991,None,526.4961284999736,None,['7'],526.4961284999736,None,[0.6132352999411523],,,,,Emoconpilot030,2021_Oct_20_1148,BackwardMask,2020.2.8,119.67620382652794,
,f,012_o_f_h_a.jpg,happy,9,12,f,012_o_f_n_a.jpg,neutral,incongruent,8,match,,120,170,,2,125,block1_Pilot_2,12,h_n,h_n_strong,,,,,0,0,0,0,0,50,50,50,,,,,,,,,529.4963422000874,None,530.5546733001247,530.8471564000938,530.8471564000938,530.8637087000534,530.8637087000534,530.9046005001292,530.9046005001292,None,9,0,0.6367997999768704,530.9046005001292,None,532.4045992000028,None,['7'],532.4045992000028,None,[0.27290219999849796],,,,,Emoconpilot030,2021_Oct_20_1148,BackwardMask,2020.2.8,119.67620382652794,
,m,008_y_m_s_a.jpg,sad,7,19,f,019_m_f_s_a.jpg,sad,congruent,7,mismatch,,130,160,,2,202,block1_Pilot_2,8,s_s,s_s_strong,,,,,0,0,0,0,0,51,51,51,,,,,,,,,535.4048452000134,None,537.1155846000183,537.4059898999985,537.4059898999985,537.422157100169,537.422157100169,537.4629828000907,537.4629828000907,None,7,1,0.9825194999575615,537.4629828000907,None,538.963106200099,None,['7'],538.963106200099,None,[0.2823310000821948],,,,,Emoconpilot030,2021_Oct_20_1148,BackwardMask,2020.2.8,119.67620382652794,
,f,028_y_f_n_a.jpg,neutral,8,12,f,012_o_f_n_a.jpg,neutral,congruent,8,match,,140,170,,2,214,block1_Pilot_2,28,n_n,n_n_strong,,,,,0,0,0,0,0,52,52,52,,,,,,,,,541.9632400001865,None,543.7701688001398,544.0645751000848,544.0645751000848,544.0807617001701,544.0807617001701,544.1215700001922,544.1215700001922,None,8,1,0.8198784000705928,544.1215700001922,None,545.621711099986,None,['7'],545.621711099986,None,[0.479821200016886],,,,,Emoconpilot030,2021_Oct_20_1148,BackwardMask,2020.2.8,119.67620382652794,
,m,027_o_m_h_a.jpg,happy,9,19,f,019_m_f_h_a.jpg,happy,congruent,9,mismatch,,120,150,,3,165,block1_Pilot_2,27,h_h,h_h_strong,,,,,0,0,0,0,0,53,53,53,,,,,,,,,548.6216079001315,None,550.0212710001506,550.3147257000674,550.3147257000674,550.338983700145,550.338983700145,550.3800248000771,550.3800248000771,None,9,1,0.6654524998739362,550.3800248000771,None,551.8801458000671,None,['7'],551.8801458000671,None,[0.3573690000921488],,,,,Emoconpilot030,2021_Oct_20_1148,BackwardMask,2020.2.8,119.67620382652794,
,m,008_y_m_s_a.jpg,sad,7,13,m,013_y_m_h_a.jpg,happy,incongruent,9,match,,130,150,,18,200,block1_Pilot_2,8,s_h,s_h_strong,,,,,0,0,0,0,0,54,54,54,,,,,,,,,554.8801922001876,None,556.5658067001496,556.8566471000668,556.8566471000668,557.0059713001829,557.0059713001829,557.0467383000068,557.0467383000068,None,7,0,0.6784923002123833,557.0467383000068,None,558.5468560999725,None,['7'],558.5468560999725,None,[0.5548054999671876],,,,,Emoconpilot030,2021_Oct_20_1148,BackwardMask,2020.2.8,119.67620382652794,
,f,030_o_f_n_a.jpg,neutral,8,28,f,028_y_f_s_a.jpg,sad,incongruent,7,match,,140,160,,18,238,block1_Pilot_2,30,n_s,n_s_weak,,,,,0,0,0,0,0,55,55,55,,,,,,,,,561.547010099981,None,563.5556610000785,563.8485103000421,563.8485103000421,563.9977442000527,563.9977442000527,564.0386604000814,564.0386604000814,None,8,0,0.9347210000269115,564.0386604000814,None,565.5386372001376,None,['7'],565.5386372001376,None,[0.37862710002809763],,,,,Emoconpilot030,2021_Oct_20_1148,BackwardMask,2020.2.8,119.67620382652794,
,f,019_m_f_h_a.jpg,happy,9,27,m,027_o_m_h_a.jpg,happy,congruent,9,mismatch,,120,150,,1,238,block1_Pilot_2,19,h_h,h_h_strong,,,,,0,0,0,0,0,56,56,56,,,,,,,,,568.5392678000499,None,570.5339999001008,570.8232725001872,570.8232725001872,570.8313991001341,570.8313991001341,570.8720102000516,570.8720102000516,None,None,0,,570.8720102000516,None,572.3721295001451,None,['9'],572.3721295001451,None,[0.8893242001067847],,,,,Emoconpilot030,2021_Oct_20_1148,BackwardMask,2020.2.8,119.67620382652794,
,m,004_o_m_s_a.jpg,sad,7,4,m,004_o_m_h_a.jpg,happy,incongruent,9,match,,130,150,,18,155,block1_Pilot_2,4,s_h,s_h_weak,,,,,0,0,0,0,0,57,57,57,,,,,,,,,575.3723345000762,None,576.6766778000165,576.964953900082,576.964953900082,577.1147159000393,577.1147159000393,577.1556387001183,577.1556387001183,None,7,0,0.9136498000007123,577.1556387001183,None,578.6556361000985,None,['7'],578.6556361000985,None,[0.42992589995265007],,,,,Emoconpilot030,2021_Oct_20_1148,BackwardMask,2020.2.8,119.67620382652794,
,f,021_o_f_s_a.jpg,sad,7,27,m,027_o_m_n_a.jpg,neutral,incongruent,8,mismatch,,130,170,,3,224,block1_Pilot_2,21,s_n,s_n_weak,,,,,0,0,0,0,0,58,58,58,,,,,,,,,581.6557704000734,None,583.5330509999767,583.8234200000297,583.8234200000297,583.8480566001963,583.8480566001963,583.8890629999805,583.8890629999805,None,7,0,1.1163958001416177,583.8890629999805,None,585.3890653999988,None,['7'],585.3890653999988,None,[0.4164656999055296],,,,,Emoconpilot030,2021_Oct_20_1148,BackwardMask,2020.2.8,119.67620382652794,
,f,021_o_f_h_a.jpg,happy,9,27,m,027_o_m_n_a.jpg,neutral,incongruent,8,mismatch,,120,170,,2,147,block1_Pilot_2,21,h_n,h_n_strong,,,,,0,0,0,0,0,59,59,59,,,,,,,,,588.3891867999919,None,589.6394715001807,589.9323330000043,589.9323330000043,589.9482426000759,589.9482426000759,589.9891027000267,589.9891027000267,None,9,0,0.7682264000177383,589.9891027000267,None,591.4892788999714,None,['7'],591.4892788999714,None,[0.21213240013457835],,,,,Emoconpilot030,2021_Oct_20_1148,BackwardMask,2020.2.8,119.67620382652794,
,f,040_y_f_n_a.jpg,neutral,8,13,m,013_y_m_h_a.jpg,happy,incongruent,9,mismatch,,140,150,,3,237,block1_Pilot_2,40,n_h,n_h_strong,,,,,0,0,0,0,0,60,60,60,,,,,,,,,594.4893412000965,None,596.482819700148,596.7738630999811,596.7738630999811,596.7984671001323,596.7984671001323,596.8393228000496,596.8393228000496,None,8,0,0.9261672000866383,596.8393228000496,None,598.3394603000488,None,['7'],598.3394603000488,None,[0.2660342000890523],,,,,Emoconpilot030,2021_Oct_20_1148,BackwardMask,2020.2.8,119.67620382652794,
,m,027_o_m_n_a.jpg,neutral,8,19,f,019_m_f_h_a.jpg,happy,incongruent,9,mismatch,,140,150,,3,199,block1_Pilot_2,27,n_h,n_h_strong,,,,,0,0,0,0,0,61,61,61,,,,,,,,,601.3394353999756,None,603.0228701001033,603.3157734000124,603.3157734000124,603.3402103001717,603.3402103001717,603.3810732001439,603.3810732001439,None,8,0,0.7762603000737727,603.3810732001439,None,604.881382800173,None,['7'],604.881382800173,None,[0.27610119991004467],,,,,Emoconpilot030,2021_Oct_20_1148,BackwardMask,2020.2.8,119.67620382652794,
,m,027_o_m_h_a.jpg,happy,9,21,f,021_o_f_s_a.jpg,sad,incongruent,7,mismatch,,120,160,,2,169,block1_Pilot_2,27,h_s,h_s_strong,,,,,0,0,0,0,0,62,62,62,,,,,,,,,607.8813146001194,None,609.308415699983,609.5991972000338,609.5991972000338,609.6153095001355,609.6153095001355,609.6561139000114,609.6561139000114,None,9,0,0.877371700014919,609.6561139000114,None,611.156264099991,None,['7'],611.156264099991,None,[0.4333309999201447],,,,,Emoconpilot030,2021_Oct_20_1148,BackwardMask,2020.2.8,119.67620382652794,
,m,013_y_m_n_a.jpg,neutral,8,33,m,033_o_m_h_a.jpg,happy,incongruent,9,match,,140,150,,18,238,block1_Pilot_2,13,n_h,n_h_strong,,,,,0,0,0,0,0,63,63,63,,,,,,,,,614.156435900135,None,616.1587055001874,616.4494108001236,616.4494108001236,616.598861000035,616.598861000035,616.6397647999693,616.6397647999693,None,8,0,0.5095153998117894,616.6397647999693,None,618.139677700121,None,['7'],618.139677700121,None,[0.5857208000961691],,,,,Emoconpilot030,2021_Oct_20_1148,BackwardMask,2020.2.8,119.67620382652794,
,m,033_o_m_n_a.jpg,neutral,8,30,f,030_o_f_s_a.jpg,sad,incongruent,7,mismatch,,140,160,,1,238,block1_Pilot_2,33,n_s,n_s_weak,,,,,0,0,0,0,0,64,64,64,,,,,,,,,621.1400220000651,None,623.147308900021,623.4412317001261,623.4412317001261,623.4489116000477,623.4489116000477,623.4897942000534,623.4897942000534,None,None,0,,623.4897942000534,None,624.9898453999776,None,['9'],624.9898453999776,None,[0.24764780001714826],,,,,Emoconpilot030,2021_Oct_20_1148,BackwardMask,2020.2.8,119.67620382652794,
,m,033_o_m_s_a.jpg,sad,7,4,m,004_o_m_s_a.jpg,sad,congruent,7,match,,130,160,,18,146,block1_Pilot_2,33,s_s,s_s_weak,,,,,0,0,0,0,0,65,65,65,,,,,,,,,627.9899865000043,None,629.2185021000914,629.507560600061,629.507560600061,629.6575396000408,629.6575396000408,629.698215899989,629.698215899989,None,7,1,0.8832026000600308,629.698215899989,None,631.1983390001114,None,['7'],631.1983390001114,None,[0.303037199890241],,,,,Emoconpilot030,2021_Oct_20_1148,BackwardMask,2020.2.8,119.67620382652794,
,m,016_y_m_s_a.jpg,sad,7,28,f,028_y_f_h_a.jpg,happy,incongruent,9,mismatch,,130,150,,18,238,block1_Pilot_2,16,s_h,s_h_strong,,,,,0,0,0,0,0,66,66,66,,,,,,,,,634.1985253000166,None,636.1936195001472,636.4827807999682,636.4827807999682,636.6325976999942,636.6325976999942,636.6734360000119,636.6734360000119,None,7,0,0.6759623000398278,636.6734360000119,None,638.1733523001894,None,['7'],638.1733523001894,None,[0.43216049997135997],,,,,Emoconpilot030,2021_Oct_20_1148,BackwardMask,2020.2.8,119.67620382652794,
,f,030_o_f_h_a.jpg,happy,9,28,f,028_y_f_h_a.jpg,happy,congruent,9,match,,120,150,,3,234,block1_Pilot_2,30,h_h,h_h_weak,,,,,0,0,0,0,0,67,67,67,,,,,,,,,641.1735924000386,None,643.1512649001088,643.4421677000355,643.4421677000355,643.4662007000297,643.4662007000297,643.5069320001639,643.5069320001639,None,9,1,0.6503860000520945,643.5069320001639,None,645.006759900134,None,['7'],645.006759900134,None,[0.4384157001040876],,,,,Emoconpilot030,2021_Oct_20_1148,BackwardMask,2020.2.8,119.67620382652794,
,m,013_y_m_h_a.jpg,happy,9,4,m,004_o_m_h_a.jpg,happy,congruent,9,match,,120,150,,2,141,block1_Pilot_2,13,h_h,h_h_strong,,,,,0,0,0,0,0,68,68,68,,,,,,,,,648.0076256999746,None,649.210153200198,649.5000480001327,649.5000480001327,649.5161876999773,649.5161876999773,649.5570257999934,649.5570257999934,None,9,1,0.520351099781692,649.5570257999934,None,651.0570811000653,None,['7'],651.0570811000653,None,[0.4043149999342859],,,,,Emoconpilot030,2021_Oct_20_1148,BackwardMask,2020.2.8,119.67620382652794,
,f,028_y_f_s_a.jpg,sad,7,8,m,008_y_m_s_a.jpg,sad,congruent,7,mismatch,,130,160,,1,238,block1_Pilot_2,28,s_s,s_s_strong,,,,,0,0,0,0,0,69,69,69,,,,,,,,,654.0572606001515,None,656.056012700079,656.3497959000524,656.3497959000524,656.357956700027,656.357956700027,656.3988065000158,656.3988065000158,None,9,0,0.7266659999731928,656.3988065000158,None,657.8987998000812,None,['7'],657.8987998000812,None,[0.4267043999861926],,,,,Emoconpilot030,2021_Oct_20_1148,BackwardMask,2020.2.8,119.67620382652794,
,f,028_y_f_s_a.jpg,sad,7,30,f,030_o_f_h_a.jpg,happy,incongruent,9,match,,130,150,,2,199,block1_Pilot_2,28,s_h,s_h_weak,,,,,0,0,0,0,0,70,70,70,,,,,,,,,660.8991082001012,None,662.5672107001301,662.8582409999799,662.8582409999799,662.8748217001557,662.8748217001557,662.9157822001725,662.9157822001725,None,8,0,0.7856558000203222,662.9157822001725,None,664.4156653999817,None,['7'],664.4156653999817,None,[0.67773999995552],,,,,Emoconpilot030,2021_Oct_20_1148,BackwardMask,2020.2.8,119.67620382652794,
,m,008_y_m_h_a.jpg,happy,9,21,f,021_o_f_n_a.jpg,neutral,incongruent,8,mismatch,,120,170,,2,137,block1_Pilot_2,8,h_n,h_n_weak,,,,,0,0,0,0,0,71,71,71,,,,,,,,,667.41605790006,None,668.5704609001987,668.8585524000227,668.8585524000227,668.8751513001043,668.8751513001043,668.9159455001354,668.9159455001354,None,9,0,0.7374294998589903,668.9159455001354,None,670.4159973000642,None,['7'],670.4159973000642,None,[0.5733766998164356],,,,,Emoconpilot030,2021_Oct_20_1148,BackwardMask,2020.2.8,119.67620382652794,
,f,012_o_f_n_a.jpg,neutral,8,8,m,008_y_m_s_a.jpg,sad,incongruent,7,mismatch,,140,160,,2,208,block1_Pilot_2,12,n_s,n_s_weak,,,,,0,0,0,0,0,72,72,72,,,,,,,,,673.4161032000557,None,675.171598300105,675.4676604000852,675.4676604000852,675.4835616000928,675.4835616000928,675.5242649000138,675.5242649000138,None,9,0,1.153017499949783,675.5242649000138,None,677.024419200141,None,None,677.024419200141,None,,,,,,Emoconpilot030,2021_Oct_20_1148,BackwardMask,2020.2.8,119.67620382652794,
,m,016_y_m_n_a.jpg,neutral,8,8,m,008_y_m_n_a.jpg,neutral,congruent,8,match,,140,170,,3,211,block1_Pilot_2,16,n_n,n_n_strong,,,,,0,0,0,0,0,73,73,73,,,,,,,,,680.024997800123,None,681.8087842001114,682.1011065000203,682.1011065000203,682.1253325999714,682.1253325999714,682.1662655000109,682.1662655000109,None,8,1,0.6231335999909788,682.1662655000109,None,683.6663269000128,None,['7'],683.6663269000128,None,[0.258939600083977],,,,,Emoconpilot030,2021_Oct_20_1148,BackwardMask,2020.2.8,119.67620382652794,
,m,016_y_m_h_a.jpg,happy,9,13,m,013_y_m_s_a.jpg,sad,incongruent,7,match,,120,160,,3,138,block1_Pilot_2,16,h_s,h_s_weak,,,,,0,0,0,0,0,74,74,74,,,,,,,,,686.666511000134,None,687.8251787000336,688.1173445000313,688.1173445000313,688.1421798001975,688.1421798001975,688.1830710000359,688.1830710000359,None,9,0,0.6944715001154691,688.1830710000359,None,689.6831315001473,None,['7'],689.6831315001473,None,[0.3942988000344485],,,,,Emoconpilot030,2021_Oct_20_1148,BackwardMask,2020.2.8,119.67620382652794,
,m,016_y_m_n_a.jpg,neutral,8,19,f,019_m_f_s_a.jpg,sad,incongruent,7,mismatch,,140,160,,2,185,block1_Pilot_2,16,n_s,n_s_strong,,,,,0,0,0,0,0,75,75,75,,,,,,,,,692.6839092001319,None,694.2604940000456,694.5514530001674,694.5514530001674,694.5673682000488,694.5673682000488,694.6080649001524,694.6080649001524,None,8,0,0.7253245001193136,694.6080649001524,None,696.1082383000758,None,['7'],696.1082383000758,None,[0.5131238999310881],,,,,Emoconpilot030,2021_Oct_20_1148,BackwardMask,2020.2.8,119.67620382652794,
,m,027_o_m_s_a.jpg,sad,7,8,m,008_y_m_s_a.jpg,sad,congruent,7,match,,130,160,,1,238,block1_Pilot_2,27,s_s,s_s_strong,,,,,0,0,0,0,0,76,76,76,,,,,,,,,699.1087448000908,None,701.0993759999983,701.3927851000335,701.3927851000335,701.4008210999891,701.4008210999891,701.4415770000778,701.4415770000778,None,None,0,,701.4415770000778,None,702.9417131000664,None,"['8', '9']",702.9417131000664,None,"[0.13577239983715117, 1.0875688998494297]",,,,,Emoconpilot030,2021_Oct_20_1148,BackwardMask,2020.2.8,119.67620382652794,
,f,019_m_f_n_a.jpg,neutral,8,27,m,027_o_m_n_a.jpg,neutral,congruent,8,mismatch,,140,170,,3,186,block1_Pilot_2,19,n_n,n_n_strong,,,,,0,0,0,0,0,77,77,77,,,,,,,,,705.9424868000206,None,707.5164942999836,707.8097184000071,707.8097184000071,707.8341703000478,707.8341703000478,707.8751763000619,707.8751763000619,None,8,1,0.6182593000121415,707.8751763000619,None,709.3751595001668,None,['7'],709.3751595001668,None,[0.2622727998532355],,,,,Emoconpilot030,2021_Oct_20_1148,BackwardMask,2020.2.8,119.67620382652794,
,m,004_o_m_s_a.jpg,sad,7,12,f,012_o_f_s_a.jpg,sad,congruent,7,mismatch,,130,160,,1,238,block1_Pilot_2,4,s_s,s_s_strong,,,,,0,0,0,0,0,78,78,78,,,,,,,,,712.375318299979,None,714.365912000183,714.6593794000801,714.6593794000801,714.6678188000806,714.6678188000806,714.7087544000242,714.7087544000242,None,None,0,,714.7087544000242,None,716.2087427000515,None,['9'],716.2087427000515,None,[0.3566970999818295],,,,,Emoconpilot030,2021_Oct_20_1148,BackwardMask,2020.2.8,119.67620382652794,
,f,019_m_f_n_a.jpg,neutral,8,13,m,013_y_m_s_a.jpg,sad,incongruent,7,mismatch,,140,160,,3,207,block1_Pilot_2,19,n_s,n_s_strong,,,,,0,0,0,0,0,79,79,79,,,,,,,,,719.2096008001827,None,720.9565593001898,721.2517659000587,721.2517659000587,721.276260400191,721.276260400191,721.3171361000277,721.3171361000277,None,8,0,0.6082114998716861,721.3171361000277,None,722.8170390001033,None,['7'],722.8170390001033,None,[0.2523586000315845],,,,,Emoconpilot030,2021_Oct_20_1148,BackwardMask,2020.2.8,119.67620382652794,
,m,027_o_m_h_a.jpg,happy,9,33,m,033_o_m_h_a.jpg,happy,congruent,9,match,,120,150,,1,238,block1_Pilot_2,27,h_h,h_h_strong,,,,,0,0,0,0,0,80,80,80,,,,,,,,,725.8181477000471,None,727.819839600008,728.110396400094,728.110396400094,728.1178150000051,728.1178150000051,728.1588277001865,728.1588277001865,None,8,0,1.2386488998308778,728.1588277001865,None,729.6589385000989,None,['7'],729.6589385000989,None,[0.41041280003264546],,,,,Emoconpilot030,2021_Oct_20_1148,BackwardMask,2020.2.8,119.67620382652794,
,m,027_o_m_h_a.jpg,happy,9,21,f,021_o_f_s_a.jpg,sad,incongruent,7,mismatch,,120,160,,1,238,block1_Pilot_2,27,h_s,h_s_weak,,,,,0,0,0,0,0,81,81,81,,,,,,,,,732.6600001000334,None,734.6616937001236,734.9522845000029,734.9522845000029,734.9599002001341,734.9599002001341,735.0006552999839,735.0006552999839,None,None,0,,735.0006552999839,None,736.5008448001463,None,['9'],736.5008448001463,None,[0.7606482000555843],,,,,Emoconpilot030,2021_Oct_20_1148,BackwardMask,2020.2.8,119.67620382652794,
,m,033_o_m_s_a.jpg,sad,7,40,f,040_y_f_n_a.jpg,neutral,incongruent,8,mismatch,,130,170,,3,146,block1_Pilot_2,33,s_n,s_n_weak,,,,,0,0,0,0,0,82,82,82,,,,,,,,,739.5023237999994,None,740.725419000024,741.0186534000095,741.0186534000095,741.0432436000556,741.0432436000556,741.0841099000536,741.0841099000536,None,8,1,0.825213799951598,741.0841099000536,None,742.5841030001175,None,['7'],742.5841030001175,None,[0.5493080001324415],,,,,Emoconpilot030,2021_Oct_20_1148,BackwardMask,2020.2.8,119.67620382652794,
,m,008_y_m_h_a.jpg,happy,9,4,m,004_o_m_s_a.jpg,sad,incongruent,7,match,,120,160,,2,225,block1_Pilot_2,8,h_s,h_s_weak,,,,,0,0,0,0,0,83,83,83,,,,,,,,,745.5849237001967,None,747.4666556001175,747.7602166000288,747.7602166000288,747.776704300195,747.776704300195,747.8176979001146,747.8176979001146,None,9,0,0.8835744000971317,747.8176979001146,None,749.3177028000355,None,['7'],749.3177028000355,None,[0.5516989999450743],,,,,Emoconpilot030,2021_Oct_20_1148,BackwardMask,2020.2.8,119.67620382652794,
,f,012_o_f_n_a.jpg,neutral,8,4,m,004_o_m_s_a.jpg,sad,incongruent,7,mismatch,,140,160,,3,150,block1_Pilot_2,12,n_s,n_s_strong,,,,,0,0,0,0,0,84,84,84,,,,,,,,,752.319299899973,None,753.6013184001204,753.8943400999997,753.8943400999997,753.9185777001549,753.9185777001549,753.9594378001057,753.9594378001057,None,8,0,0.6380847000982612,753.9594378001057,None,755.4593190001324,None,['7'],755.4593190001324,None,[0.4100864001084119],,,,,Emoconpilot030,2021_Oct_20_1148,BackwardMask,2020.2.8,119.67620382652794,
,f,021_o_f_s_a.jpg,sad,7,40,f,040_y_f_n_a.jpg,neutral,incongruent,8,match,,130,170,,2,156,block1_Pilot_2,21,s_n,s_n_strong,,,,,0,0,0,0,0,85,85,85,,,,,,,,,758.4595266999677,None,759.7655054000206,760.0604711000342,760.0604711000342,760.0769271000754,760.0769271000754,760.117725300137,760.117725300137,None,9,0,0.7035590999294072,760.117725300137,None,761.6180391001981,None,['7'],761.6180391001981,None,[0.2593832998536527],,,,,Emoconpilot030,2021_Oct_20_1148,BackwardMask,2020.2.8,119.67620382652794,
,m,004_o_m_n_a.jpg,neutral,8,13,m,013_y_m_n_a.jpg,neutral,congruent,8,match,,140,170,,2,225,block1_Pilot_2,4,n_n,n_n_strong,,,,,0,0,0,0,0,86,86,86,,,,,,,,,764.6180630000308,None,766.5214075001422,766.8112103000749,766.8112103000749,766.8271204000339,766.8271204000339,766.8679573000409,766.8679573000409,None,9,0,1.0575168000068516,766.8679573000409,None,768.3681287001818,None,['7'],768.3681287001818,None,[0.5653540999628603],,,,,Emoconpilot030,2021_Oct_20_1148,BackwardMask,2020.2.8,119.67620382652794,
,m,016_y_m_n_a.jpg,neutral,8,16,m,016_y_m_h_a.jpg,happy,incongruent,9,match,,140,150,,18,193,block1_Pilot_2,16,n_h,n_h_strong,,,,,0,0,0,0,0,87,87,87,,,,,,,,,771.369062700076,None,772.9962767001707,773.2861093999818,773.2861093999818,773.4355826000683,773.4355826000683,773.4763960000128,773.4763960000128,None,8,0,0.4730501000303775,773.4763960000128,None,774.9765122001991,None,['7'],774.9765122001991,None,[0.31683210004121065],,,,,Emoconpilot030,2021_Oct_20_1148,BackwardMask,2020.2.8,119.67620382652794,
,m,033_o_m_h_a.jpg,happy,9,4,m,004_o_m_h_a.jpg,happy,congruent,9,match,,120,150,,2,195,block1_Pilot_2,33,h_h,h_h_strong,,,,,0,0,0,0,0,88,88,88,,,,,,,,,777.9774925999809,None,779.6095155000221,779.9028808001895,779.9028808001895,779.919062100118,779.919062100118,779.9599142000079,779.9599142000079,None,9,1,0.7095504000317305,779.9599142000079,None,781.4598181999754,None,['7'],781.4598181999754,None,[0.2656729998998344],,,,,Emoconpilot030,2021_Oct_20_1148,BackwardMask,2020.2.8,119.67620382652794,
,m,027_o_m_h_a.jpg,happy,9,16,m,016_y_m_h_a.jpg,happy,congruent,9,match,,120,150,,3,209,block1_Pilot_2,27,h_h,h_h_weak,,,,,0,0,0,0,0,89,89,89,,,,,,,,,784.460754300002,None,786.2237857000437,786.5199230001308,786.5199230001308,786.5442485001404,786.5442485001404,786.5845928001218,786.5845928001218,None,9,1,0.6048281001858413,786.5845928001218,None,788.085182200186,None,['7'],788.085182200186,None,[0.2642933998722583],,,,,Emoconpilot030,2021_Oct_20_1148,BackwardMask,2020.2.8,119.67620382652794,
,m,033_o_m_s_a.jpg,sad,7,16,m,016_y_m_s_a.jpg,sad,congruent,7,match,,130,160,,3,128,block1_Pilot_2,33,s_s,s_s_strong,,,,,0,0,0,0,0,90,90,90,,,,,,,,,791.086104700109,None,792.1601788999978,792.4528960001189,792.4528960001189,792.477522399975,792.477522399975,792.5183974001557,792.5183974001557,None,8,0,1.4390157000161707,792.5183974001557,None,794.0186533001252,None,['7'],794.0186533001252,None,[0.45069439988583326],,,,,Emoconpilot030,2021_Oct_20_1148,BackwardMask,2020.2.8,119.67620382652794,
,f,021_o_f_s_a.jpg,sad,7,30,f,030_o_f_s_a.jpg,sad,congruent,7,match,,130,160,,1,238,block1_Pilot_2,21,s_s,s_s_strong,,,,,0,0,0,0,0,91,91,91,,,,,,,,,797.0197237001266,None,799.0072099000681,799.303045200184,799.303045200184,799.3111337001901,799.3111337001901,799.3520500999875,799.3520500999875,None,None,0,,799.3520500999875,None,800.8520575000439,None,['9'],800.8520575000439,None,[0.3053670998197049],,,,,Emoconpilot030,2021_Oct_20_1148,BackwardMask,2020.2.8,119.67620382652794,
,m,033_o_m_n_a.jpg,neutral,8,28,f,028_y_f_s_a.jpg,sad,incongruent,7,mismatch,,140,160,,18,166,block1_Pilot_2,33,n_s,n_s_strong,,,,,0,0,0,0,0,92,92,92,,,,,,,,,803.8529199999757,None,805.256995400181,805.5536958000157,805.5536958000157,805.7029550999869,805.7029550999869,805.7438395000063,805.7438395000063,None,8,0,0.4615209000185132,805.7438395000063,None,807.243985200068,None,['7'],807.243985200068,None,[0.36122710001654923],,,,,Emoconpilot030,2021_Oct_20_1148,BackwardMask,2020.2.8,119.67620382652794,
,f,019_m_f_n_a.jpg,neutral,8,30,f,030_o_f_n_a.jpg,neutral,congruent,8,match,,140,170,,18,228,block1_Pilot_2,19,n_n,n_n_weak,,,,,0,0,0,0,0,93,93,93,,,,,,,,,810.244063799968,None,812.1633649000432,812.453664300032,812.453664300032,812.6031158000696,812.6031158000696,812.6438824001234,812.6438824001234,None,8,1,0.47361039998941123,812.6438824001234,None,814.1438937999774,None,['7'],814.1438937999774,None,[0.38153350003995],,,,,Emoconpilot030,2021_Oct_20_1148,BackwardMask,2020.2.8,119.67620382652794,
,m,008_y_m_s_a.jpg,sad,7,12,f,012_o_f_h_a.jpg,happy,incongruent,9,mismatch,,130,150,,3,130,block1_Pilot_2,8,s_h,s_h_weak,,,,,0,0,0,0,0,94,94,94,,,,,,,,,817.1453400000464,None,818.2553799001034,818.5453115999699,818.5453115999699,818.5698315000627,818.5698315000627,818.6107197001111,818.6107197001111,None,7,0,0.8025764999911189,818.6107197001111,None,820.1107058001217,None,['7'],820.1107058001217,None,[0.5108483999501914],,,,,Emoconpilot030,2021_Oct_20_1148,BackwardMask,2020.2.8,119.67620382652794,
,m,016_y_m_n_a.jpg,neutral,8,28,f,028_y_f_n_a.jpg,neutral,congruent,8,mismatch,,140,170,,18,189,block1_Pilot_2,16,n_n,n_n_strong,,,,,0,0,0,0,0,95,95,95,,,,,,,,,823.1109695001505,None,824.7048072000034,824.9955848001409,824.9955848001409,825.1449399001431,825.1449399001431,825.1858417000622,825.1858417000622,None,8,1,0.5714800998102874,825.1858417000622,None,826.685819500126,None,['7'],826.685819500126,None,[0.2633899000938982],,,,,Emoconpilot030,2021_Oct_20_1148,BackwardMask,2020.2.8,119.67620382652794,
,f,012_o_f_s_a.jpg,sad,7,16,m,016_y_m_h_a.jpg,happy,incongruent,9,mismatch,,130,150,,3,238,block1_Pilot_2,12,s_h,s_h_strong,,,,,0,0,0,0,0,96,96,96,,,,,,,,,829.6867460000794,None,831.6784300000872,831.9702741000801,831.9702741000801,831.995366099989,831.995366099989,832.035932400031,832.035932400031,None,8,0,1.169446500018239,832.035932400031,None,833.5360451000743,None,['7'],833.5360451000743,None,[0.5093919998034835],,,,,Emoconpilot030,2021_Oct_20_1148,BackwardMask,2020.2.8,119.67620382652794,
,m,013_y_m_h_a.jpg,happy,9,27,m,027_o_m_h_a.jpg,happy,congruent,9,match,,120,150,,18,238,block1_Pilot_2,13,h_h,h_h_strong,,,,,0,0,0,0,0,97,97,97,,,,,,,,,836.5361391999759,None,838.5407371001784,838.8373885001056,838.8373885001056,838.9869097000919,838.9869097000919,839.0277888001874,839.0277888001874,None,9,1,0.6337838999461383,839.0277888001874,None,840.5285679001827,None,['7'],840.5285679001827,None,[0.38892659987322986],,,,,Emoconpilot030,2021_Oct_20_1148,BackwardMask,2020.2.8,119.67620382652794,
,m,016_y_m_s_a.jpg,sad,7,33,m,033_o_m_n_a.jpg,neutral,incongruent,8,match,,130,170,,1,238,block1_Pilot_2,16,s_n,s_n_weak,,,,,0,0,0,0,0,98,98,98,,,,,,,,,843.5287590001244,None,845.5189222001936,845.8123431000859,845.8123431000859,845.8205181001686,845.8205181001686,845.8612085999921,845.8612085999921,None,9,0,1.0642759001348168,845.8612085999921,None,847.3615342001431,None,['7'],847.3615342001431,None,[0.42793089989572763],,,,,Emoconpilot030,2021_Oct_20_1148,BackwardMask,2020.2.8,119.67620382652794,
,m,008_y_m_n_a.jpg,neutral,8,30,f,030_o_f_n_a.jpg,neutral,congruent,8,mismatch,,140,170,,1,238,block1_Pilot_2,8,n_n,n_n_weak,,,,,0,0,0,0,0,99,99,99,,,,,,,,,850.3615282999817,None,852.379089300055,852.6711602001451,852.6711602001451,852.6787853999995,852.6787853999995,852.7196673001163,852.7196673001163,None,9,0,0.8217023001052439,852.7196673001163,None,854.2197952000424,None,['9'],854.2197952000424,None,[0.7937388001009822],,,,,Emoconpilot030,2021_Oct_20_1148,BackwardMask,2020.2.8,119.67620382652794,
,m,008_y_m_s_a.jpg,sad,7,30,f,030_o_f_s_a.jpg,sad,congruent,7,mismatch,,130,160,,2,133,block1_Pilot_2,8,s_s,s_s_weak,,,,,0,0,0,0,0,100,100,100,,,,,,,,,857.2207035000902,None,858.3473735000007,858.6377129000612,858.6377129000612,858.6539259001147,858.6539259001147,858.6947300001048,858.6947300001048,None,7,1,0.990692300023511,858.6947300001048,None,860.1948506999761,None,['7'],860.1948506999761,None,[0.28261140012182295],,,,,Emoconpilot030,2021_Oct_20_1148,BackwardMask,2020.2.8,119.67620382652794,
,f,040_y_f_n_a.jpg,neutral,8,30,f,030_o_f_s_a.jpg,sad,incongruent,7,match,,140,160,,3,197,block1_Pilot_2,40,n_s,n_s_strong,,,,,0,0,0,0,0,101,101,101,,,,,,,,,863.1956750000827,None,864.855641500093,865.1464609000832,865.1464609000832,865.1707912001293,865.1707912001293,865.211708100047,865.211708100047,None,None,0,,865.211708100047,None,866.7118787001818,None,"['7', '7']",866.7118787001818,None,"[0.06946559995412827, 0.6213187999092042]",,,,,Emoconpilot030,2021_Oct_20_1148,BackwardMask,2020.2.8,119.67620382652794,
,m,004_o_m_h_a.jpg,happy,9,30,f,030_o_f_s_a.jpg,sad,incongruent,7,mismatch,,120,160,,3,121,block1_Pilot_2,4,h_s,h_s_strong,,,,,0,0,0,0,0,102,102,102,,,,,,,,,869.7126802001148,None,870.7446341000032,871.0381426000968,871.0381426000968,871.0628730000462,871.0628730000462,871.1033485000953,871.1033485000953,None,9,0,0.6140355002135038,871.1033485000953,None,872.6037465999834,None,['7'],872.6037465999834,None,[0.4175537000410259],,,,,Emoconpilot030,2021_Oct_20_1148,BackwardMask,2020.2.8,119.67620382652794,
,f,040_y_f_h_a.jpg,happy,9,8,m,008_y_m_h_a.jpg,happy,congruent,9,mismatch,,120,150,,18,211,block1_Pilot_2,40,h_h,h_h_weak,,,,,0,0,0,0,0,103,103,103,,,,,,,,,875.604589600116,None,877.3742829000112,877.6627834001556,877.6627834001556,877.8127032001503,877.8127032001503,877.853654100094,877.853654100094,None,9,1,0.511764100054279,877.853654100094,None,879.3545750000048,None,['7'],879.3545750000048,None,[0.4587545001413673],,,,,Emoconpilot030,2021_Oct_20_1148,BackwardMask,2020.2.8,119.67620382652794,
,f,019_m_f_s_a.jpg,sad,7,16,m,016_y_m_n_a.jpg,neutral,incongruent,8,mismatch,,130,170,,2,198,block1_Pilot_2,19,s_n,s_n_strong,,,,,0,0,0,0,0,104,104,104,,,,,,,,,882.3543993001804,None,884.064379000105,884.3549218000844,884.3549218000844,884.3709111001808,884.3709111001808,884.4117205000948,884.4117205000948,None,9,0,0.6901477000210434,884.4117205000948,None,885.9100600001402,None,['7'],885.9100600001402,None,[0.2710768000688404],,,,,Emoconpilot030,2021_Oct_20_1148,BackwardMask,2020.2.8,119.67620382652794,
,f,040_y_f_s_a.jpg,sad,7,12,f,012_o_f_s_a.jpg,sad,congruent,7,match,,130,160,,18,240,block1_Pilot_2,40,s_s,s_s_strong,,,,,0,0,0,0,0,105,105,105,,,,,,,,,888.9107362001669,None,890.9183761000168,891.2120870000217,891.2120870000217,891.3621565001085,891.3621565001085,891.4029771999922,891.4029771999922,None,7,1,0.6262143000494689,891.4029771999922,None,892.9035422001034,None,['7'],892.9035422001034,None,[0.37377170007675886],,,,,Emoconpilot030,2021_Oct_20_1148,BackwardMask,2020.2.8,119.67620382652794,
,f,040_y_f_n_a.jpg,neutral,8,33,m,033_o_m_s_a.jpg,sad,incongruent,7,mismatch,,140,160,,3,188,block1_Pilot_2,40,n_s,n_s_weak,,,,,0,0,0,0,0,106,106,106,,,,,,,,,895.9037212000694,None,897.5167122001294,897.8050810999703,897.8050810999703,897.8294061000925,897.8294061000925,897.8702562002,897.8702562002,None,8,0,1.1348991999402642,897.8702562002,None,899.3703068001196,None,['7'],899.3703068001196,None,[0.5309457001276314],,,,,Emoconpilot030,2021_Oct_20_1148,BackwardMask,2020.2.8,119.67620382652794,
,f,028_y_f_h_a.jpg,happy,9,21,f,021_o_f_s_a.jpg,sad,incongruent,7,match,,120,160,,3,193,block1_Pilot_2,28,h_s,h_s_strong,,,,,0,0,0,0,0,107,107,107,,,,,,,,,902.3703995000105,None,903.9921614001505,904.2883165001404,904.2883165001404,904.3130320000928,904.3130320000928,904.353810200002,904.353810200002,None,9,0,0.731402900069952,904.353810200002,None,905.853720900137,None,['7'],905.853720900137,None,[0.2634709000121802],,,,,Emoconpilot030,2021_Oct_20_1148,BackwardMask,2020.2.8,119.67620382652794,
,f,040_y_f_s_a.jpg,sad,7,13,m,013_y_m_n_a.jpg,neutral,incongruent,8,mismatch,,130,170,,2,198,block1_Pilot_2,40,s_n,s_n_strong,,,,,0,0,0,0,0,108,108,108,,,,,,,,,908.854016300058,None,910.5151907000691,910.8046796000563,910.8046796000563,910.8213585000485,910.8213585000485,910.8621438001283,910.8621438001283,None,8,1,0.8550601000897586,910.8621438001283,None,912.3622692001518,None,['7'],912.3622692001518,None,[0.31497250008396804],,,,,Emoconpilot030,2021_Oct_20_1148,BackwardMask,2020.2.8,119.67620382652794,
,f,030_o_f_n_a.jpg,neutral,8,33,m,033_o_m_s_a.jpg,sad,incongruent,7,mismatch,,140,160,,1,238,block1_Pilot_2,30,n_s,n_s_strong,,,,,0,0,0,0,0,109,109,109,,,,,,,,,915.3624917999841,None,917.3687891000882,917.6638834001496,917.6638834001496,917.6715462000575,917.6715462000575,917.7124454001896,917.7124454001896,None,None,0,,917.7124454001896,None,919.2123903001193,None,['9'],919.2123903001193,None,[0.6088497000746429],,,,,Emoconpilot030,2021_Oct_20_1148,BackwardMask,2020.2.8,119.67620382652794,
,f,021_o_f_h_a.jpg,happy,9,40,f,040_y_f_n_a.jpg,neutral,incongruent,8,match,,120,170,,2,125,block1_Pilot_2,21,h_n,h_n_weak,,,,,0,0,0,0,0,110,110,110,,,,,,,,,922.2125578001142,None,923.2743171001785,923.5639345000964,923.5639345000964,923.5800187001005,923.5800187001005,923.6207230000291,923.6207230000291,None,None,0,,923.6207230000291,None,925.1208222999703,None,['7'],925.1208222999703,None,[0.2203430999070406],,,,,Emoconpilot030,2021_Oct_20_1148,BackwardMask,2020.2.8,119.67620382652794,
,f,021_o_f_h_a.jpg,happy,9,16,m,016_y_m_s_a.jpg,sad,incongruent,7,mismatch,,120,160,,1,238,block1_Pilot_2,21,h_s,h_s_strong,,,,,0,0,0,0,0,111,111,111,,,,,,,,,928.1210368000902,None,930.1248524000403,930.4143449000549,930.4143449000549,930.4219571000431,930.4219571000431,930.462537100073,930.462537100073,None,8,0,1.2546097999438643,930.462537100073,None,931.9627539999783,None,['9'],931.9627539999783,None,[0.874492600094527],,,,,Emoconpilot030,2021_Oct_20_1148,BackwardMask,2020.2.8,119.67620382652794,
,f,012_o_f_h_a.jpg,happy,9,8,m,008_y_m_s_a.jpg,sad,incongruent,7,mismatch,,120,160,,1,238,block1_Pilot_2,12,h_s,h_s_weak,,,,,0,0,0,0,0,112,112,112,,,,,,,,,934.9629957000725,None,936.954517400125,937.2472894000821,937.2472894000821,937.2553070001304,937.2553070001304,937.2961290001404,937.2961290001404,None,None,0,,937.2961290001404,None,938.7964924999978,None,['9'],938.7964924999978,None,[0.43292900011874735],,,,,Emoconpilot030,2021_Oct_20_1148,BackwardMask,2020.2.8,119.67620382652794,
,m,013_y_m_h_a.jpg,happy,9,16,m,016_y_m_s_a.jpg,sad,incongruent,7,match,,120,160,,3,202,block1_Pilot_2,13,h_s,h_s_weak,,,,,0,0,0,0,0,113,113,113,,,,,,,,,941.7965351000894,None,943.500737400027,943.7896058000624,943.7896058000624,943.8141009001993,943.8141009001993,943.855034600012,943.855034600012,None,9,0,0.5184729001484811,943.855034600012,None,945.3549250001088,None,['7'],945.3549250001088,None,[0.23451760015450418],,,,,Emoconpilot030,2021_Oct_20_1148,BackwardMask,2020.2.8,119.67620382652794,
,f,019_m_f_s_a.jpg,sad,7,4,m,004_o_m_n_a.jpg,neutral,incongruent,8,mismatch,,130,170,,1,238,block1_Pilot_2,19,s_n,s_n_strong,,,,,0,0,0,0,0,114,114,114,,,,,,,,,948.3559254000429,None,950.356643800158,950.6480829999782,950.6480829999782,950.6557829000521,950.6557829000521,950.6965592000633,950.6965592000633,None,None,0,,950.6965592000633,None,952.1969660001341,None,['9'],952.1969660001341,None,[0.2643996998667717],,,,,Emoconpilot030,2021_Oct_20_1148,BackwardMask,2020.2.8,119.67620382652794,
,f,028_y_f_n_a.jpg,neutral,8,27,m,027_o_m_s_a.jpg,sad,incongruent,7,mismatch,,140,160,,18,238,block1_Pilot_2,28,n_s,n_s_strong,,,,,0,0,0,0,0,115,115,115,,,,,,,,,955.1977825001813,None,957.1995730001945,957.4898608000949,957.4898608000949,957.6394067001529,957.6394067001529,957.6802725000307,957.6802725000307,None,8,0,0.5731762000359595,957.6802725000307,None,959.180241300026,None,['7'],959.180241300026,None,[0.20903409994207323],,,,,Emoconpilot030,2021_Oct_20_1148,BackwardMask,2020.2.8,119.67620382652794,
,m,013_y_m_s_a.jpg,sad,7,12,f,012_o_f_h_a.jpg,happy,incongruent,9,mismatch,,130,150,,1,238,block1_Pilot_2,13,s_h,s_h_strong,,,,,0,0,0,0,0,116,116,116,,,,,,,,,962.1813807000872,None,964.1769362001214,964.4729083001148,964.4729083001148,964.4812764001545,964.4812764001545,964.522077600006,964.522077600006,None,9,1,0.8913636000361294,964.522077600006,None,966.0221001000609,None,['7'],966.0221001000609,None,[0.5192426000721753],,,,,Emoconpilot030,2021_Oct_20_1148,BackwardMask,2020.2.8,119.67620382652794,
,m,016_y_m_s_a.jpg,sad,7,19,f,019_m_f_h_a.jpg,happy,incongruent,9,mismatch,,130,150,,1,238,block1_Pilot_2,16,s_h,s_h_strong,,,,,0,0,0,0,0,117,117,117,,,,,,,,,969.0222815000452,None,971.0125035000965,971.306365699973,971.306365699973,971.3144227000885,971.3144227000885,971.355545300059,971.355545300059,None,9,1,0.9538497999310493,971.355545300059,None,972.8555974999908,None,['8'],972.8555974999908,None,[0.8698674999177456],,,,,Emoconpilot030,2021_Oct_20_1148,BackwardMask,2020.2.8,119.67620382652794,
,m,013_y_m_s_a.jpg,sad,7,21,f,021_o_f_h_a.jpg,happy,incongruent,9,mismatch,,130,150,,18,238,block1_Pilot_2,13,s_h,s_h_strong,,,,,0,0,0,0,0,118,118,118,,,,,,,,,975.8560438000131,None,977.8477047001943,978.1399286000524,978.1399286000524,978.2897135000676,978.2897135000676,978.3306858001743,978.3306858001743,None,7,0,0.7067353001330048,978.3306858001743,None,979.8306090000551,None,['7'],979.8306090000551,None,[0.28673549997620285],,,,,Emoconpilot030,2021_Oct_20_1148,BackwardMask,2020.2.8,119.67620382652794,
,f,012_o_f_s_a.jpg,sad,7,13,m,013_y_m_h_a.jpg,happy,incongruent,9,mismatch,,130,150,,3,235,block1_Pilot_2,12,s_h,s_h_weak,,,,,0,0,0,0,0,119,119,119,,,,,,,,,982.8318094001152,None,984.7925888001919,985.0898728000466,985.0898728000466,985.115204700036,985.115204700036,985.1557856001891,985.1557856001891,None,7,0,1.3136022000107914,985.1557856001891,None,986.6562853001524,None,['7'],986.6562853001524,None,[0.40509369992651045],,,,,Emoconpilot030,2021_Oct_20_1148,BackwardMask,2020.2.8,119.67620382652794,
,f,019_m_f_s_a.jpg,sad,7,30,f,030_o_f_h_a.jpg,happy,incongruent,9,match,,130,150,,3,235,block2_Pilot_2,19,s_h,s_h_strong,,,,,0,1,1,1,0,0,0,0,,,,,,,,,1009.6969582000747,None,1011.6687361001968,1011.9578182001133,1011.9578182001133,1011.9821451001335,1011.9821451001335,1012.0230747000314,1012.0230747000314,None,7,0,0.7102270000614226,1012.0230747000314,None,1013.5236314001959,None,['7'],1013.5236314001959,None,[0.6818070998415351],,,989.6561045001727,None,Emoconpilot030,2021_Oct_20_1148,BackwardMask,2020.2.8,119.67620382652794,
,m,008_y_m_n_a.jpg,neutral,8,40,f,040_y_f_h_a.jpg,happy,incongruent,9,mismatch,,140,150,,2,121,block2_Pilot_2,8,n_h,n_h_strong,,,,,0,1,1,1,0,1,1,1,,,,,,,,,1016.5239097999875,None,1017.5502108000219,1017.8410990000702,1017.8410990000702,1017.857236500131,1017.857236500131,1017.8981076001655,1017.8981076001655,None,8,0,0.6113573999609798,1017.8981076001655,None,1019.3983103001956,None,['7'],1019.3983103001956,None,[0.3510344000533223],,,,,Emoconpilot030,2021_Oct_20_1148,BackwardMask,2020.2.8,119.67620382652794,
,f,012_o_f_h_a.jpg,happy,9,27,m,027_o_m_n_a.jpg,neutral,incongruent,8,mismatch,,120,170,,2,240,block2_Pilot_2,12,h_n,h_n_weak,,,,,0,1,1,1,0,2,2,2,,,,,,,,,1022.399551999988,None,1024.405795400031,1024.699308700161,1024.699308700161,1024.7159004001878,1024.7159004001878,1024.7566605000757,1024.7566605000757,None,9,0,0.6086021000519395,1024.7566605000757,None,1026.2565711999778,None,['7'],1026.2565711999778,None,[0.22872350015677512],,,,,Emoconpilot030,2021_Oct_20_1148,BackwardMask,2020.2.8,119.67620382652794,
,m,008_y_m_h_a.jpg,happy,9,40,f,040_y_f_h_a.jpg,happy,congruent,9,mismatch,,120,150,,18,195,block2_Pilot_2,8,h_h,h_h_strong,,,,,0,1,1,1,0,3,3,3,,,,,,,,,1029.256644600071,None,1030.8898021001369,1031.1827022000216,1031.1827022000216,1031.3325251999777,1031.3325251999777,1031.3735058000311,1031.3735058000311,None,9,1,0.4079538998194039,1031.3735058000311,None,1032.8739118999802,None,['7'],1032.8739118999802,None,[0.37151740002445877],,,,,Emoconpilot030,2021_Oct_20_1148,BackwardMask,2020.2.8,119.67620382652794,
,m,004_o_m_n_a.jpg,neutral,8,33,m,033_o_m_s_a.jpg,sad,incongruent,7,match,,140,160,,18,126,block2_Pilot_2,4,n_s,n_s_weak,,,,,0,1,1,1,0,4,4,4,,,,,,,,,1035.8744916999713,None,1036.9635373000056,1037.258270099992,1037.258270099992,1037.4078250001185,1037.4078250001185,1037.4483990001027,1037.4483990001027,None,8,0,0.436996600124985,1037.4483990001027,None,1038.9485208000988,None,['7'],1038.9485208000988,None,[0.26488010003231466],,,,,Emoconpilot030,2021_Oct_20_1148,BackwardMask,2020.2.8,119.67620382652794,
,f,028_y_f_s_a.jpg,sad,7,27,m,027_o_m_n_a.jpg,neutral,incongruent,8,mismatch,,130,170,,18,225,block2_Pilot_2,28,s_n,s_n_strong,,,,,0,1,1,1,0,5,5,5,,,,,,,,,1041.9496027000714,None,1043.8347624000162,1044.1246784001123,1044.1246784001123,1044.2745383000001,1044.2745383000001,1044.3153148000129,1044.3153148000129,None,7,0,0.4419682000298053,1044.3153148000129,None,1045.8158907000907,None,['7'],1045.8158907000907,None,[0.22145369998179376],,,,,Emoconpilot030,2021_Oct_20_1148,BackwardMask,2020.2.8,119.67620382652794,
,m,027_o_m_s_a.jpg,sad,7,30,f,030_o_f_h_a.jpg,happy,incongruent,9,mismatch,,130,150,,18,238,block2_Pilot_2,27,s_h,s_h_weak,,,,,0,1,1,1,0,6,6,6,,,,,,,,,1048.8158174001146,None,1050.8067942000926,1051.099906100193,1051.099906100193,1051.2496242001653,1051.2496242001653,1051.2904126001522,1051.2904126001522,None,7,0,0.4668463999405503,1051.2904126001522,None,1052.7903254001867,None,['7'],1052.7903254001867,None,[0.23906569997780025],,,,,Emoconpilot030,2021_Oct_20_1148,BackwardMask,2020.2.8,119.67620382652794,
,m,033_o_m_h_a.jpg,happy,9,40,f,040_y_f_s_a.jpg,sad,incongruent,7,mismatch,,120,160,,1,238,block2_Pilot_2,33,h_s,h_s_strong,,,,,0,1,1,1,0,7,7,7,,,,,,,,,1055.7912947000004,None,1057.7813197001815,1058.074897600105,1058.074897600105,1058.083067000145,1058.083067000145,1058.1238865000196,1058.1238865000196,None,None,0,,1058.1238865000196,None,1059.6241013000254,None,['9'],1059.6241013000254,None,[0.42125530005432665],,,,,Emoconpilot030,2021_Oct_20_1148,BackwardMask,2020.2.8,119.67620382652794,
,f,012_o_f_n_a.jpg,neutral,8,12,f,012_o_f_h_a.jpg,happy,incongruent,9,match,,140,150,,2,200,block2_Pilot_2,12,n_h,n_h_weak,,,,,0,1,1,1,0,8,8,8,,,,,,,,,1062.6240179999731,None,1064.3116795001552,1064.6005176000763,1064.6005176000763,1064.6166249001399,1064.6166249001399,1064.6580956999678,1064.6580956999678,None,8,0,0.7713216000702232,1064.6580956999678,None,1066.1573224000167,None,['7'],1066.1573224000167,None,[0.27992570004425943],,,,,Emoconpilot030,2021_Oct_20_1148,BackwardMask,2020.2.8,119.67620382652794,
,f,030_o_f_n_a.jpg,neutral,8,19,f,019_m_f_n_a.jpg,neutral,congruent,8,match,,140,170,,1,238,block2_Pilot_2,30,n_n,n_n_weak,,,,,0,1,1,1,0,9,9,9,,,,,,,,,1069.1584249001462,None,1071.1598926000297,1071.450668200152,1071.450668200152,1071.458258900093,1071.458258900093,1071.4994012999814,1071.4994012999814,None,None,0,,1071.4994012999814,None,1072.9992085001431,None,['9'],1072.9992085001431,None,[0.39826469984836876],,,,,Emoconpilot030,2021_Oct_20_1148,BackwardMask,2020.2.8,119.67620382652794,
,m,013_y_m_h_a.jpg,happy,9,8,m,008_y_m_n_a.jpg,neutral,incongruent,8,match,,120,170,,1,238,block2_Pilot_2,13,h_n,h_n_strong,,,,,0,1,1,1,0,10,10,10,,,,,,,,,1076.0001966999844,None,1078.0018051001243,1078.292494500056,1078.292494500056,1078.3001256000716,1078.3001256000716,1078.3408673000522,1078.3408673000522,None,9,0,1.0085239000618458,1078.3408673000522,None,1079.840996599989,None,['7'],1079.840996599989,None,[0.2365216000471264],,,,,Emoconpilot030,2021_Oct_20_1148,BackwardMask,2020.2.8,119.67620382652794,
,f,040_y_f_h_a.jpg,happy,9,19,f,019_m_f_s_a.jpg,sad,incongruent,7,match,,120,160,,3,133,block2_Pilot_2,40,h_s,h_s_strong,,,,,0,1,1,1,0,11,11,11,,,,,,,,,1082.8420698000118,None,1083.9575313001405,1084.250437100185,1084.250437100185,1084.2753175001126,1084.2753175001126,1084.3161081001163,1084.3161081001163,None,9,0,0.4972266999538988,1084.3161081001163,None,1085.8160918001086,None,['7'],1085.8160918001086,None,[0.2934079999104142],,,,,Emoconpilot030,2021_Oct_20_1148,BackwardMask,2020.2.8,119.67620382652794,
,f,040_y_f_h_a.jpg,happy,9,13,m,013_y_m_s_a.jpg,sad,incongruent,7,mismatch,,120,160,,3,226,block2_Pilot_2,40,h_s,h_s_strong,,,,,0,1,1,1,0,12,12,12,,,,,,,,,1088.816217900021,None,1090.7077852999792,1091.0006301000249,1091.0006301000249,1091.025495200185,1091.025495200185,1091.0660680001602,1091.0660680001602,None,9,0,0.4833671001251787,1091.0660680001602,None,1092.5669478999916,None,['7'],1092.5669478999916,None,[0.23839680012315512],,,,,Emoconpilot030,2021_Oct_20_1148,BackwardMask,2020.2.8,119.67620382652794,
,f,030_o_f_s_a.jpg,sad,7,27,m,027_o_m_h_a.jpg,happy,incongruent,9,mismatch,,130,150,,1,238,block2_Pilot_2,30,s_h,s_h_strong,,,,,0,1,1,1,0,13,13,13,,,,,,,,,1095.5666253000963,None,1097.6347958999686,1097.9260756000876,1097.9260756000876,1097.933717300184,1097.933717300184,1097.9746501001064,1097.9746501001064,None,9,1,0.7907203999347985,1097.9746501001064,None,1099.4753580000252,None,['7'],1099.4753580000252,None,[0.24210480018518865],,,,,Emoconpilot030,2021_Oct_20_1148,BackwardMask,2020.2.8,119.67620382652794,
,m,033_o_m_h_a.jpg,happy,9,30,f,030_o_f_s_a.jpg,sad,incongruent,7,mismatch,,120,160,,1,238,block2_Pilot_2,33,h_s,h_s_weak,,,,,0,1,1,1,0,14,14,14,,,,,,,,,1102.4750973000191,None,1104.4663178999908,1104.759128500009,1104.759128500009,1104.7672637000214,1104.7672637000214,1104.8082397000398,1104.8082397000398,None,None,0,,1104.8082397000398,None,1106.3083411001135,None,"['8', '9']",1106.3083411001135,None,"[0.040993900038301945, 0.7130138000939041]",,,,,Emoconpilot030,2021_Oct_20_1148,BackwardMask,2020.2.8,119.67620382652794,
,f,030_o_f_s_a.jpg,sad,7,28,f,028_y_f_n_a.jpg,neutral,incongruent,8,match,,130,170,,3,198,block2_Pilot_2,30,s_n,s_n_weak,,,,,0,1,1,1,0,15,15,15,,,,,,,,,1109.309309200151,None,1110.98940890003,1111.2847749001812,1111.2847749001812,1111.3091690000147,1111.3091690000147,1111.3499127000105,1111.3499127000105,None,7,0,0.6715833998750895,1111.3499127000105,None,1112.8506565000862,None,['7'],1112.8506565000862,None,[0.22653060010634363],,,,,Emoconpilot030,2021_Oct_20_1148,BackwardMask,2020.2.8,119.67620382652794,
,f,030_o_f_s_a.jpg,sad,7,33,m,033_o_m_h_a.jpg,happy,incongruent,9,mismatch,,130,150,,3,175,block2_Pilot_2,30,s_h,s_h_weak,,,,,0,1,1,1,0,16,16,16,,,,,,,,,1115.8513196001295,None,1117.3287152000703,1117.6182168000378,1117.6182168000378,1117.6424665001687,1117.6424665001687,1117.6834408000577,1117.6834408000577,None,7,0,0.67396209994331,1117.6834408000577,None,1119.1836495001335,None,['7'],1119.1836495001335,None,[0.2696189000271261],,,,,Emoconpilot030,2021_Oct_20_1148,BackwardMask,2020.2.8,119.67620382652794,
,f,021_o_f_h_a.jpg,happy,9,30,f,030_o_f_h_a.jpg,happy,congruent,9,match,,120,150,,2,194,block2_Pilot_2,21,h_h,h_h_strong,,,,,0,1,1,1,0,17,17,17,,,,,,,,,1122.1835568000097,None,1123.819235800067,1124.1100527001545,1124.1100527001545,1124.126114499988,1124.126114499988,1124.166922400007,1124.166922400007,None,9,1,0.5423230000305921,1124.166922400007,None,1125.6673465000931,None,['7'],1125.6673465000931,None,[0.2579425999429077],,,,,Emoconpilot030,2021_Oct_20_1148,BackwardMask,2020.2.8,119.67620382652794,
,f,019_m_f_n_a.jpg,neutral,8,16,m,016_y_m_s_a.jpg,sad,incongruent,7,mismatch,,140,160,,18,163,block2_Pilot_2,19,n_s,n_s_weak,,,,,0,1,1,1,0,18,18,18,,,,,,,,,1128.6669650000986,None,1130.0448059001938,1130.335067700129,1130.335067700129,1130.4846150001977,1130.4846150001977,1130.5253769999836,1130.5253769999836,None,8,0,1.248045900138095,1130.5253769999836,None,1132.0253163001034,None,['7'],1132.0253163001034,None,[0.8201532000675797],,,,,Emoconpilot030,2021_Oct_20_1148,BackwardMask,2020.2.8,119.67620382652794,
,m,033_o_m_n_a.jpg,neutral,8,13,m,013_y_m_n_a.jpg,neutral,congruent,8,match,,140,170,,2,217,block2_Pilot_2,33,n_n,n_n_strong,,,,,0,1,1,1,0,19,19,19,,,,,,,,,1135.0263294000179,None,1136.8619125999976,1137.152014600113,1137.152014600113,1137.1679979001638,1137.1679979001638,1137.208765800111,1137.208765800111,None,8,1,0.6847586000803858,1137.208765800111,None,1138.708983400138,None,['7'],1138.708983400138,None,[0.24038109998218715],,,,,Emoconpilot030,2021_Oct_20_1148,BackwardMask,2020.2.8,119.67620382652794,
,m,033_o_m_h_a.jpg,happy,9,13,m,013_y_m_n_a.jpg,neutral,incongruent,8,match,,120,170,,2,227,block2_Pilot_2,33,h_n,h_n_weak,,,,,0,1,1,1,0,20,20,20,,,,,,,,,1141.7097951001488,None,1143.609798999969,1143.90154550015,1143.90154550015,1143.9180253001396,1143.9180253001396,1143.9589873000514,1143.9589873000514,None,9,0,0.8541902001015842,1143.9589873000514,None,1145.4589564001653,None,['7'],1145.4589564001653,None,[0.48248869995586574],,,,,Emoconpilot030,2021_Oct_20_1148,BackwardMask,2020.2.8,119.67620382652794,
,f,012_o_f_s_a.jpg,sad,7,16,m,016_y_m_n_a.jpg,neutral,incongruent,8,mismatch,,130,170,,1,238,block2_Pilot_2,12,s_n,s_n_weak,,,,,0,1,1,1,0,21,21,21,,,,,,,,,1148.4591686001513,None,1150.446629700018,1150.7434308000375,1150.7434308000375,1150.7516289001796,1150.7516289001796,1150.7925105001777,1150.7925105001777,None,None,0,,1150.7925105001777,None,1152.2924618001562,None,['9'],1152.2924618001562,None,[0.22499980009160936],,,,,Emoconpilot030,2021_Oct_20_1148,BackwardMask,2020.2.8,119.67620382652794,
,f,028_y_f_n_a.jpg,neutral,8,21,f,021_o_f_h_a.jpg,happy,incongruent,9,match,,140,150,,18,202,block2_Pilot_2,28,n_h,n_h_strong,,,,,0,1,1,1,0,22,22,22,,,,,,,,,1155.2926715000067,None,1157.00845329999,1157.3022277001292,1157.3022277001292,1157.4517657000106,1157.4517657000106,1157.4926663001534,1157.4926663001534,None,8,0,0.4647550000809133,1157.4926663001534,None,1158.9925888001453,None,['7'],1158.9925888001453,None,[0.38076700014062226],,,,,Emoconpilot030,2021_Oct_20_1148,BackwardMask,2020.2.8,119.67620382652794,
,f,028_y_f_s_a.jpg,sad,7,30,f,030_o_f_n_a.jpg,neutral,incongruent,8,match,,130,170,,2,127,block2_Pilot_2,28,s_n,s_n_weak,,,,,0,1,1,1,0,23,23,23,,,,,,,,,1161.9928272999823,None,1163.062333200127,1163.352063700091,1163.352063700091,1163.3686000001617,1163.3686000001617,1163.4094255000819,1163.4094255000819,None,7,0,1.1080259999725968,1163.4094255000819,None,1164.909595400095,None,['7'],1164.909595400095,None,[0.23179430002346635],,,,,Emoconpilot030,2021_Oct_20_1148,BackwardMask,2020.2.8,119.67620382652794,
,m,004_o_m_n_a.jpg,neutral,8,40,f,040_y_f_n_a.jpg,neutral,congruent,8,mismatch,,140,170,,1,238,block2_Pilot_2,4,n_n,n_n_weak,,,,,0,1,1,1,0,24,24,24,,,,,,,,,1167.9100929000415,None,1169.9307511001825,1170.2192185001913,1170.2192185001913,1170.2271454001311,1170.2271454001311,1170.267759700073,1170.267759700073,None,None,0,,1170.267759700073,None,1171.7679444001988,None,['9'],1171.7679444001988,None,[0.2534957998432219],,,,,Emoconpilot030,2021_Oct_20_1148,BackwardMask,2020.2.8,119.67620382652794,
,m,016_y_m_n_a.jpg,neutral,8,16,m,016_y_m_h_a.jpg,happy,incongruent,9,match,,140,150,,18,239,block2_Pilot_2,16,n_h,n_h_weak,,,,,0,1,1,1,0,25,25,25,,,,,,,,,1174.7687390001956,None,1176.778804600006,1177.0692841999698,1177.0692841999698,1177.218787100166,1177.218787100166,1177.2597761000507,1177.2597761000507,None,8,0,0.5213621999137104,1177.2597761000507,None,1178.759720500093,None,['7'],1178.759720500093,None,[0.23743989993818104],,,,,Emoconpilot030,2021_Oct_20_1148,BackwardMask,2020.2.8,119.67620382652794,
,f,012_o_f_n_a.jpg,neutral,8,33,m,033_o_m_n_a.jpg,neutral,congruent,8,mismatch,,140,170,,3,134,block2_Pilot_2,12,n_n,n_n_weak,,,,,0,1,1,1,0,26,26,26,,,,,,,,,1181.7605958001222,None,1182.895615100162,1183.1861324000638,1183.1861324000638,1183.210795900086,1183.210795900086,1183.2514747001696,1183.2514747001696,None,8,1,0.7697220998816192,1183.2514747001696,None,1184.7516284000594,None,['7'],1184.7516284000594,None,[0.3736922999378294],,,,,Emoconpilot030,2021_Oct_20_1148,BackwardMask,2020.2.8,119.67620382652794,
,m,013_y_m_h_a.jpg,happy,9,27,m,027_o_m_s_a.jpg,sad,incongruent,7,match,,120,160,,2,194,block2_Pilot_2,13,h_s,h_s_strong,,,,,0,1,1,1,0,27,27,27,,,,,,,,,1187.752136599971,None,1189.3868586001918,1189.6779720000923,1189.6779720000923,1189.6940858999733,1189.6940858999733,1189.734944100026,1189.734944100026,None,9,0,0.5502828999888152,1189.734944100026,None,1191.235048700124,None,['7'],1191.235048700124,None,[0.23439030000008643],,,,,Emoconpilot030,2021_Oct_20_1148,BackwardMask,2020.2.8,119.67620382652794,
,m,013_y_m_n_a.jpg,neutral,8,28,f,028_y_f_n_a.jpg,neutral,congruent,8,mismatch,,140,170,,1,238,block2_Pilot_2,13,n_n,n_n_weak,,,,,0,1,1,1,0,28,28,28,,,,,,,,,1194.2358360001817,None,1196.2376533001661,1196.5279855001718,1196.5279855001718,1196.5360809999984,1196.5360809999984,1196.5766354000662,1196.5766354000662,None,None,0,,1196.5766354000662,None,1198.0767849001568,None,['9'],1198.0767849001568,None,[0.74467259994708],,,,,Emoconpilot030,2021_Oct_20_1148,BackwardMask,2020.2.8,119.67620382652794,
,f,030_o_f_s_a.jpg,sad,7,33,m,033_o_m_h_a.jpg,happy,incongruent,9,mismatch,,130,150,,3,168,block2_Pilot_2,30,s_h,s_h_weak,,,,,0,1,1,1,0,29,29,29,,,,,,,,,1201.0775276001077,None,1202.4966308001895,1202.7868161001243,1202.7868161001243,1202.8111364999786,1202.8111364999786,1202.851811800152,1202.851811800152,None,7,0,0.641556000104174,1202.851811800152,None,1204.351957200095,None,['7'],1204.351957200095,None,[0.24541720002889633],,,,,Emoconpilot030,2021_Oct_20_1148,BackwardMask,2020.2.8,119.67620382652794,
,m,008_y_m_n_a.jpg,neutral,8,12,f,012_o_f_n_a.jpg,neutral,congruent,8,mismatch,,140,170,,18,208,block2_Pilot_2,8,n_n,n_n_weak,,,,,0,1,1,1,0,30,30,30,,,,,,,,,1207.3527558001224,None,1209.1045004001353,1209.3950567999855,1209.3950567999855,1209.5444948000368,1209.5444948000368,1209.585356200114,1209.585356200114,None,8,1,0.5320152000058442,1209.585356200114,None,1211.0855155000463,None,['7'],1211.0855155000463,None,[0.3277778001502156],,,,,Emoconpilot030,2021_Oct_20_1148,BackwardMask,2020.2.8,119.67620382652794,
,m,008_y_m_s_a.jpg,sad,7,4,m,004_o_m_n_a.jpg,neutral,incongruent,8,match,,130,170,,2,231,block2_Pilot_2,8,s_n,s_n_weak,,,,,0,1,1,1,0,31,31,31,,,,,,,,,1214.0855382001027,None,1216.0290020999964,1216.3202051999979,1216.3202051999979,1216.3363556000404,1216.3363556000404,1216.3773188001942,1216.3773188001942,None,7,0,0.6919615999795496,1216.3773188001942,None,1217.8770988001488,None,['7'],1217.8770988001488,None,[0.48019249993376434],,,,,Emoconpilot030,2021_Oct_20_1148,BackwardMask,2020.2.8,119.67620382652794,
,m,016_y_m_n_a.jpg,neutral,8,28,f,028_y_f_n_a.jpg,neutral,congruent,8,mismatch,,140,170,,2,218,block2_Pilot_2,16,n_n,n_n_weak,,,,,0,1,1,1,0,32,32,32,,,,,,,,,1220.8771788000595,None,1222.7125183001626,1223.003640800016,1223.003640800016,1223.0196251000743,1223.0196251000743,1223.0606184999924,1223.0606184999924,None,8,1,1.0247597000561655,1223.0606184999924,None,1224.5607513000723,None,['7'],1224.5607513000723,None,[0.3646215000189841],,,,,Emoconpilot030,2021_Oct_20_1148,BackwardMask,2020.2.8,119.67620382652794,
,m,033_o_m_n_a.jpg,neutral,8,33,m,033_o_m_s_a.jpg,sad,incongruent,7,match,,140,160,,3,141,block2_Pilot_2,33,n_s,n_s_weak,,,,,0,1,1,1,0,33,33,33,,,,,,,,,1227.5610101001803,None,1228.755226700101,1229.0453882000875,1229.0453882000875,1229.0699658000376,1229.0699658000376,1229.1106080000754,1229.1106080000754,None,8,0,0.6386555000208318,1229.1106080000754,None,1230.6107697000261,None,['7'],1230.6107697000261,None,[0.23460139986127615],,,,,Emoconpilot030,2021_Oct_20_1148,BackwardMask,2020.2.8,119.67620382652794,
,m,016_y_m_n_a.jpg,neutral,8,13,m,013_y_m_s_a.jpg,sad,incongruent,7,match,,140,160,,1,238,block2_Pilot_2,16,n_s,n_s_weak,,,,,0,1,1,1,0,34,34,34,,,,,,,,,1233.6109629001003,None,1235.614298200002,1235.9038925999776,1235.9038925999776,1235.9117068999913,1235.9117068999913,1235.9525225001853,1235.9525225001853,None,None,0,,1235.9525225001853,None,1237.453035700135,None,['9'],1237.453035700135,None,[0.20839400007389486],,,,,Emoconpilot030,2021_Oct_20_1148,BackwardMask,2020.2.8,119.67620382652794,
,f,030_o_f_h_a.jpg,happy,9,12,f,012_o_f_n_a.jpg,neutral,incongruent,8,match,,120,170,,3,190,block2_Pilot_2,30,h_n,h_n_weak,,,,,0,1,1,1,0,35,35,35,,,,,,,,,1240.4534291001037,None,1242.0554045999888,1242.345726000145,1242.345726000145,1242.3702354000416,1242.3702354000416,1242.4109920000192,1242.4109920000192,None,9,0,0.61031059990637,1242.4109920000192,None,1243.9108867000323,None,['7'],1243.9108867000323,None,[0.5024773001205176],,,,,Emoconpilot030,2021_Oct_20_1148,BackwardMask,2020.2.8,119.67620382652794,
,f,030_o_f_s_a.jpg,sad,7,12,f,012_o_f_n_a.jpg,neutral,incongruent,8,match,,130,170,,3,197,block2_Pilot_2,30,s_n,s_n_strong,,,,,0,1,1,1,0,36,36,36,,,,,,,,,1246.9120308000129,None,1248.5717970000114,1248.862514700042,1248.862514700042,1248.886801799992,1248.886801799992,1248.9279461000115,1248.9279461000115,None,9,0,0.6053701001219451,1248.9279461000115,None,1250.4279167000204,None,['7'],1250.4279167000204,None,[0.22532109986059368],,,,,Emoconpilot030,2021_Oct_20_1148,BackwardMask,2020.2.8,119.67620382652794,
,m,004_o_m_s_a.jpg,sad,7,8,m,008_y_m_h_a.jpg,happy,incongruent,9,match,,130,150,,3,201,block2_Pilot_2,4,s_h,s_h_strong,,,,,0,1,1,1,0,37,37,37,,,,,,,,,1253.4289308001753,None,1255.1114672000986,1255.4039608000312,1255.4039608000312,1255.4288077000529,1255.4288077000529,1255.4695056001656,1255.4695056001656,None,7,0,0.7758434000425041,1255.4695056001656,None,1256.9703026001807,None,['7'],1256.9703026001807,None,[0.20297460001893342],,,,,Emoconpilot030,2021_Oct_20_1148,BackwardMask,2020.2.8,119.67620382652794,
,f,040_y_f_n_a.jpg,neutral,8,16,m,016_y_m_n_a.jpg,neutral,congruent,8,mismatch,,140,170,,3,198,block2_Pilot_2,40,n_n,n_n_strong,,,,,0,1,1,1,0,38,38,38,,,,,,,,,1259.9703732000198,None,1261.6501584001817,1261.9461593001615,1261.9461593001615,1261.9706125000957,1261.9706125000957,1262.0114116000477,1262.0114116000477,None,8,1,0.7299651999492198,1262.0114116000477,None,1263.511526199989,None,['7'],1263.511526199989,None,[0.22976969997398555],,,,,Emoconpilot030,2021_Oct_20_1148,BackwardMask,2020.2.8,119.67620382652794,
,m,027_o_m_n_a.jpg,neutral,8,16,m,016_y_m_s_a.jpg,sad,incongruent,7,match,,140,160,,1,238,block2_Pilot_2,27,n_s,n_s_strong,,,,,0,1,1,1,0,39,39,39,,,,,,,,,1266.5118629999924,None,1268.515086099971,1268.8048684999812,1268.8048684999812,1268.8123702001758,1268.8123702001758,1268.8531864001416,1268.8531864001416,None,8,0,1.0721942000091076,1268.8531864001416,None,1270.3532775000203,None,['7'],1270.3532775000203,None,[0.4361612000502646],,,,,Emoconpilot030,2021_Oct_20_1148,BackwardMask,2020.2.8,119.67620382652794,
,m,033_o_m_n_a.jpg,neutral,8,40,f,040_y_f_h_a.jpg,happy,incongruent,9,mismatch,,140,150,,2,137,block2_Pilot_2,33,n_h,n_h_strong,,,,,0,1,1,1,0,40,40,40,,,,,,,,,1273.3539265000727,None,1274.514605200151,1274.8047321999911,1274.8047321999911,1274.820772800129,1274.820772800129,1274.861801699968,1274.861801699968,None,8,0,0.6395522998645902,1274.861801699968,None,1276.3615923000034,None,['8'],1276.3615923000034,None,[0.23572380002588034],,,,,Emoconpilot030,2021_Oct_20_1148,BackwardMask,2020.2.8,119.67620382652794,
,m,004_o_m_s_a.jpg,sad,7,8,m,008_y_m_h_a.jpg,happy,incongruent,9,match,,130,150,,18,193,block2_Pilot_2,4,s_h,s_h_strong,,,,,0,1,1,1,0,41,41,41,,,,,,,,,1279.3616367001086,None,1280.9783634000923,1281.2711050000507,1281.2711050000507,1281.4212049001362,1281.4212049001362,1281.4618320001755,1281.4618320001755,None,7,0,0.6475160999689251,1281.4618320001755,None,1282.9622405001428,None,['7'],1282.9622405001428,None,[0.3630049000494182],,,,,Emoconpilot030,2021_Oct_20_1148,BackwardMask,2020.2.8,119.67620382652794,
,f,012_o_f_h_a.jpg,happy,9,4,m,004_o_m_s_a.jpg,sad,incongruent,7,mismatch,,120,160,,3,198,block2_Pilot_2,12,h_s,h_s_weak,,,,,0,1,1,1,0,42,42,42,,,,,,,,,1285.9618941000663,None,1287.6206070000771,1287.912951500155,1287.912951500155,1287.9378117001615,1287.9378117001615,1287.9787314001005,1287.9787314001005,None,9,0,0.5226657001767308,1287.9787314001005,None,1289.4783141000662,None,['7'],1289.4783141000662,None,[0.5029033999890089],,,,,Emoconpilot030,2021_Oct_20_1148,BackwardMask,2020.2.8,119.67620382652794,
,f,012_o_f_n_a.jpg,neutral,8,8,m,008_y_m_s_a.jpg,sad,incongruent,7,mismatch,,140,160,,1,238,block2_Pilot_2,12,n_s,n_s_strong,,,,,0,1,1,1,0,43,43,43,,,,,,,,,1292.479614800075,None,1294.4889346000273,1294.7802124000154,1294.7802124000154,1294.7879653000273,1294.7879653000273,1294.82884750003,1294.82884750003,None,None,0,,1294.82884750003,None,1296.328726200154,None,['9'],1296.328726200154,None,[0.3565932000055909],,,,,Emoconpilot030,2021_Oct_20_1148,BackwardMask,2020.2.8,119.67620382652794,
,f,040_y_f_n_a.jpg,neutral,8,8,m,008_y_m_n_a.jpg,neutral,congruent,8,mismatch,,140,170,,3,165,block2_Pilot_2,40,n_n,n_n_weak,,,,,0,1,1,1,0,44,44,44,,,,,,,,,1299.3298267000355,None,1300.7222148000728,1301.0136037999764,1301.0136037999764,1301.038017500192,1301.038017500192,1301.0788934000302,1301.0788934000302,None,8,1,0.6224061001557857,1301.0788934000302,None,1302.579862400191,None,['7'],1302.579862400191,None,[0.009466300019994378],,,,,Emoconpilot030,2021_Oct_20_1148,BackwardMask,2020.2.8,119.67620382652794,
,f,028_y_f_h_a.jpg,happy,9,33,m,033_o_m_n_a.jpg,neutral,incongruent,8,mismatch,,120,170,,1,238,block2_Pilot_2,28,h_n,h_n_strong,,,,,0,1,1,1,0,45,45,45,,,,,,,,,1305.5797851001844,None,1307.573046799982,1307.8633360001259,1307.8633360001259,1307.8714613001794,1307.8714613001794,1307.912488500122,1307.912488500122,None,8,1,1.2770227999426425,1307.912488500122,None,1309.4122417999897,None,['8'],1309.4122417999897,None,[0.6089168998878449],,,,,Emoconpilot030,2021_Oct_20_1148,BackwardMask,2020.2.8,119.67620382652794,
,m,027_o_m_s_a.jpg,sad,7,19,f,019_m_f_n_a.jpg,neutral,incongruent,8,mismatch,,130,170,,2,236,block2_Pilot_2,27,s_n,s_n_weak,,,,,0,1,1,1,0,46,46,46,,,,,,,,,1312.4125059000216,None,1314.3869282000232,1314.6801790001336,1314.6801790001336,1314.696690800134,1314.696690800134,1314.7375064000953,1314.7375064000953,None,8,1,0.8116065999493003,1314.7375064000953,None,1316.2375888000242,None,['7'],1316.2375888000242,None,[0.3998424999881536],,,,,Emoconpilot030,2021_Oct_20_1148,BackwardMask,2020.2.8,119.67620382652794,
,m,027_o_m_h_a.jpg,happy,9,19,f,019_m_f_s_a.jpg,sad,incongruent,7,mismatch,,120,160,,1,238,block2_Pilot_2,27,h_s,h_s_strong,,,,,0,1,1,1,0,47,47,47,,,,,,,,,1319.2377701001242,None,1321.2764385000337,1321.5724634001963,1321.5724634001963,1321.58021130017,1321.58021130017,1321.6209744000807,1321.6209744000807,None,None,0,,1321.6209744000807,None,1323.1210148001555,None,['9'],1323.1210148001555,None,[0.2523346000816673],,,,,Emoconpilot030,2021_Oct_20_1148,BackwardMask,2020.2.8,119.67620382652794,
,m,016_y_m_h_a.jpg,happy,9,4,m,004_o_m_s_a.jpg,sad,incongruent,7,match,,120,160,,3,227,block2_Pilot_2,16,h_s,h_s_strong,,,,,0,1,1,1,0,48,48,48,,,,,,,,,1326.1211161999963,None,1328.0206051999703,1328.313713400159,1328.313713400159,1328.338588300161,1328.338588300161,1328.3794142000843,1328.3794142000843,None,9,0,0.5379920999985188,1328.3794142000843,None,1329.8793707001023,None,['7'],1329.8793707001023,None,[0.34992050006985664],,,,,Emoconpilot030,2021_Oct_20_1148,BackwardMask,2020.2.8,119.67620382652794,
,f,040_y_f_h_a.jpg,happy,9,13,m,013_y_m_h_a.jpg,happy,congruent,9,mismatch,,120,150,,3,165,block2_Pilot_2,40,h_h,h_h_strong,,,,,0,1,1,1,0,49,49,49,,,,,,,,,1332.8803448001854,None,1334.262842600001,1334.5556465000845,1334.5556465000845,1334.5804062001407,1334.5804062001407,1334.6212141001597,1334.6212141001597,None,9,1,0.552234600065276,1334.6212141001597,None,1336.1218926999718,None,['7'],1336.1218926999718,None,[0.42753019998781383],,,,,Emoconpilot030,2021_Oct_20_1148,BackwardMask,2020.2.8,119.67620382652794,
,m,033_o_m_s_a.jpg,sad,7,28,f,028_y_f_n_a.jpg,neutral,incongruent,8,mismatch,,130,170,,2,227,block2_Pilot_2,33,s_n,s_n_weak,,,,,0,1,1,1,0,50,50,50,,,,,,,,,1339.1213679001667,None,1341.0218854001723,1341.3141162001994,1341.3141162001994,1341.3305184000637,1341.3305184000637,1341.3714062999934,1341.3714062999934,None,9,0,0.7537237000651658,1341.3714062999934,None,1342.8714811999816,None,['7'],1342.8714811999816,None,[0.285827900050208],,,,,Emoconpilot030,2021_Oct_20_1148,BackwardMask,2020.2.8,119.67620382652794,
,f,019_m_f_s_a.jpg,sad,7,27,m,027_o_m_h_a.jpg,happy,incongruent,9,mismatch,,130,150,,1,238,block2_Pilot_2,19,s_h,s_h_weak,,,,,0,1,1,1,0,51,51,51,,,,,,,,,1345.8714331001975,None,1347.875891200034,1348.1646245000884,1348.1646245000884,1348.1723214001395,1348.1723214001395,1348.213149300078,1348.213149300078,None,9,1,0.8482385999523103,1348.213149300078,None,1349.7133049000986,None,['7'],1349.7133049000986,None,[0.2520492998883128],,,,,Emoconpilot030,2021_Oct_20_1148,BackwardMask,2020.2.8,119.67620382652794,
,m,016_y_m_h_a.jpg,happy,9,19,f,019_m_f_n_a.jpg,neutral,incongruent,8,mismatch,,120,170,,18,238,block2_Pilot_2,16,h_n,h_n_strong,,,,,0,1,1,1,0,52,52,52,,,,,,,,,1352.7141706000548,None,1354.704628400039,1354.997645500116,1354.997645500116,1355.1476184001658,1355.1476184001658,1355.1882895000745,1355.1882895000745,None,9,0,0.329003700055182,1355.1882895000745,None,1356.6883312000427,None,['7'],1356.6883312000427,None,[0.293159999884665],,,,,Emoconpilot030,2021_Oct_20_1148,BackwardMask,2020.2.8,119.67620382652794,
,f,021_o_f_s_a.jpg,sad,7,8,m,008_y_m_n_a.jpg,neutral,incongruent,8,mismatch,,130,170,,1,238,block2_Pilot_2,21,s_n,s_n_strong,,,,,0,1,1,1,0,53,53,53,,,,,,,,,1359.6888856000733,None,1361.6779049001634,1361.9727639001794,1361.9727639001794,1361.981056000106,1361.981056000106,1362.021849700017,1362.021849700017,None,None,0,,1362.021849700017,None,1363.5218827000353,None,['9'],1363.5218827000353,None,[0.34747679997235537],,,,,Emoconpilot030,2021_Oct_20_1148,BackwardMask,2020.2.8,119.67620382652794,
,f,012_o_f_s_a.jpg,sad,7,33,m,033_o_m_s_a.jpg,sad,congruent,7,mismatch,,130,160,,2,148,block2_Pilot_2,12,s_s,s_s_weak,,,,,0,1,1,1,0,54,54,54,,,,,,,,,1366.5225937000941,None,1367.7588292001747,1368.0562625001185,1368.0562625001185,1368.0728455001954,1368.0728455001954,1368.1134375999682,1368.1134375999682,None,7,1,1.2198179999832064,1368.1134375999682,None,1369.6135970000178,None,['8'],1369.6135970000178,None,[0.719711699988693],,,,,Emoconpilot030,2021_Oct_20_1148,BackwardMask,2020.2.8,119.67620382652794,
,f,030_o_f_s_a.jpg,sad,7,40,f,040_y_f_s_a.jpg,sad,congruent,7,match,,130,160,,3,136,block2_Pilot_2,30,s_s,s_s_strong,,,,,0,1,1,1,0,55,55,55,,,,,,,,,1372.6138669999782,None,1373.7674986000638,1374.0567934999708,1374.0567934999708,1374.0812160000205,1374.0812160000205,1374.1220087001566,1374.1220087001566,None,7,1,0.7713293000124395,1374.1220087001566,None,1375.6220208001323,None,['7'],1375.6220208001323,None,[0.23114580009132624],,,,,Emoconpilot030,2021_Oct_20_1148,BackwardMask,2020.2.8,119.67620382652794,
,m,027_o_m_s_a.jpg,sad,7,28,f,028_y_f_h_a.jpg,happy,incongruent,9,mismatch,,130,150,,1,238,block2_Pilot_2,27,s_h,s_h_weak,,,,,0,1,1,1,0,56,56,56,,,,,,,,,1378.6229304000735,None,1380.6131753001828,1380.906672600191,1380.906672600191,1380.9144678001758,1380.9144678001758,1380.9554056001361,1380.9554056001361,None,None,0,,1380.9554056001361,None,1382.4556289000902,None,['9'],1382.4556289000902,None,[0.22957109985873103],,,,,Emoconpilot030,2021_Oct_20_1148,BackwardMask,2020.2.8,119.67620382652794,
,m,004_o_m_n_a.jpg,neutral,8,8,m,008_y_m_s_a.jpg,sad,incongruent,7,match,,140,160,,3,225,block2_Pilot_2,4,n_s,n_s_strong,,,,,0,1,1,1,0,57,57,57,,,,,,,,,1385.455668500159,None,1387.3513991001528,1387.6404436000157,1387.6404436000157,1387.6649464000948,1387.6649464000948,1387.7055817001965,1387.7055817001965,None,8,0,0.7797918999567628,1387.7055817001965,None,1389.205717700068,None,['7'],1389.205717700068,None,[0.42353340005502105],,,,,Emoconpilot030,2021_Oct_20_1148,BackwardMask,2020.2.8,119.67620382652794,
,f,012_o_f_s_a.jpg,sad,7,40,f,040_y_f_s_a.jpg,sad,congruent,7,match,,130,160,,1,238,block2_Pilot_2,12,s_s,s_s_strong,,,,,0,1,1,1,0,58,58,58,,,,,,,,,1392.2065185999963,None,1394.1930975001305,1394.4899993001018,1394.4899993001018,1394.4983660001308,1394.4983660001308,1394.5393456001766,1394.5393456001766,None,None,0,,1394.5393456001766,None,1396.0392556001898,None,['8'],1396.0392556001898,None,[0.862108799861744],,,,,Emoconpilot030,2021_Oct_20_1148,BackwardMask,2020.2.8,119.67620382652794,
,f,021_o_f_h_a.jpg,happy,9,4,m,004_o_m_n_a.jpg,neutral,incongruent,8,mismatch,,120,170,,1,238,block2_Pilot_2,21,h_n,h_n_weak,,,,,0,1,1,1,0,59,59,59,,,,,,,,,1399.0400472001638,None,1401.043102600146,1401.3324258001521,1401.3324258001521,1401.3400200000033,1401.3400200000033,1401.380926300073,1401.380926300073,None,None,0,,1401.380926300073,None,1402.880864100065,None,['9'],1402.880864100065,None,[0.2524453999940306],,,,,Emoconpilot030,2021_Oct_20_1148,BackwardMask,2020.2.8,119.67620382652794,
,f,040_y_f_h_a.jpg,happy,9,16,m,016_y_m_n_a.jpg,neutral,incongruent,8,mismatch,,120,170,,2,154,block2_Pilot_2,40,h_n,h_n_weak,,,,,0,1,1,1,0,60,60,60,,,,,,,,,1405.8810199000873,None,1407.1721406001598,1407.4653509000782,1407.4653509000782,1407.4818494000938,1407.4818494000938,1407.522819200065,1407.522819200065,None,9,0,1.1862983999308199,1407.522819200065,None,1409.0228016001638,None,['7'],1409.0228016001638,None,[0.4784432000014931],,,,,Emoconpilot030,2021_Oct_20_1148,BackwardMask,2020.2.8,119.67620382652794,
,m,008_y_m_n_a.jpg,neutral,8,4,m,004_o_m_s_a.jpg,sad,incongruent,7,match,,140,160,,18,145,block2_Pilot_2,8,n_s,n_s_strong,,,,,0,1,1,1,0,61,61,61,,,,,,,,,1412.0227866000496,None,1413.252027500188,1413.5409874001052,1413.5409874001052,1413.6903268001042,1413.6903268001042,1413.731152900029,1413.731152900029,None,8,0,0.7062220999505371,1413.731152900029,None,1415.2314962001983,None,['7'],1415.2314962001983,None,[0.5658358000218868],,,,,Emoconpilot030,2021_Oct_20_1148,BackwardMask,2020.2.8,119.67620382652794,
,f,021_o_f_s_a.jpg,sad,7,33,m,033_o_m_h_a.jpg,happy,incongruent,9,mismatch,,130,150,,1,238,block2_Pilot_2,21,s_h,s_h_strong,,,,,0,1,1,1,0,62,62,62,,,,,,,,,1418.2321985000744,None,1420.2207390000112,1420.5157622001134,1420.5157622001134,1420.5236995001324,1420.5236995001324,1420.5646484000608,1420.5646484000608,None,None,0,,1420.5646484000608,None,1422.0655375001952,None,['9'],1422.0655375001952,None,[1.595683499937877],,,,,Emoconpilot030,2021_Oct_20_1148,BackwardMask,2020.2.8,119.67620382652794,
,m,033_o_m_n_a.jpg,neutral,8,30,f,030_o_f_h_a.jpg,happy,incongruent,9,mismatch,,140,150,,18,171,block2_Pilot_2,33,n_h,n_h_weak,,,,,0,1,1,1,0,63,63,63,,,,,,,,,1425.0648593001533,None,1426.511118600145,1426.807863100199,1426.807863100199,1426.9571193000302,1426.9571193000302,1426.9981347001158,1426.9981347001158,None,8,0,0.5031133000738919,1426.9981347001158,None,1428.4981982000172,None,['7'],1428.4981982000172,None,[0.26687349984422326],,,,,Emoconpilot030,2021_Oct_20_1148,BackwardMask,2020.2.8,119.67620382652794,
,m,027_o_m_n_a.jpg,neutral,8,27,m,027_o_m_h_a.jpg,happy,incongruent,9,match,,140,150,,2,164,block2_Pilot_2,27,n_h,n_h_weak,,,,,0,1,1,1,0,64,64,64,,,,,,,,,1431.4988240001258,None,1432.8839665001724,1433.1745572001673,1433.1745572001673,1433.1907032001764,1433.1907032001764,1433.2316433000378,1433.2316433000378,None,8,0,0.7415872998535633,1433.2316433000378,None,1434.7324099000543,None,['7'],1434.7324099000543,None,[0.26490400009788573],,,,,Emoconpilot030,2021_Oct_20_1148,BackwardMask,2020.2.8,119.67620382652794,
,m,008_y_m_n_a.jpg,neutral,8,40,f,040_y_f_n_a.jpg,neutral,congruent,8,mismatch,,140,170,,1,238,block2_Pilot_2,8,n_n,n_n_strong,,,,,0,1,1,1,0,65,65,65,,,,,,,,,1437.73256699997,None,1439.734185400186,1440.0249505999964,1440.0249505999964,1440.032509200042,1440.032509200042,1440.073354900116,1440.073354900116,None,8,1,1.3640512998681515,1440.073354900116,None,1441.573287300067,None,['8'],1441.573287300067,None,[0.7839458000380546],,,,,Emoconpilot030,2021_Oct_20_1148,BackwardMask,2020.2.8,119.67620382652794,
,f,040_y_f_h_a.jpg,happy,9,21,f,021_o_f_n_a.jpg,neutral,incongruent,8,match,,120,170,,18,239,block2_Pilot_2,40,h_n,h_n_strong,,,,,0,1,1,1,0,66,66,66,,,,,,,,,1444.574381600134,None,1446.5733394001145,1446.86624140013,1446.86624140013,1447.016061300179,1447.016061300179,1447.0567872000393,1447.0567872000393,None,9,0,0.39649690012447536,1447.0567872000393,None,1448.557652400108,None,['7'],1448.557652400108,None,[0.2796606000047177],,,,,Emoconpilot030,2021_Oct_20_1148,BackwardMask,2020.2.8,119.67620382652794,
,f,021_o_f_s_a.jpg,sad,7,28,f,028_y_f_h_a.jpg,happy,incongruent,9,match,,130,150,,1,238,block2_Pilot_2,21,s_h,s_h_weak,,,,,0,1,1,1,0,67,67,67,,,,,,,,,1451.557274500141,None,1453.5463096001185,1453.8413198001217,1453.8413198001217,1453.8494810000993,1453.8494810000993,1453.890313200187,1453.890313200187,None,None,0,,1453.890313200187,None,1455.390317399986,None,['9'],1455.390317399986,None,[0.8788127999287099],,,,,Emoconpilot030,2021_Oct_20_1148,BackwardMask,2020.2.8,119.67620382652794,
,f,021_o_f_n_a.jpg,neutral,8,30,f,030_o_f_n_a.jpg,neutral,congruent,8,match,,140,170,,2,209,block2_Pilot_2,21,n_n,n_n_strong,,,,,0,1,1,1,0,68,68,68,,,,,,,,,1458.3922408001963,None,1460.1652929000556,1460.458557000151,1460.458557000151,1460.4747281000018,1460.4747281000018,1460.5155774999876,1460.5155774999876,None,8,1,0.7778523000888526,1460.5155774999876,None,1462.0153382001445,None,['7'],1462.0153382001445,None,[0.24593279999680817],,,,,Emoconpilot030,2021_Oct_20_1148,BackwardMask,2020.2.8,119.67620382652794,
,f,040_y_f_s_a.jpg,sad,7,13,m,013_y_m_s_a.jpg,sad,congruent,7,mismatch,,130,160,,3,147,block2_Pilot_2,40,s_s,s_s_strong,,,,,0,1,1,1,0,69,69,69,,,,,,,,,1465.0170398000628,None,1466.2485789000057,1466.5418164001312,1466.5418164001312,1466.5662579000928,1466.5662579000928,1466.6072348000016,1466.6072348000016,None,8,0,0.8060747000854462,1466.6072348000016,None,1468.1075811001938,None,['7'],1468.1075811001938,None,[0.8096521999686956],,,,,Emoconpilot030,2021_Oct_20_1148,BackwardMask,2020.2.8,119.67620382652794,
,f,040_y_f_s_a.jpg,sad,7,21,f,021_o_f_h_a.jpg,happy,incongruent,9,match,,130,150,,3,172,block2_Pilot_2,40,s_h,s_h_strong,,,,,0,1,1,1,0,70,70,70,,,,,,,,,1471.1074485999998,None,1472.5483910001349,1472.8417486001272,1472.8417486001272,1472.8665050000418,1472.8665050000418,1472.9073754001874,1472.9073754001874,None,8,0,1.4180087998975068,1472.9073754001874,None,1474.4073222000152,None,['7'],1474.4073222000152,None,[0.5980283999815583],,,,,Emoconpilot030,2021_Oct_20_1148,BackwardMask,2020.2.8,119.67620382652794,
