Person,primeGender,prime,primeEmotion,corrAnsPrime,targetPerson,targetGender,target,targetEmotion,Cond,corrAnsTar,gender,condition,ID_primer,ID_target,PrimerTime,PrimerTime120,JitterTime,conditionsFile,primePerson,emotion_condition,Condition,example.thisRepN,example.thisTrialN,example.thisN,example.thisIndex,readinBlocks.thisRepN,readinBlocks.thisTrialN,readinBlocks.thisN,readinBlocks.thisIndex,trials.thisRepN,trials.thisTrialN,trials.thisN,trials.thisIndex,text_intro.started,text_intro.stopped,text_probe.started,text_probe.stopped,key_resp_2.keys,key_resp_2.rt,key_resp_2.started,key_resp_2.stopped,polygon_ISI.started,polygon_ISI.stopped,polygon.started,polygon.stopped,primerImage.started,primerImage.stopped,maskImage.started,maskImage.stopped,response.started,response.stopped,key_resp.keys,key_resp.corr,key_resp.rt,key_resp.started,key_resp.stopped,text.started,text.stopped,key_resp_Rating.keys,key_resp_Rating.rt,key_resp_Rating.started,key_resp_Rating.stopped,text_start.started,text_start.stopped,text_pause.started,text_pause.stopped,participant,date,expName,psychopyVersion,frameRate,
,,,,,,,,,,,,,,,,,,,,,,,,,,,,,,,,,,27.393835800001398,32.365893699927256,32.365893699927256,None,7,12.042364599998109,27.393835800001398,None,,,,,,,,,,,,,,,,,,,,,,,,,,Emoconpilot033,2021_Nov_02_1523,BackwardMask,2020.2.8,120.34852936094606,
2,f,1113_y_f_s_a.jpg,sad,7,1,m,1111_m_m_h_a.jpg,happy,incongruent,9,mix,s+h,130,150,1,2,148,,,,,0,0,0,0,,,,,,,,,,,,,,,,,39.46725449990481,None,40.71339369995985,41.02648619993124,41.02648619993124,41.04374829994049,41.04374829994049,41.076981199905276,41.076981199905276,None,8,0,0.7433131999569014,41.076981199905276,None,42.57390099996701,None,['8'],[1.166361300041899],42.57390099996701,None,,,,,Emoconpilot033,2021_Nov_02_1523,BackwardMask,2020.2.8,120.34852936094606,
2,f,1111_m_m_h_a.jpg,happy,9,3,f,1113_y_f_s_a.jpg,sad,incongruent,7,mix,h+s,120,160,9,18,195,,,,,0,1,1,1,,,,,,,,,,,,,,,,,45.57347669999581,None,47.218066899920814,47.50744819990359,47.50744819990359,47.65699940000195,47.65699940000195,47.69765749992803,47.69765749992803,None,7,1,0.7465402000816539,47.69765749992803,None,49.197836600011215,None,None,,49.197836600011215,None,,,,,Emoconpilot033,2021_Nov_02_1523,BackwardMask,2020.2.8,120.34852936094606,
2,f,1112_m_f_n_a.jpg,neutral,8,2,f,1112_m_f_n_a.jpg,neutral,congruent,8,match,n+n,140,170,9,18,134,,,,,0,2,2,2,,,,,,,,,,,,,,,,,52.19804309995379,None,53.3338911999017,53.624284499906935,53.624284499906935,53.773724199971184,53.773724199971184,53.8145658998983,53.8145658998983,None,8,1,0.8135767000494525,53.8145658998983,None,55.314370399923064,None,['7'],[0.46597500005736947],55.314370399923064,None,,,,,Emoconpilot033,2021_Nov_02_1523,BackwardMask,2020.2.8,120.34852936094606,
,m,033_o_m_h_a.jpg,happy,9,30,f,030_o_f_n_a.jpg,neutral,incongruent,8,mismatch,,120,170,,18,238,block1_Pilot_2,33,h_n,h_n_strong,,,,,0,0,0,0,0,0,0,0,,,,,,,,,59.34641399991233,None,61.33625269995537,61.63245349994395,61.63245349994395,61.782323099905625,61.782323099905625,61.823014899971895,61.823014899971895,None,9,0,1.1331633999943733,61.823014899971895,None,63.32422559999395,None,['7'],[0.672054799972102],63.32422559999395,None,58.31534109998029,None,None,None,Emoconpilot033,2021_Nov_02_1523,BackwardMask,2020.2.8,120.34852936094606,
,m,004_o_m_h_a.jpg,happy,9,12,f,012_o_f_h_a.jpg,happy,congruent,9,mismatch,,120,150,,2,218,block1_Pilot_2,4,h_h,h_h_weak,,,,,0,0,0,0,0,1,1,1,,,,,,,,,66.32404310000129,None,68.18357309990097,68.47473749995697,68.47473749995697,68.49066869996022,68.49066869996022,68.53148319991305,68.53148319991305,None,9,1,0.7687472000252455,68.53148319991305,None,70.03176189993974,None,['8'],[0.45246950001455843],70.03176189993974,None,,,,,Emoconpilot033,2021_Nov_02_1523,BackwardMask,2020.2.8,120.34852936094606,
,f,012_o_f_h_a.jpg,happy,9,33,m,033_o_m_h_a.jpg,happy,congruent,9,mismatch,,120,150,,2,140,block1_Pilot_2,12,h_h,h_h_weak,,,,,0,0,0,0,0,2,2,2,,,,,,,,,73.03264809993561,None,74.20652449992485,74.49928009998985,74.49928009998985,74.51596999994945,74.51596999994945,74.55671679996885,74.55671679996885,None,9,1,0.6874381999950856,74.55671679996885,None,76.05651339993346,None,['8'],[0.3958437000401318],76.05651339993346,None,,,,,Emoconpilot033,2021_Nov_02_1523,BackwardMask,2020.2.8,120.34852936094606,
,f,040_y_f_n_a.jpg,neutral,8,40,f,040_y_f_h_a.jpg,happy,incongruent,9,match,,140,150,,2,192,block1_Pilot_2,40,n_h,n_h_weak,,,,,0,0,0,0,0,3,3,3,,,,,,,,,79.05764559993986,None,80.69197929999791,80.98317819996737,80.98317819996737,80.99934709991794,80.99934709991794,81.04021179990377,81.04021179990377,None,8,0,0.7319123999914154,81.04021179990377,None,82.5402823999757,None,['8'],[0.7759706999640912],82.5402823999757,None,,,,,Emoconpilot033,2021_Nov_02_1523,BackwardMask,2020.2.8,120.34852936094606,
,m,013_y_m_s_a.jpg,sad,7,16,m,016_y_m_n_a.jpg,neutral,incongruent,8,match,,130,170,,3,155,block1_Pilot_2,13,s_n,s_n_weak,,,,,0,0,0,0,0,4,4,4,,,,,,,,,85.54115049995016,None,86.8411303999601,87.13286999997217,87.13286999997217,87.15774479997344,87.15774479997344,87.19863130000886,87.19863130000886,None,7,0,0.813581700087525,87.19863130000886,None,88.69894419994671,None,['8'],[0.3853487999876961],88.69894419994671,None,,,,,Emoconpilot033,2021_Nov_02_1523,BackwardMask,2020.2.8,120.34852936094606,
,f,012_o_f_h_a.jpg,happy,9,21,f,021_o_f_h_a.jpg,happy,congruent,9,match,,120,150,,2,216,block1_Pilot_2,12,h_h,h_h_strong,,,,,0,0,0,0,0,5,5,5,,,,,,,,,91.69944889994804,None,93.50591770000756,93.79968529997859,93.79968529997859,93.8162919000024,93.8162919000024,93.85702070000116,93.85702070000116,None,9,1,0.6833783999318257,93.85702070000116,None,95.35706849989947,None,['8'],[0.5431455000070855],95.35706849989947,None,,,,,Emoconpilot033,2021_Nov_02_1523,BackwardMask,2020.2.8,120.34852936094606,
,f,040_y_f_s_a.jpg,sad,7,40,f,040_y_f_h_a.jpg,happy,incongruent,9,match,,130,150,,1,238,block1_Pilot_2,40,s_h,s_h_weak,,,,,0,0,0,0,0,6,6,6,,,,,,,,,98.3571682999609,None,100.34866579994559,100.64150349993724,100.64150349993724,100.6496790999081,100.6496790999081,100.69052179995924,100.69052179995924,None,None,0,,100.69052179995924,None,102.19050709996372,None,['9'],[0.5017598000122234],102.19050709996372,None,,,,,Emoconpilot033,2021_Nov_02_1523,BackwardMask,2020.2.8,120.34852936094606,
,m,033_o_m_n_a.jpg,neutral,8,27,m,027_o_m_n_a.jpg,neutral,congruent,8,match,,140,170,,18,238,block1_Pilot_2,33,n_n,n_n_weak,,,,,0,0,0,0,0,7,7,7,,,,,,,,,105.19076779996976,None,107.19565739994869,107.49213699996471,107.49213699996471,107.64127569994889,107.64127569994889,107.68216079997364,107.68216079997364,None,8,1,0.5858844999456778,107.68216079997364,None,109.18321819999255,None,['7'],[0.4450431999284774],109.18321819999255,None,,,,,Emoconpilot033,2021_Nov_02_1523,BackwardMask,2020.2.8,120.34852936094606,
,f,040_y_f_h_a.jpg,happy,9,19,f,019_m_f_n_a.jpg,neutral,incongruent,8,match,,120,170,,1,238,block1_Pilot_2,40,h_n,h_n_strong,,,,,0,0,0,0,0,8,8,8,,,,,,,,,112.18324529996607,None,114.17408309993334,114.46681229991373,114.46681229991373,114.47484379995149,114.47484379995149,114.5157977999188,114.5157977999188,None,None,0,,114.5157977999188,None,116.01573839993216,None,['9'],[0.43655630003195256],116.01573839993216,None,,,,,Emoconpilot033,2021_Nov_02_1523,BackwardMask,2020.2.8,120.34852936094606,
,m,013_y_m_h_a.jpg,happy,9,12,f,012_o_f_s_a.jpg,sad,incongruent,7,mismatch,,120,160,,3,198,block1_Pilot_2,13,h_s,h_s_weak,,,,,0,0,0,0,0,9,9,9,,,,,,,,,119.01603379996959,None,120.70019839995075,120.99236279993784,120.99236279993784,121.01684299996123,121.01684299996123,121.0574951999588,121.0574951999588,None,9,0,0.6027822999749333,121.0574951999588,None,122.55784709996078,None,['7'],[0.3904564999975264],122.55784709996078,None,,,,,Emoconpilot033,2021_Nov_02_1523,BackwardMask,2020.2.8,120.34852936094606,
,m,008_y_m_h_a.jpg,happy,9,4,m,004_o_m_n_a.jpg,neutral,incongruent,8,match,,120,170,,18,150,block1_Pilot_2,8,h_n,h_n_strong,,,,,0,0,0,0,0,10,10,10,,,,,,,,,125.55871929996647,None,126.81589639990125,127.10878919996321,127.10878919996321,127.25942969997413,127.25942969997413,127.29947249998804,127.29947249998804,None,9,0,0.48079850000794977,127.29947249998804,None,128.7995568999322,None,['7'],[0.4125000999774784],128.7995568999322,None,,,,,Emoconpilot033,2021_Nov_02_1523,BackwardMask,2020.2.8,120.34852936094606,
,f,019_m_f_h_a.jpg,happy,9,27,m,027_o_m_s_a.jpg,sad,incongruent,7,mismatch,,120,160,,1,238,block1_Pilot_2,19,h_s,h_s_weak,,,,,0,0,0,0,0,11,11,11,,,,,,,,,131.7995395999169,None,133.7903071999317,134.0838584000012,134.0838584000012,134.0919546999503,134.0919546999503,134.13278849993367,134.13278849993367,None,None,0,,134.13278849993367,None,135.632930999971,None,['9'],[0.5473297999706119],135.632930999971,None,,,,,Emoconpilot033,2021_Nov_02_1523,BackwardMask,2020.2.8,120.34852936094606,
,m,016_y_m_s_a.jpg,sad,7,4,m,004_o_m_s_a.jpg,sad,congruent,7,match,,130,160,,18,142,block1_Pilot_2,16,s_s,s_s_strong,,,,,0,0,0,0,0,12,12,12,,,,,,,,,138.63379579992034,None,139.82453199999873,140.11714310001116,140.11714310001116,140.26720879995264,140.26720879995264,140.30793439992703,140.30793439992703,None,7,1,0.6000932999886572,140.30793439992703,None,141.8080604999559,None,['7'],[0.3880711999954656],141.8080604999559,None,,,,,Emoconpilot033,2021_Nov_02_1523,BackwardMask,2020.2.8,120.34852936094606,
,f,021_o_f_n_a.jpg,neutral,8,21,f,021_o_f_h_a.jpg,happy,incongruent,9,match,,140,150,,3,171,block1_Pilot_2,21,n_h,n_h_weak,,,,,0,0,0,0,0,13,13,13,,,,,,,,,144.80820729990955,None,146.25514909997582,146.55134199990425,146.55134199990425,146.5755182999419,146.5755182999419,146.61652759998105,146.61652759998105,None,8,0,0.6516907999757677,146.61652759998105,None,148.11650769994594,None,['7'],[0.4477309000212699],148.11650769994594,None,,,,,Emoconpilot033,2021_Nov_02_1523,BackwardMask,2020.2.8,120.34852936094606,
,f,012_o_f_h_a.jpg,happy,9,13,m,013_y_m_h_a.jpg,happy,congruent,9,mismatch,,120,150,,3,213,block1_Pilot_2,12,h_h,h_h_weak,,,,,0,0,0,0,0,14,14,14,,,,,,,,,151.1166927999584,None,152.90079409989994,153.19265129999258,153.19265129999258,153.21747099992353,153.21747099992353,153.25835019990336,153.25835019990336,None,9,1,0.5218318999977782,153.25835019990336,None,154.75854869990144,None,['7'],[0.4856914998963475],154.75854869990144,None,,,,,Emoconpilot033,2021_Nov_02_1523,BackwardMask,2020.2.8,120.34852936094606,
,f,021_o_f_s_a.jpg,sad,7,27,m,027_o_m_n_a.jpg,neutral,incongruent,8,mismatch,,130,170,,3,174,block1_Pilot_2,21,s_n,s_n_weak,,,,,0,0,0,0,0,15,15,15,,,,,,,,,157.75869429996237,None,159.21407989994623,159.50934969994705,159.50934969994705,159.53401229996234,159.53401229996234,159.57499789993744,159.57499789993744,None,9,0,1.1332514999667183,159.57499789993744,None,161.0750851999037,None,['8'],[0.5851256999885663],161.0750851999037,None,,,,,Emoconpilot033,2021_Nov_02_1523,BackwardMask,2020.2.8,120.34852936094606,
,f,019_m_f_n_a.jpg,neutral,8,19,f,019_m_f_h_a.jpg,happy,incongruent,9,match,,140,150,,3,238,block1_Pilot_2,19,n_h,n_h_weak,,,,,0,0,0,0,0,16,16,16,,,,,,,,,164.07672359992284,None,166.090254599927,166.3849704999011,166.3849704999011,166.40931389993057,166.40931389993057,166.45028190000448,166.45028190000448,None,8,0,0.681971599929966,166.45028190000448,None,167.95037430000957,None,['7'],[0.38193629996385425],167.95037430000957,None,,,,,Emoconpilot033,2021_Nov_02_1523,BackwardMask,2020.2.8,120.34852936094606,
,f,028_y_f_n_a.jpg,neutral,8,30,f,030_o_f_s_a.jpg,sad,incongruent,7,match,,140,160,,18,219,block1_Pilot_2,28,n_s,n_s_weak,,,,,0,0,0,0,0,17,17,17,,,,,,,,,170.95127209997736,None,172.79517449997365,173.08501869998872,173.08501869998872,173.23453189991415,173.23453189991415,173.27536949992646,173.27536949992646,None,8,0,0.47297500004060566,173.27536949992646,None,174.77575479994994,None,['7'],[0.3564572000177577],174.77575479994994,None,,,,,Emoconpilot033,2021_Nov_02_1523,BackwardMask,2020.2.8,120.34852936094606,
,m,008_y_m_h_a.jpg,happy,9,8,m,008_y_m_s_a.jpg,sad,incongruent,7,match,,120,160,,3,176,block1_Pilot_2,8,h_s,h_s_weak,,,,,0,0,0,0,0,18,18,18,,,,,,,,,177.7762817000039,None,179.25015839992557,179.54312019993085,179.54312019993085,179.56808659993112,179.56808659993112,179.60883079993073,179.60883079993073,None,9,0,0.5154332000529394,179.60883079993073,None,181.1089252999518,None,['7'],[0.3193944999948144],181.1089252999518,None,,,,,Emoconpilot033,2021_Nov_02_1523,BackwardMask,2020.2.8,120.34852936094606,
,f,019_m_f_h_a.jpg,happy,9,33,m,033_o_m_n_a.jpg,neutral,incongruent,8,mismatch,,120,170,,18,136,block1_Pilot_2,19,h_n,h_n_weak,,,,,0,0,0,0,0,19,19,19,,,,,,,,,184.10986039997078,None,185.2501207999885,185.54328320000786,185.54328320000786,185.6930208998965,185.6930208998965,185.73404079989996,185.73404079989996,None,9,0,0.3982123000314459,185.73404079989996,None,187.23408299998846,None,['7'],[0.29819799994584173],187.23408299998846,None,,,,,Emoconpilot033,2021_Nov_02_1523,BackwardMask,2020.2.8,120.34852936094606,
,m,013_y_m_n_a.jpg,neutral,8,12,f,012_o_f_s_a.jpg,sad,incongruent,7,mismatch,,140,160,,2,132,block1_Pilot_2,13,n_s,n_s_strong,,,,,0,0,0,0,0,20,20,20,,,,,,,,,190.23485709994566,None,191.35469710000325,191.64374099997804,191.64374099997804,191.6598953999346,191.6598953999346,191.70060300000478,191.70060300000478,None,8,0,0.7436092999996617,191.70060300000478,None,193.20070019993,None,['8'],[0.4035480000311509],193.20070019993,None,,,,,Emoconpilot033,2021_Nov_02_1523,BackwardMask,2020.2.8,120.34852936094606,
,f,040_y_f_s_a.jpg,sad,7,8,m,008_y_m_h_a.jpg,happy,incongruent,9,mismatch,,130,150,,2,175,block1_Pilot_2,40,s_h,s_h_weak,,,,,0,0,0,0,0,21,21,21,,,,,,,,,196.20171499997377,None,197.66732079989742,197.96025459992234,197.96025459992234,197.9766260999022,197.9766260999022,198.0176173999207,198.0176173999207,None,8,0,0.8025113000767305,198.0176173999207,None,199.5175811999943,None,['8'],[0.4066836000420153],199.5175811999943,None,,,,,Emoconpilot033,2021_Nov_02_1523,BackwardMask,2020.2.8,120.34852936094606,
,m,004_o_m_h_a.jpg,happy,9,40,f,040_y_f_s_a.jpg,sad,incongruent,7,mismatch,,120,160,,2,193,block1_Pilot_2,4,h_s,h_s_weak,,,,,0,0,0,0,0,22,22,22,,,,,,,,,202.51861579995602,None,204.15492469992023,204.44426159991417,204.44426159991417,204.46045929996762,204.46045929996762,204.5010519999778,204.5010519999778,None,9,0,0.6391484999330714,204.5010519999778,None,206.00103079993278,None,['7'],[0.33923570008482784],206.00103079993278,None,,,,,Emoconpilot033,2021_Nov_02_1523,BackwardMask,2020.2.8,120.34852936094606,
,f,028_y_f_s_a.jpg,sad,7,13,m,013_y_m_n_a.jpg,neutral,incongruent,8,mismatch,,130,170,,2,126,block1_Pilot_2,28,s_n,s_n_weak,,,,,0,0,0,0,0,23,23,23,,,,,,,,,209.00100859999657,None,210.06088030000683,210.35212669998873,210.35212669998873,210.36860119993798,210.36860119993798,210.40961759991478,210.40961759991478,None,8,1,0.6344370000297204,210.40961759991478,None,211.90953129995614,None,['8'],[0.758496499969624],211.90953129995614,None,,,,,Emoconpilot033,2021_Nov_02_1523,BackwardMask,2020.2.8,120.34852936094606,
,m,004_o_m_h_a.jpg,happy,9,40,f,040_y_f_n_a.jpg,neutral,incongruent,8,mismatch,,120,170,,3,146,block1_Pilot_2,4,h_n,h_n_strong,,,,,0,0,0,0,0,24,24,24,,,,,,,,,214.90954969997983,None,216.15910299995448,216.45253669994418,216.45253669994418,216.4772695999127,216.4772695999127,216.5180000999244,216.5180000999244,None,9,0,0.5662505000364035,216.5180000999244,None,218.01794039993547,None,['7'],[0.3541779000079259],218.01794039993547,None,,,,,Emoconpilot033,2021_Nov_02_1523,BackwardMask,2020.2.8,120.34852936094606,
,m,008_y_m_s_a.jpg,sad,7,30,f,030_o_f_n_a.jpg,neutral,incongruent,8,mismatch,,130,170,,3,132,block1_Pilot_2,8,s_n,s_n_strong,,,,,0,0,0,0,0,25,25,25,,,,,,,,,221.01794309995603,None,222.137229999993,222.42796439991798,222.42796439991798,222.4522095998982,222.4522095998982,222.4932668999536,222.4932668999536,None,7,0,0.6468888999661431,222.4932668999536,None,223.9929876999231,None,['7'],[0.355046599986963],223.9929876999231,None,,,,,Emoconpilot033,2021_Nov_02_1523,BackwardMask,2020.2.8,120.34852936094606,
,f,040_y_f_n_a.jpg,neutral,8,40,f,040_y_f_s_a.jpg,sad,incongruent,7,match,,140,160,,2,123,block1_Pilot_2,40,n_s,n_s_weak,,,,,0,0,0,0,0,26,26,26,,,,,,,,,226.99401869997382,None,228.0373095999239,228.32782109989785,228.32782109989785,228.34396869991906,228.34396869991906,228.3848369999323,228.3848369999323,None,8,0,0.643489700043574,228.3848369999323,None,229.8848527999362,None,['8'],[0.6314218000043184],229.8848527999362,None,,,,,Emoconpilot033,2021_Nov_02_1523,BackwardMask,2020.2.8,120.34852936094606,
,f,028_y_f_s_a.jpg,sad,7,27,m,027_o_m_s_a.jpg,sad,congruent,7,mismatch,,130,160,,3,159,block1_Pilot_2,28,s_s,s_s_weak,,,,,0,0,0,0,0,27,27,27,,,,,,,,,232.8850985999452,None,234.22170999995433,234.51103789999615,234.51103789999615,234.53582859993912,234.53582859993912,234.5766323999269,234.5766323999269,None,7,1,0.6997565000783652,234.5766323999269,None,236.07660269993357,None,['8'],[0.6396352000301704],236.07660269993357,None,,,,,Emoconpilot033,2021_Nov_02_1523,BackwardMask,2020.2.8,120.34852936094606,
,f,012_o_f_s_a.jpg,sad,7,27,m,027_o_m_s_a.jpg,sad,congruent,7,mismatch,,130,160,,18,166,block1_Pilot_2,12,s_s,s_s_weak,,,,,0,0,0,0,0,28,28,28,,,,,,,,,239.07682869990822,None,240.46618659992237,240.76101519993972,240.76101519993972,240.91094239999074,240.91094239999074,240.95181649993174,240.95181649993174,None,7,1,0.508367000031285,240.95181649993174,None,242.4518918999238,None,['7'],[0.38436480006203055],242.4518918999238,None,,,,,Emoconpilot033,2021_Nov_02_1523,BackwardMask,2020.2.8,120.34852936094606,
,f,028_y_f_n_a.jpg,neutral,8,28,f,028_y_f_h_a.jpg,happy,incongruent,9,match,,140,150,,2,186,block1_Pilot_2,28,n_h,n_h_weak,,,,,0,0,0,0,0,29,29,29,,,,,,,,,245.45269509998616,None,247.03016859991476,247.3201722999802,247.3201722999802,247.33598879992496,247.33598879992496,247.37684119993355,247.37684119993355,None,8,0,0.7393444000044838,247.37684119993355,None,248.87691699992865,None,['8'],[0.28731010004412383],248.87691699992865,None,,,,,Emoconpilot033,2021_Nov_02_1523,BackwardMask,2020.2.8,120.34852936094606,
,m,027_o_m_n_a.jpg,neutral,8,16,m,016_y_m_n_a.jpg,neutral,congruent,8,match,,140,170,,2,188,block1_Pilot_2,27,n_n,n_n_weak,,,,,0,0,0,0,0,30,30,30,,,,,,,,,251.87783289991785,None,253.4621568999719,253.7534534999868,253.7534534999868,253.76962709997315,253.76962709997315,253.8104583999375,253.8104583999375,None,None,0,,253.8104583999375,None,255.31074989994522,None,['9'],[0.4295566000510007],255.31074989994522,None,,,,,Emoconpilot033,2021_Nov_02_1523,BackwardMask,2020.2.8,120.34852936094606,
,f,012_o_f_s_a.jpg,sad,7,13,m,013_y_m_n_a.jpg,neutral,incongruent,8,mismatch,,130,170,,3,162,block1_Pilot_2,12,s_n,s_n_strong,,,,,0,0,0,0,0,31,31,31,,,,,,,,,258.31054310000036,None,259.66447709989734,259.96132829994895,259.96132829994895,259.9863412999548,259.9863412999548,260.02716739999596,260.02716739999596,None,7,0,0.8811260999646038,260.02716739999596,None,261.52724219998345,None,['8'],[0.3410716999787837],261.52724219998345,None,,,,,Emoconpilot033,2021_Nov_02_1523,BackwardMask,2020.2.8,120.34852936094606,
,f,012_o_f_s_a.jpg,sad,7,16,m,016_y_m_h_a.jpg,happy,incongruent,9,mismatch,,130,150,,1,238,block1_Pilot_2,12,s_h,s_h_strong,,,,,0,0,0,0,0,32,32,32,,,,,,,,,264.5280042999657,None,266.5135439999867,266.81157099991105,266.81157099991105,266.8197439999785,266.8197439999785,266.8605966999894,266.8605966999894,None,None,0,,266.8605966999894,None,268.36067550000735,None,['9'],[0.3796203000238165],268.36067550000735,None,,,,,Emoconpilot033,2021_Nov_02_1523,BackwardMask,2020.2.8,120.34852936094606,
,f,028_y_f_n_a.jpg,neutral,8,21,f,021_o_f_n_a.jpg,neutral,congruent,8,match,,140,170,,3,220,block1_Pilot_2,28,n_n,n_n_weak,,,,,0,0,0,0,0,33,33,33,,,,,,,,,271.3607565999264,None,273.2149665999459,273.5038117999211,273.5038117999211,273.5283677999396,273.5283677999396,273.5691310999682,273.5691310999682,None,8,1,0.7309784999815747,273.5691310999682,None,275.06926219991874,None,['9'],[1.0070262000663206],275.06926219991874,None,,,,,Emoconpilot033,2021_Nov_02_1523,BackwardMask,2020.2.8,120.34852936094606,
,f,040_y_f_h_a.jpg,happy,9,33,m,033_o_m_s_a.jpg,sad,incongruent,7,mismatch,,120,160,,2,194,block1_Pilot_2,40,h_s,h_s_weak,,,,,0,0,0,0,0,34,34,34,,,,,,,,,278.0702096999157,None,279.69375839992426,279.98684859997593,279.98684859997593,280.0032474999316,280.0032474999316,280.04425449995324,280.04425449995324,None,9,0,0.8079556999728084,280.04425449995324,None,281.5443577999249,None,['8'],[0.3797109000151977],281.5443577999249,None,,,,,Emoconpilot033,2021_Nov_02_1523,BackwardMask,2020.2.8,120.34852936094606,
,f,028_y_f_h_a.jpg,happy,9,8,m,008_y_m_n_a.jpg,neutral,incongruent,8,mismatch,,120,170,,3,162,block1_Pilot_2,28,h_n,h_n_weak,,,,,0,0,0,0,0,35,35,35,,,,,,,,,284.5451743999729,None,285.90416579996236,286.19557929993607,286.19557929993607,286.220265599899,286.220265599899,286.26100739999674,286.26100739999674,None,9,0,0.4872062999056652,286.26100739999674,None,287.76119869994,None,['7'],[0.40311339998152107],287.76119869994,None,,,,,Emoconpilot033,2021_Nov_02_1523,BackwardMask,2020.2.8,120.34852936094606,
,m,013_y_m_n_a.jpg,neutral,8,27,m,027_o_m_n_a.jpg,neutral,congruent,8,match,,140,170,,2,126,block1_Pilot_2,13,n_n,n_n_strong,,,,,0,0,0,0,0,36,36,36,,,,,,,,,290.76199669996276,None,291.8496266999282,292.1458512999816,292.1458512999816,292.1621025999775,292.1621025999775,292.2029199999524,292.2029199999524,None,8,1,0.6813621999463066,292.2029199999524,None,293.7029366999632,None,['8'],[0.3812518999911845],293.7029366999632,None,,,,,Emoconpilot033,2021_Nov_02_1523,BackwardMask,2020.2.8,120.34852936094606,
,f,028_y_f_s_a.jpg,sad,7,19,f,019_m_f_n_a.jpg,neutral,incongruent,8,match,,130,170,,2,156,block1_Pilot_2,28,s_n,s_n_strong,,,,,0,0,0,0,0,37,37,37,,,,,,,,,296.703986599925,None,298.01386529998854,298.30403609992936,298.30403609992936,298.3204930999782,298.3204930999782,298.36137579998467,298.36137579998467,None,8,1,0.79492749995552,298.36137579998467,None,299.86146669997834,None,['9'],[0.5586658000247553],299.86146669997834,None,,,,,Emoconpilot033,2021_Nov_02_1523,BackwardMask,2020.2.8,120.34852936094606,
,m,016_y_m_s_a.jpg,sad,7,19,f,019_m_f_n_a.jpg,neutral,incongruent,8,mismatch,,130,170,,3,138,block1_Pilot_2,16,s_n,s_n_weak,,,,,0,0,0,0,0,38,38,38,,,,,,,,,302.8621271000011,None,304.01989459991455,304.31233689992223,304.31233689992223,304.33720819989685,304.33720819989685,304.3780531999655,304.3780531999655,None,7,0,0.6981943999417126,304.3780531999655,None,305.8782026999397,None,['8'],[0.29404229996725917],305.8782026999397,None,,,,,Emoconpilot033,2021_Nov_02_1523,BackwardMask,2020.2.8,120.34852936094606,
,m,033_o_m_s_a.jpg,sad,7,27,m,027_o_m_n_a.jpg,neutral,incongruent,8,match,,130,170,,3,120,block1_Pilot_2,33,s_n,s_n_strong,,,,,0,0,0,0,0,39,39,39,,,,,,,,,308.878894799971,None,309.88579510001,310.1791590999346,310.1791590999346,310.20413909992203,310.20413909992203,310.24488979997113,310.24488979997113,None,8,1,0.8233808999648318,310.24488979997113,None,311.74474999995437,None,['8'],[0.35547970002517104],311.74474999995437,None,,,,,Emoconpilot033,2021_Nov_02_1523,BackwardMask,2020.2.8,120.34852936094606,
,f,040_y_f_s_a.jpg,sad,7,33,m,033_o_m_n_a.jpg,neutral,incongruent,8,mismatch,,130,170,,1,238,block1_Pilot_2,40,s_n,s_n_weak,,,,,0,0,0,0,0,40,40,40,,,,,,,,,314.74597669998184,None,316.73623019992374,317.0292823999189,317.0292823999189,317.037508099922,317.037508099922,317.07834070001263,317.07834070001263,None,None,0,,317.07834070001263,None,318.57833259995095,None,['9'],[0.37801790004596114],318.57833259995095,None,,,,,Emoconpilot033,2021_Nov_02_1523,BackwardMask,2020.2.8,120.34852936094606,
,f,021_o_f_n_a.jpg,neutral,8,19,f,019_m_f_s_a.jpg,sad,incongruent,7,match,,140,160,,1,238,block1_Pilot_2,21,n_s,n_s_strong,,,,,0,0,0,0,0,41,41,41,,,,,,,,,321.57927379989997,None,323.5980898999842,323.8881645000074,323.8881645000074,323.8959047999233,323.8959047999233,323.93672369990963,323.93672369990963,None,None,0,,323.93672369990963,None,325.4368528999621,None,['9'],[0.4234798999968916],325.4368528999621,None,,,,,Emoconpilot033,2021_Nov_02_1523,BackwardMask,2020.2.8,120.34852936094606,
,m,033_o_m_h_a.jpg,happy,9,27,m,027_o_m_h_a.jpg,happy,congruent,9,match,,120,150,,3,134,block1_Pilot_2,33,h_h,h_h_weak,,,,,0,0,0,0,0,42,42,42,,,,,,,,,328.43788330000825,None,329.5615591999376,329.8546555999201,329.8546555999201,329.8793858999852,329.8793858999852,329.9203116999706,329.9203116999706,None,9,1,0.7719629999483004,329.9203116999706,None,331.42032279993873,None,['7'],[0.41587769996840507],331.42032279993873,None,,,,,Emoconpilot033,2021_Nov_02_1523,BackwardMask,2020.2.8,120.34852936094606,
,f,040_y_f_s_a.jpg,sad,7,4,m,004_o_m_h_a.jpg,happy,incongruent,9,mismatch,,130,150,,2,225,block1_Pilot_2,40,s_h,s_h_strong,,,,,0,0,0,0,0,43,43,43,,,,,,,,,334.4214813999133,None,336.30365299992263,336.5964345999528,336.5964345999528,336.61285469995346,336.61285469995346,336.6537992999656,336.6537992999656,None,8,0,0.9824272999539971,336.6537992999656,None,338.1538103999337,None,['8'],[0.4904391000745818],338.1538103999337,None,,,,,Emoconpilot033,2021_Nov_02_1523,BackwardMask,2020.2.8,120.34852936094606,
,m,027_o_m_s_a.jpg,sad,7,21,f,021_o_f_n_a.jpg,neutral,incongruent,8,mismatch,,130,170,,18,238,block1_Pilot_2,27,s_n,s_n_weak,,,,,0,0,0,0,0,44,44,44,,,,,,,,,341.15478390001226,None,343.14482970000245,343.43833529995754,343.43833529995754,343.58791169989854,343.58791169989854,343.628825499909,343.628825499909,None,7,0,0.9273090000497177,343.628825499909,None,345.12893609993625,None,['7'],[0.3312893999973312],345.12893609993625,None,,,,,Emoconpilot033,2021_Nov_02_1523,BackwardMask,2020.2.8,120.34852936094606,
,m,016_y_m_h_a.jpg,happy,9,16,m,016_y_m_n_a.jpg,neutral,incongruent,8,match,,120,170,,3,202,block1_Pilot_2,16,h_n,h_n_weak,,,,,0,0,0,0,0,45,45,45,,,,,,,,,348.1290492999833,None,349.8201054999372,350.1133980999002,350.1133980999002,350.13834159995895,350.13834159995895,350.17891139991116,350.17891139991116,None,9,0,0.5532491999911144,350.17891139991116,None,351.6796824999619,None,['7'],[0.30065260000992566],351.6796824999619,None,,,,,Emoconpilot033,2021_Nov_02_1523,BackwardMask,2020.2.8,120.34852936094606,
,m,033_o_m_h_a.jpg,happy,9,13,m,013_y_m_n_a.jpg,neutral,incongruent,8,match,,120,170,,2,150,block1_Pilot_2,33,h_n,h_n_weak,,,,,0,0,0,0,0,46,46,46,,,,,,,,,354.68023139995057,None,355.9373061999213,356.2302607999882,356.2302607999882,356.24649879999924,356.24649879999924,356.28713819989935,356.28713819989935,None,9,0,0.6689622000558302,356.28713819989935,None,357.787306199898,None,['8'],[0.3290089999791235],357.787306199898,None,,,,,Emoconpilot033,2021_Nov_02_1523,BackwardMask,2020.2.8,120.34852936094606,
,f,012_o_f_n_a.jpg,neutral,8,16,m,016_y_m_n_a.jpg,neutral,congruent,8,mismatch,,140,170,,1,238,block1_Pilot_2,12,n_n,n_n_strong,,,,,0,0,0,0,0,47,47,47,,,,,,,,,360.78776199999265,None,362.8073166999966,363.0974716999335,363.0974716999335,363.10538269998506,363.10538269998506,363.1459075999446,363.1459075999446,None,None,0,,363.1459075999446,None,364.6459678999381,None,['9'],[0.5421647999901325],364.6459678999381,None,,,,,Emoconpilot033,2021_Nov_02_1523,BackwardMask,2020.2.8,120.34852936094606,
,f,040_y_f_n_a.jpg,neutral,8,30,f,030_o_f_h_a.jpg,happy,incongruent,9,match,,140,150,,2,194,block1_Pilot_2,40,n_h,n_h_strong,,,,,0,0,0,0,0,48,48,48,,,,,,,,,367.64697889995296,None,369.28317989991046,369.57252209994476,369.57252209994476,369.5885369000025,369.5885369000025,369.62928100000136,369.62928100000136,None,8,0,0.7029569000005722,369.62928100000136,None,371.1295009999303,None,['8'],[0.39462570007890463],371.1295009999303,None,,,,,Emoconpilot033,2021_Nov_02_1523,BackwardMask,2020.2.8,120.34852936094606,
,m,013_y_m_n_a.jpg,neutral,8,12,f,012_o_f_s_a.jpg,sad,incongruent,7,mismatch,,140,160,,18,238,block1_Pilot_2,13,n_s,n_s_weak,,,,,0,0,0,0,0,49,49,49,,,,,,,,,374.1303183999844,None,376.1401155999629,376.4309212999651,376.4309212999651,376.58044429996517,376.58044429996517,376.6210178999463,376.6210178999463,None,8,0,0.5511275000171736,376.6210178999463,None,378.121244299924,None,['7'],[0.3950808000518009],378.121244299924,None,,,,,Emoconpilot033,2021_Nov_02_1523,BackwardMask,2020.2.8,120.34852936094606,
,f,012_o_f_h_a.jpg,happy,9,12,f,012_o_f_n_a.jpg,neutral,incongruent,8,match,,120,170,,2,125,block1_Pilot_2,12,h_n,h_n_strong,,,,,0,0,0,0,0,50,50,50,,,,,,,,,381.1216344999848,None,382.170456099906,382.4639629999874,382.4639629999874,382.48053169995546,382.48053169995546,382.52127929998096,382.52127929998096,None,9,0,0.498911099974066,382.52127929998096,None,384.0214500000002,None,['7'],[0.2866251999512315],384.0214500000002,None,,,,,Emoconpilot033,2021_Nov_02_1523,BackwardMask,2020.2.8,120.34852936094606,
,m,008_y_m_s_a.jpg,sad,7,19,f,019_m_f_s_a.jpg,sad,congruent,7,mismatch,,130,160,,2,202,block1_Pilot_2,8,s_s,s_s_strong,,,,,0,0,0,0,0,51,51,51,,,,,,,,,387.0215120000066,None,388.7329868999077,389.02294349996373,389.02294349996373,389.03901760000736,389.03901760000736,389.07989769999404,389.07989769999404,None,7,1,0.6924281999235973,389.07989769999404,None,390.57994219998363,None,['7'],[0.6802157999482006],390.57994219998363,None,,,,,Emoconpilot033,2021_Nov_02_1523,BackwardMask,2020.2.8,120.34852936094606,
,f,028_y_f_n_a.jpg,neutral,8,12,f,012_o_f_n_a.jpg,neutral,congruent,8,match,,140,170,,2,214,block1_Pilot_2,28,n_n,n_n_strong,,,,,0,0,0,0,0,52,52,52,,,,,,,,,393.5807307999348,None,395.3854001999134,395.68148729996756,395.68148729996756,395.69742129999213,395.69742129999213,395.7381766999606,395.7381766999606,None,8,1,0.8021150999702513,395.7381766999606,None,397.2382890000008,None,['8'],[0.398010200005956],397.2382890000008,None,,,,,Emoconpilot033,2021_Nov_02_1523,BackwardMask,2020.2.8,120.34852936094606,
,m,027_o_m_h_a.jpg,happy,9,19,f,019_m_f_h_a.jpg,happy,congruent,9,mismatch,,120,150,,3,165,block1_Pilot_2,27,h_h,h_h_strong,,,,,0,0,0,0,0,53,53,53,,,,,,,,,400.2394883999368,None,401.6457596999826,401.93998359993566,401.93998359993566,401.964223899995,401.964223899995,402.0050411999691,402.0050411999691,None,9,1,0.8471910000080243,402.0050411999691,None,403.5052147000097,None,['8'],[0.48302619997411966],403.5052147000097,None,,,,,Emoconpilot033,2021_Nov_02_1523,BackwardMask,2020.2.8,120.34852936094606,
,m,008_y_m_s_a.jpg,sad,7,13,m,013_y_m_h_a.jpg,happy,incongruent,9,match,,130,150,,18,200,block1_Pilot_2,8,s_h,s_h_strong,,,,,0,0,0,0,0,54,54,54,,,,,,,,,406.5059917999897,None,408.19325239991304,408.48981609998737,408.48981609998737,408.6395134999184,408.6395134999184,408.68034640001133,408.68034640001133,None,7,0,0.5718429998960346,408.68034640001133,None,410.1803047999274,None,['7'],[0.3359773000702262],410.1803047999274,None,,,,,Emoconpilot033,2021_Nov_02_1523,BackwardMask,2020.2.8,120.34852936094606,
,f,030_o_f_n_a.jpg,neutral,8,28,f,028_y_f_s_a.jpg,sad,incongruent,7,match,,140,160,,18,238,block1_Pilot_2,30,n_s,n_s_weak,,,,,0,0,0,0,0,55,55,55,,,,,,,,,413.1811585999094,None,415.1837988999905,415.4734408999793,415.4734408999793,415.6229304999579,415.6229304999579,415.6636609999696,415.6636609999696,None,8,0,0.7083883000304922,415.6636609999696,None,417.16413009993266,None,['7'],[0.456160300062038],417.16413009993266,None,,,,,Emoconpilot033,2021_Nov_02_1523,BackwardMask,2020.2.8,120.34852936094606,
,f,019_m_f_h_a.jpg,happy,9,27,m,027_o_m_h_a.jpg,happy,congruent,9,mismatch,,120,150,,1,238,block1_Pilot_2,19,h_h,h_h_strong,,,,,0,0,0,0,0,56,56,56,,,,,,,,,420.1637896999018,None,422.15515979996417,422.4482104999479,422.4482104999479,422.45643579994794,422.45643579994794,422.49717329989653,422.49717329989653,None,None,0,,422.49717329989653,None,423.9971710999962,None,['9'],[0.351131199975498],423.9971710999962,None,,,,,Emoconpilot033,2021_Nov_02_1523,BackwardMask,2020.2.8,120.34852936094606,
,m,004_o_m_s_a.jpg,sad,7,4,m,004_o_m_h_a.jpg,happy,incongruent,9,match,,130,150,,18,155,block1_Pilot_2,4,s_h,s_h_weak,,,,,0,0,0,0,0,57,57,57,,,,,,,,,426.9988081000047,None,428.29725909989793,428.59002389991656,428.59002389991656,428.73994679993484,428.73994679993484,428.7806918999413,428.7806918999413,None,7,0,0.5914936000481248,428.7806918999413,None,430.2806276999181,None,['7'],[0.33957640000153333],430.2806276999181,None,,,,,Emoconpilot033,2021_Nov_02_1523,BackwardMask,2020.2.8,120.34852936094606,
,f,021_o_f_s_a.jpg,sad,7,27,m,027_o_m_n_a.jpg,neutral,incongruent,8,mismatch,,130,170,,3,224,block1_Pilot_2,21,s_n,s_n_weak,,,,,0,0,0,0,0,58,58,58,,,,,,,,,433.2807629999006,None,435.1539842999773,435.4481944999425,435.4481944999425,435.47320799995214,435.47320799995214,435.51388779992703,435.51388779992703,None,7,0,0.7781186000211164,435.51388779992703,None,437.0140715999296,None,['7'],[0.31822760007344186],437.0140715999296,None,,,,,Emoconpilot033,2021_Nov_02_1523,BackwardMask,2020.2.8,120.34852936094606,
,f,021_o_f_h_a.jpg,happy,9,27,m,027_o_m_n_a.jpg,neutral,incongruent,8,mismatch,,120,170,,2,147,block1_Pilot_2,21,h_n,h_n_strong,,,,,0,0,0,0,0,59,59,59,,,,,,,,,440.014277099981,None,441.26905529992655,441.56575899990276,441.56575899990276,441.5817861999385,441.5817861999385,441.62253699998837,441.62253699998837,None,9,0,0.6535680999513716,441.62253699998837,None,443.1226188999135,None,['7'],[0.34569079999346286],443.1226188999135,None,,,,,Emoconpilot033,2021_Nov_02_1523,BackwardMask,2020.2.8,120.34852936094606,
,f,040_y_f_n_a.jpg,neutral,8,13,m,013_y_m_h_a.jpg,happy,incongruent,9,mismatch,,140,150,,3,237,block1_Pilot_2,40,n_h,n_h_strong,,,,,0,0,0,0,0,60,60,60,,,,,,,,,446.123488000012,None,448.11845179996453,448.40742989990395,448.40742989990395,448.4318627999164,448.4318627999164,448.4727500999579,448.4727500999579,None,8,0,0.6595205999910831,448.4727500999579,None,449.97272929991595,None,['8'],[0.8554748999886215],449.97272929991595,None,,,,,Emoconpilot033,2021_Nov_02_1523,BackwardMask,2020.2.8,120.34852936094606,
,m,027_o_m_n_a.jpg,neutral,8,19,f,019_m_f_h_a.jpg,happy,incongruent,9,mismatch,,140,150,,3,199,block1_Pilot_2,27,n_h,n_h_strong,,,,,0,0,0,0,0,61,61,61,,,,,,,,,452.9735627999762,None,454.6512699999148,454.9409973999718,454.9409973999718,454.96529299998656,454.96529299998656,455.00631510000676,455.00631510000676,None,8,0,0.6059596999548376,455.00631510000676,None,456.5062484999653,None,['8'],[0.306038900045678],456.5062484999653,None,,,,,Emoconpilot033,2021_Nov_02_1523,BackwardMask,2020.2.8,120.34852936094606,
,m,027_o_m_h_a.jpg,happy,9,21,f,021_o_f_s_a.jpg,sad,incongruent,7,mismatch,,120,160,,2,169,block1_Pilot_2,27,h_s,h_s_strong,,,,,0,0,0,0,0,62,62,62,,,,,,,,,459.50701419997495,None,460.93407429999206,461.22451969992835,461.22451969992835,461.2403980999952,461.2403980999952,461.28112129995134,461.28112129995134,None,9,0,0.6830613999627531,461.28112129995134,None,462.78129279997665,None,['8'],[0.3029815999325365],462.78129279997665,None,,,,,Emoconpilot033,2021_Nov_02_1523,BackwardMask,2020.2.8,120.34852936094606,
,m,013_y_m_n_a.jpg,neutral,8,33,m,033_o_m_h_a.jpg,happy,incongruent,9,match,,140,150,,18,238,block1_Pilot_2,13,n_h,n_h_strong,,,,,0,0,0,0,0,63,63,63,,,,,,,,,465.7819735999219,None,467.7850519999629,468.07440509996377,468.07440509996377,468.22398749995045,468.22398749995045,468.26483779994305,468.26483779994305,None,8,0,0.3713989000534639,468.26483779994305,None,469.76480879995506,None,['7'],[0.463418300030753],469.76480879995506,None,,,,,Emoconpilot033,2021_Nov_02_1523,BackwardMask,2020.2.8,120.34852936094606,
,m,033_o_m_n_a.jpg,neutral,8,30,f,030_o_f_s_a.jpg,sad,incongruent,7,mismatch,,140,160,,1,238,block1_Pilot_2,33,n_s,n_s_weak,,,,,0,0,0,0,0,64,64,64,,,,,,,,,472.7650883999886,None,474.76817379996646,475.05806399998255,475.05806399998255,475.06565349991433,475.06565349991433,475.10662669991143,475.10662669991143,None,None,0,,475.10662669991143,None,476.6065615999978,None,['9'],[0.3737385000567883],476.6065615999978,None,,,,,Emoconpilot033,2021_Nov_02_1523,BackwardMask,2020.2.8,120.34852936094606,
,m,033_o_m_s_a.jpg,sad,7,4,m,004_o_m_s_a.jpg,sad,congruent,7,match,,130,160,,18,146,block1_Pilot_2,33,s_s,s_s_weak,,,,,0,0,0,0,0,65,65,65,,,,,,,,,479.60780959995463,None,480.83148469997104,481.1246240999317,481.1246240999317,481.27421740000136,481.27421740000136,481.3150460999459,481.3150460999459,None,8,0,0.44126210000831634,481.3150460999459,None,482.8152331999736,None,['7'],[0.41289379994850606],482.8152331999736,None,,,,,Emoconpilot033,2021_Nov_02_1523,BackwardMask,2020.2.8,120.34852936094606,
,m,016_y_m_s_a.jpg,sad,7,28,f,028_y_f_h_a.jpg,happy,incongruent,9,mismatch,,130,150,,18,238,block1_Pilot_2,16,s_h,s_h_strong,,,,,0,0,0,0,0,66,66,66,,,,,,,,,485.8166413999861,None,487.8065627999604,488.0995373999467,488.0995373999467,488.2493145999033,488.2493145999033,488.29026229993906,488.29026229993906,None,7,0,0.4820324999745935,488.29026229993906,None,489.7903208999196,None,['7'],[0.30191839998587966],489.7903208999196,None,,,,,Emoconpilot033,2021_Nov_02_1523,BackwardMask,2020.2.8,120.34852936094606,
,f,030_o_f_h_a.jpg,happy,9,28,f,028_y_f_h_a.jpg,happy,congruent,9,match,,120,150,,3,234,block1_Pilot_2,30,h_h,h_h_weak,,,,,0,0,0,0,0,67,67,67,,,,,,,,,492.79102939995937,None,494.776478499989,495.06679399998393,495.06679399998393,495.0912731999997,495.0912731999997,495.13214379991405,495.13214379991405,None,9,1,0.4879658001009375,495.13214379991405,None,496.6320187000092,None,['7'],[0.28420899994671345],496.6320187000092,None,,,,,Emoconpilot033,2021_Nov_02_1523,BackwardMask,2020.2.8,120.34852936094606,
,m,013_y_m_h_a.jpg,happy,9,4,m,004_o_m_h_a.jpg,happy,congruent,9,match,,120,150,,2,141,block1_Pilot_2,13,h_h,h_h_strong,,,,,0,0,0,0,0,68,68,68,,,,,,,,,499.6321604999248,None,500.82718649995513,501.11689879989717,501.11689879989717,501.13286819995847,501.13286819995847,501.17363499989733,501.17363499989733,None,9,1,0.8624708999413997,501.17363499989733,None,502.6736899999669,None,['8'],[0.354412000044249],502.6736899999669,None,,,,,Emoconpilot033,2021_Nov_02_1523,BackwardMask,2020.2.8,120.34852936094606,
,f,028_y_f_s_a.jpg,sad,7,8,m,008_y_m_s_a.jpg,sad,congruent,7,mismatch,,130,160,,1,238,block1_Pilot_2,28,s_s,s_s_strong,,,,,0,0,0,0,0,69,69,69,,,,,,,,,505.67495649994817,None,507.6692470998969,507.9582821999211,507.9582821999211,507.96637809998356,507.96637809998356,508.0072227999335,508.0072227999335,None,None,0,,508.0072227999335,None,509.50711479992606,None,['9'],[0.36115909996442497],509.50711479992606,None,,,,,Emoconpilot033,2021_Nov_02_1523,BackwardMask,2020.2.8,120.34852936094606,
,f,028_y_f_s_a.jpg,sad,7,30,f,030_o_f_h_a.jpg,happy,incongruent,9,match,,130,150,,2,199,block1_Pilot_2,28,s_h,s_h_weak,,,,,0,0,0,0,0,70,70,70,,,,,,,,,512.5087978999363,None,514.1764729999704,514.4667452999856,514.4667452999856,514.4834023999283,514.4834023999283,514.5240572999464,514.5240572999464,None,8,0,0.640291600022465,514.5240572999464,None,516.0241072999779,None,['8'],[0.2601861999137327],516.0241072999779,None,,,,,Emoconpilot033,2021_Nov_02_1523,BackwardMask,2020.2.8,120.34852936094606,
,m,008_y_m_h_a.jpg,happy,9,21,f,021_o_f_n_a.jpg,neutral,incongruent,8,mismatch,,120,170,,2,137,block1_Pilot_2,8,h_n,h_n_weak,,,,,0,0,0,0,0,71,71,71,,,,,,,,,519.0242713999469,None,520.1744473999133,520.466708999942,520.466708999942,520.4835785999894,520.4835785999894,520.5241561000003,520.5241561000003,None,9,0,0.6879902000073344,520.5241561000003,None,522.0241461999249,None,['8'],[0.30013139999937266],522.0241461999249,None,,,,,Emoconpilot033,2021_Nov_02_1523,BackwardMask,2020.2.8,120.34852936094606,
,f,012_o_f_n_a.jpg,neutral,8,8,m,008_y_m_s_a.jpg,sad,incongruent,7,mismatch,,140,160,,2,208,block1_Pilot_2,12,n_s,n_s_weak,,,,,0,0,0,0,0,72,72,72,,,,,,,,,525.0242892999668,None,526.8086473000003,527.100885599968,527.100885599968,527.1168525000103,527.1168525000103,527.1575389999198,527.1575389999198,None,8,0,0.8147603999823332,527.1575389999198,None,528.6576716999989,None,['8'],[0.3145546999294311],528.6576716999989,None,,,,,Emoconpilot033,2021_Nov_02_1523,BackwardMask,2020.2.8,120.34852936094606,
,m,016_y_m_n_a.jpg,neutral,8,8,m,008_y_m_n_a.jpg,neutral,congruent,8,match,,140,170,,3,211,block1_Pilot_2,16,n_n,n_n_strong,,,,,0,0,0,0,0,73,73,73,,,,,,,,,531.6586297999602,None,533.4368107999908,533.7257819999941,533.7257819999941,533.7503222000087,533.7503222000087,533.7911667999579,533.7911667999579,None,8,1,0.5571197000099346,533.7911667999579,None,535.2913260000059,None,['7'],[0.9048617000225931],535.2913260000059,None,,,,,Emoconpilot033,2021_Nov_02_1523,BackwardMask,2020.2.8,120.34852936094606,
,m,016_y_m_h_a.jpg,happy,9,13,m,013_y_m_s_a.jpg,sad,incongruent,7,match,,120,160,,3,138,block1_Pilot_2,16,h_s,h_s_weak,,,,,0,0,0,0,0,74,74,74,,,,,,,,,538.29122429993,None,539.4502558999229,539.7423305999255,539.7423305999255,539.767086799955,539.767086799955,539.8078926999588,539.8078926999588,None,9,0,0.4765017000027001,539.8078926999588,None,541.3084649000084,None,['7'],[0.3197939000092447],541.3084649000084,None,,,,,Emoconpilot033,2021_Nov_02_1523,BackwardMask,2020.2.8,120.34852936094606,
,m,016_y_m_n_a.jpg,neutral,8,19,f,019_m_f_s_a.jpg,sad,incongruent,7,mismatch,,140,160,,2,185,block1_Pilot_2,16,n_s,n_s_strong,,,,,0,0,0,0,0,75,75,75,,,,,,,,,544.3079718999797,None,545.8714699998964,546.1677573999623,546.1677573999623,546.1839957999764,546.1839957999764,546.2246447999496,546.2246447999496,None,8,0,0.5237160000251606,546.2246447999496,None,547.7245109999785,None,['8'],[0.3118276000022888],547.7245109999785,None,,,,,Emoconpilot033,2021_Nov_02_1523,BackwardMask,2020.2.8,120.34852936094606,
,m,027_o_m_s_a.jpg,sad,7,8,m,008_y_m_s_a.jpg,sad,congruent,7,match,,130,160,,1,238,block1_Pilot_2,27,s_s,s_s_strong,,,,,0,0,0,0,0,76,76,76,,,,,,,,,550.7263938999968,None,552.7161031999858,553.0092075999128,553.0092075999128,553.0171893999213,553.0171893999213,553.0580907999538,553.0580907999538,None,None,0,,553.0580907999538,None,554.5580969000002,None,['9'],[0.39017059991601855],554.5580969000002,None,,,,,Emoconpilot033,2021_Nov_02_1523,BackwardMask,2020.2.8,120.34852936094606,
,f,019_m_f_n_a.jpg,neutral,8,27,m,027_o_m_n_a.jpg,neutral,congruent,8,mismatch,,140,170,,3,186,block1_Pilot_2,19,n_n,n_n_strong,,,,,0,0,0,0,0,77,77,77,,,,,,,,,557.5583760999143,None,559.1536980000092,559.4431502999505,559.4431502999505,559.4674897999503,559.4674897999503,559.5083251999458,559.5083251999458,None,8,1,0.6159836000297219,559.5083251999458,None,561.0088907999452,None,['7'],[0.3873395000118762],561.0088907999452,None,,,,,Emoconpilot033,2021_Nov_02_1523,BackwardMask,2020.2.8,120.34852936094606,
,m,004_o_m_s_a.jpg,sad,7,12,f,012_o_f_s_a.jpg,sad,congruent,7,mismatch,,130,160,,1,238,block1_Pilot_2,4,s_s,s_s_strong,,,,,0,0,0,0,0,78,78,78,,,,,,,,,564.0092574999435,None,565.9999423999107,566.2927052999148,566.2927052999148,566.3009283998981,566.3009283998981,566.3420014999574,566.3420014999574,None,None,0,,566.3420014999574,None,567.8417832999257,None,['9'],[0.3944632000057027],567.8417832999257,None,,,,,Emoconpilot033,2021_Nov_02_1523,BackwardMask,2020.2.8,120.34852936094606,
,f,019_m_f_n_a.jpg,neutral,8,13,m,013_y_m_s_a.jpg,sad,incongruent,7,mismatch,,140,160,,3,207,block1_Pilot_2,19,n_s,n_s_strong,,,,,0,0,0,0,0,79,79,79,,,,,,,,,570.8421133999946,None,572.5882253999589,572.8849989000009,572.8849989000009,572.9094187999144,572.9094187999144,572.9501005999045,572.9501005999045,None,8,0,0.47004680009558797,572.9501005999045,None,574.4501899000024,None,['8'],[0.7540947999805212],574.4501899000024,None,,,,,Emoconpilot033,2021_Nov_02_1523,BackwardMask,2020.2.8,120.34852936094606,
,m,027_o_m_h_a.jpg,happy,9,33,m,033_o_m_h_a.jpg,happy,congruent,9,match,,120,150,,1,238,block1_Pilot_2,27,h_h,h_h_strong,,,,,0,0,0,0,0,80,80,80,,,,,,,,,577.4504722999409,None,579.4539315999718,579.7434716999996,579.7434716999996,579.751305499929,579.751305499929,579.7920970999403,579.7920970999403,None,None,0,,579.7920970999403,None,581.2920251999749,None,['9'],[0.27227119996678084],581.2920251999749,None,,,,,Emoconpilot033,2021_Nov_02_1523,BackwardMask,2020.2.8,120.34852936094606,
,m,027_o_m_h_a.jpg,happy,9,21,f,021_o_f_s_a.jpg,sad,incongruent,7,mismatch,,120,160,,1,238,block1_Pilot_2,27,h_s,h_s_weak,,,,,0,0,0,0,0,81,81,81,,,,,,,,,584.2928041999694,None,586.2947922999738,586.5852749999613,586.5852749999613,586.5931363999844,586.5931363999844,586.6339804999297,586.6339804999297,None,None,0,,586.6339804999297,None,588.1340752999531,None,['9'],[0.35817090002819896],588.1340752999531,None,,,,,Emoconpilot033,2021_Nov_02_1523,BackwardMask,2020.2.8,120.34852936094606,
,m,033_o_m_s_a.jpg,sad,7,40,f,040_y_f_n_a.jpg,neutral,incongruent,8,mismatch,,130,170,,3,146,block1_Pilot_2,33,s_n,s_n_weak,,,,,0,0,0,0,0,82,82,82,,,,,,,,,591.1350176999113,None,592.3584624999203,592.6516917999834,592.6516917999834,592.6763864000095,592.6763864000095,592.7174376999028,592.7174376999028,None,8,1,1.0229099000571296,592.7174376999028,None,594.2173836999573,None,['8'],[0.49888329999521375],594.2173836999573,None,,,,,Emoconpilot033,2021_Nov_02_1523,BackwardMask,2020.2.8,120.34852936094606,
,m,008_y_m_h_a.jpg,happy,9,4,m,004_o_m_s_a.jpg,sad,incongruent,7,match,,120,160,,2,225,block1_Pilot_2,8,h_s,h_s_weak,,,,,0,0,0,0,0,83,83,83,,,,,,,,,597.2172282999381,None,599.100535399979,599.3935125999851,599.3935125999851,599.4100035999436,599.4100035999436,599.4508226999315,599.4508226999315,None,9,0,0.6014851999934763,599.4508226999315,None,600.9507774999365,None,['7'],[0.31732769997324795],600.9507774999365,None,,,,,Emoconpilot033,2021_Nov_02_1523,BackwardMask,2020.2.8,120.34852936094606,
,f,012_o_f_n_a.jpg,neutral,8,4,m,004_o_m_s_a.jpg,sad,incongruent,7,mismatch,,140,160,,3,150,block1_Pilot_2,12,n_s,n_s_strong,,,,,0,0,0,0,0,84,84,84,,,,,,,,,603.9518576000119,None,605.2231600999366,605.5191950999433,605.5191950999433,605.5434682999039,605.5434682999039,605.5841561999405,605.5841561999405,None,8,0,0.652161999954842,605.5841561999405,None,607.0842896999093,None,['8'],[0.34387980005703866],607.0842896999093,None,,,,,Emoconpilot033,2021_Nov_02_1523,BackwardMask,2020.2.8,120.34852936094606,
,f,021_o_f_s_a.jpg,sad,7,40,f,040_y_f_n_a.jpg,neutral,incongruent,8,match,,130,170,,2,156,block1_Pilot_2,21,s_n,s_n_strong,,,,,0,0,0,0,0,85,85,85,,,,,,,,,610.0846289999317,None,611.3903485999908,611.6854187999852,611.6854187999852,611.7019170999993,611.7019170999993,611.7427068999968,611.7427068999968,None,8,1,0.8614351999713108,611.7427068999968,None,613.2428745999932,None,['8'],[0.4174449999118224],613.2428745999932,None,,,,,Emoconpilot033,2021_Nov_02_1523,BackwardMask,2020.2.8,120.34852936094606,
,m,004_o_m_n_a.jpg,neutral,8,13,m,013_y_m_n_a.jpg,neutral,congruent,8,match,,140,170,,2,225,block1_Pilot_2,4,n_n,n_n_strong,,,,,0,0,0,0,0,86,86,86,,,,,,,,,616.2431198999984,None,618.1389376999578,618.4276939999545,618.4276939999545,618.4436027999036,618.4436027999036,618.484549799934,618.484549799934,None,None,0,,618.484549799934,None,619.9845357999438,None,['9'],[0.35567990003619343],619.9845357999438,None,,,,,Emoconpilot033,2021_Nov_02_1523,BackwardMask,2020.2.8,120.34852936094606,
,m,016_y_m_n_a.jpg,neutral,8,16,m,016_y_m_h_a.jpg,happy,incongruent,9,match,,140,150,,18,193,block1_Pilot_2,16,n_h,n_h_strong,,,,,0,0,0,0,0,87,87,87,,,,,,,,,622.9848377999151,None,624.6126098999521,624.9027284999611,624.9027284999611,625.0522177999374,625.0522177999374,625.0929296999238,625.0929296999238,None,8,0,0.41547840007115155,625.0929296999238,None,626.5930851999437,None,['7'],[0.507148600067012],626.5930851999437,None,,,,,Emoconpilot033,2021_Nov_02_1523,BackwardMask,2020.2.8,120.34852936094606,
,m,033_o_m_h_a.jpg,happy,9,4,m,004_o_m_h_a.jpg,happy,congruent,9,match,,120,150,,2,195,block1_Pilot_2,33,h_h,h_h_strong,,,,,0,0,0,0,0,88,88,88,,,,,,,,,629.5939549999312,None,631.2256313000107,631.5191454999149,631.5191454999149,631.535661199945,631.535661199945,631.5765488999896,631.5765488999896,None,9,1,0.6677128999726847,631.5765488999896,None,633.0765011999756,None,['8'],[0.3515627000015229],633.0765011999756,None,,,,,Emoconpilot033,2021_Nov_02_1523,BackwardMask,2020.2.8,120.34852936094606,
,m,027_o_m_h_a.jpg,happy,9,16,m,016_y_m_h_a.jpg,happy,congruent,9,match,,120,150,,3,209,block1_Pilot_2,27,h_h,h_h_weak,,,,,0,0,0,0,0,89,89,89,,,,,,,,,636.0764004999073,None,637.8634659999516,638.1528285999084,638.1528285999084,638.1772468999261,638.1772468999261,638.217894100002,638.217894100002,None,9,1,0.5222935000201687,638.217894100002,None,639.7183414999163,None,['8'],[0.33369220001623034],639.7183414999163,None,,,,,Emoconpilot033,2021_Nov_02_1523,BackwardMask,2020.2.8,120.34852936094606,
,m,033_o_m_s_a.jpg,sad,7,16,m,016_y_m_s_a.jpg,sad,congruent,7,match,,130,160,,3,128,block1_Pilot_2,33,s_s,s_s_strong,,,,,0,0,0,0,0,90,90,90,,,,,,,,,642.7181986999931,None,643.7946237999713,644.0862794999266,644.0862794999266,644.1107392999111,644.1107392999111,644.1513065999607,644.1513065999607,None,8,0,0.5728869000449777,644.1513065999607,None,645.6514898999594,None,['7'],[0.9525146000087261],645.6514898999594,None,,,,,Emoconpilot033,2021_Nov_02_1523,BackwardMask,2020.2.8,120.34852936094606,
,f,021_o_f_s_a.jpg,sad,7,30,f,030_o_f_s_a.jpg,sad,congruent,7,match,,130,160,,1,238,block1_Pilot_2,21,s_s,s_s_strong,,,,,0,0,0,0,0,91,91,91,,,,,,,,,648.6517767999321,None,650.640341799939,650.9358972999034,650.9358972999034,650.9440993999597,650.9440993999597,650.9846965000033,650.9846965000033,None,None,0,,650.9846965000033,None,652.4848418999463,None,['9'],[0.3914139000698924],652.4848418999463,None,,,,,Emoconpilot033,2021_Nov_02_1523,BackwardMask,2020.2.8,120.34852936094606,
,m,033_o_m_n_a.jpg,neutral,8,28,f,028_y_f_s_a.jpg,sad,incongruent,7,mismatch,,140,160,,18,166,block1_Pilot_2,33,n_s,n_s_strong,,,,,0,0,0,0,0,92,92,92,,,,,,,,,655.485012399964,None,656.9251602999866,657.2199494999368,657.2199494999368,657.369434799999,657.369434799999,657.4098449999001,657.4098449999001,None,8,0,0.4422202999703586,657.4098449999001,None,658.9101761999773,None,['7'],[0.40606469998601824],658.9101761999773,None,,,,,Emoconpilot033,2021_Nov_02_1523,BackwardMask,2020.2.8,120.34852936094606,
,f,019_m_f_n_a.jpg,neutral,8,30,f,030_o_f_n_a.jpg,neutral,congruent,8,match,,140,170,,18,228,block1_Pilot_2,19,n_n,n_n_weak,,,,,0,0,0,0,0,93,93,93,,,,,,,,,661.9102519999724,None,663.8294628999429,664.1199395000003,664.1199395000003,664.2692830999149,664.2692830999149,664.3100359999808,664.3100359999808,None,8,1,0.39012929995078593,664.3100359999808,None,665.8112139999866,None,['7'],[0.3209326999494806],665.8112139999866,None,,,,,Emoconpilot033,2021_Nov_02_1523,BackwardMask,2020.2.8,120.34852936094606,
,m,008_y_m_s_a.jpg,sad,7,12,f,012_o_f_h_a.jpg,happy,incongruent,9,mismatch,,130,150,,3,130,block1_Pilot_2,8,s_h,s_h_weak,,,,,0,0,0,0,0,94,94,94,,,,,,,,,668.810373699991,None,669.913226799923,670.203612399986,670.203612399986,670.2281381000066,670.2281381000066,670.2689446998993,670.2689446998993,None,7,0,0.767402199911885,670.2689446998993,None,671.76897799992,None,['7'],[0.2993680000072345],671.76897799992,None,,,,,Emoconpilot033,2021_Nov_02_1523,BackwardMask,2020.2.8,120.34852936094606,
,m,016_y_m_n_a.jpg,neutral,8,28,f,028_y_f_n_a.jpg,neutral,congruent,8,mismatch,,140,170,,18,189,block1_Pilot_2,16,n_n,n_n_strong,,,,,0,0,0,0,0,95,95,95,,,,,,,,,674.7700692999642,None,676.3637268999591,676.6536632999778,676.6536632999778,676.8034008999821,676.8034008999821,676.8440771999303,676.8440771999303,None,8,1,0.3682488000486046,676.8440771999303,None,678.3442630999489,None,['7'],[0.30801989999599755],678.3442630999489,None,,,,,Emoconpilot033,2021_Nov_02_1523,BackwardMask,2020.2.8,120.34852936094606,
,f,012_o_f_s_a.jpg,sad,7,16,m,016_y_m_h_a.jpg,happy,incongruent,9,mismatch,,130,150,,3,238,block1_Pilot_2,12,s_h,s_h_strong,,,,,0,0,0,0,0,96,96,96,,,,,,,,,681.3448217000114,None,683.3318266998976,683.6283891999628,683.6283891999628,683.6532523999922,683.6532523999922,683.6942266999977,683.6942266999977,None,7,0,0.7499935999512672,683.6942266999977,None,685.1941286999499,None,['8'],[0.39409139996860176],685.1941286999499,None,,,,,Emoconpilot033,2021_Nov_02_1523,BackwardMask,2020.2.8,120.34852936094606,
,m,013_y_m_h_a.jpg,happy,9,27,m,027_o_m_h_a.jpg,happy,congruent,9,match,,120,150,,18,238,block1_Pilot_2,13,h_h,h_h_strong,,,,,0,0,0,0,0,97,97,97,,,,,,,,,688.1944758999161,None,690.1978902999545,690.4875370999798,690.4875370999798,690.6372363999253,690.6372363999253,690.6777264999691,690.6777264999691,None,9,1,0.38259469997137785,690.6777264999691,None,692.1777048999211,None,['7'],[0.35473450005520135],692.1777048999211,None,,,,,Emoconpilot033,2021_Nov_02_1523,BackwardMask,2020.2.8,120.34852936094606,
,m,016_y_m_s_a.jpg,sad,7,33,m,033_o_m_n_a.jpg,neutral,incongruent,8,match,,130,170,,1,238,block1_Pilot_2,16,s_n,s_n_weak,,,,,0,0,0,0,0,98,98,98,,,,,,,,,695.1779738999903,None,697.1691306999419,697.4622012999607,697.4622012999607,697.4703347999603,697.4703347999603,697.5110601999331,697.5110601999331,None,None,0,,697.5110601999331,None,699.0113420999842,None,['9'],[0.5287641999311745],699.0113420999842,None,,,,,Emoconpilot033,2021_Nov_02_1523,BackwardMask,2020.2.8,120.34852936094606,
,m,008_y_m_n_a.jpg,neutral,8,30,f,030_o_f_n_a.jpg,neutral,congruent,8,mismatch,,140,170,,1,238,block1_Pilot_2,8,n_n,n_n_weak,,,,,0,0,0,0,0,99,99,99,,,,,,,,,702.0127907999558,None,704.0184093998978,704.3127994999522,704.3127994999522,704.3204583999468,704.3204583999468,704.3614412999013,704.3614412999013,None,None,0,,704.3614412999013,None,705.8613313999958,None,['9'],[0.49499159993138164],705.8613313999958,None,,,,,Emoconpilot033,2021_Nov_02_1523,BackwardMask,2020.2.8,120.34852936094606,
,m,008_y_m_s_a.jpg,sad,7,30,f,030_o_f_s_a.jpg,sad,congruent,7,mismatch,,130,160,,2,133,block1_Pilot_2,8,s_s,s_s_weak,,,,,0,0,0,0,0,100,100,100,,,,,,,,,708.8623250999954,None,709.9891710999655,710.2796136999968,710.2796136999968,710.2956280999351,710.2956280999351,710.3364578000037,710.3364578000037,None,None,0,,710.3364578000037,None,711.8364116000012,None,['9'],[0.3759165999945253],711.8364116000012,None,,,,,Emoconpilot033,2021_Nov_02_1523,BackwardMask,2020.2.8,120.34852936094606,
,f,040_y_f_n_a.jpg,neutral,8,30,f,030_o_f_s_a.jpg,sad,incongruent,7,match,,140,160,,3,197,block1_Pilot_2,40,n_s,n_s_strong,,,,,0,0,0,0,0,101,101,101,,,,,,,,,714.8372682000045,None,716.4972829999169,716.78803159995,716.78803159995,716.8124412999023,716.8124412999023,716.8531587999314,716.8531587999314,None,8,0,0.66301670006942,716.8531587999314,None,718.3531690000091,None,['8'],[0.3071961000096053],718.3531690000091,None,,,,,Emoconpilot033,2021_Nov_02_1523,BackwardMask,2020.2.8,120.34852936094606,
,m,004_o_m_h_a.jpg,happy,9,30,f,030_o_f_s_a.jpg,sad,incongruent,7,mismatch,,120,160,,3,121,block1_Pilot_2,4,h_s,h_s_strong,,,,,0,0,0,0,0,102,102,102,,,,,,,,,721.3533752999501,None,722.3809530999279,722.671453399933,722.671453399933,722.6956689999206,722.6956689999206,722.7367522999411,722.7367522999411,None,9,0,0.5075788999674842,722.7367522999411,None,724.2367151000071,None,['7'],[0.4235266998875886],724.2367151000071,None,,,,,Emoconpilot033,2021_Nov_02_1523,BackwardMask,2020.2.8,120.34852936094606,
,f,040_y_f_h_a.jpg,happy,9,8,m,008_y_m_h_a.jpg,happy,congruent,9,mismatch,,120,150,,18,211,block1_Pilot_2,40,h_h,h_h_weak,,,,,0,0,0,0,0,103,103,103,,,,,,,,,727.2378565999679,None,729.0034131999128,729.2963042999618,729.2963042999618,729.446161699947,729.446161699947,729.4868889999343,729.4868889999343,None,9,1,0.38143159996252507,729.4868889999343,None,730.986768099945,None,['7'],[0.3453387999907136],730.986768099945,None,,,,,Emoconpilot033,2021_Nov_02_1523,BackwardMask,2020.2.8,120.34852936094606,
,f,019_m_f_s_a.jpg,sad,7,16,m,016_y_m_n_a.jpg,neutral,incongruent,8,mismatch,,130,170,,2,198,block1_Pilot_2,19,s_n,s_n_strong,,,,,0,0,0,0,0,104,104,104,,,,,,,,,733.9872093999293,None,735.662972799968,735.9552218999015,735.9552218999015,735.9712387999753,735.9712387999753,736.0120785000036,736.0120785000036,None,8,1,0.8642524000024423,736.0120785000036,None,737.5119593999116,None,['8'],[0.3881548000499606],737.5119593999116,None,,,,,Emoconpilot033,2021_Nov_02_1523,BackwardMask,2020.2.8,120.34852936094606,
,f,040_y_f_s_a.jpg,sad,7,12,f,012_o_f_s_a.jpg,sad,congruent,7,match,,130,160,,18,240,block1_Pilot_2,40,s_s,s_s_strong,,,,,0,0,0,0,0,105,105,105,,,,,,,,,740.5129208998987,None,742.5202634999296,742.813095599995,742.813095599995,742.9629532999825,742.9629532999825,743.0038775999565,743.0038775999565,None,8,0,0.48840769997332245,743.0038775999565,None,744.50450489996,None,['7'],[0.36381300003267825],744.50450489996,None,,,,,Emoconpilot033,2021_Nov_02_1523,BackwardMask,2020.2.8,120.34852936094606,
,f,040_y_f_n_a.jpg,neutral,8,33,m,033_o_m_s_a.jpg,sad,incongruent,7,mismatch,,140,160,,3,188,block1_Pilot_2,40,n_s,n_s_weak,,,,,0,0,0,0,0,106,106,106,,,,,,,,,747.503996299929,None,749.1106502999319,749.405355899944,749.405355899944,749.4297666999046,749.4297666999046,749.4705597999273,749.4705597999273,None,8,0,0.5576665999833494,749.4705597999273,None,750.9706156000029,None,['7'],[0.2736263999249786],750.9706156000029,None,,,,,Emoconpilot033,2021_Nov_02_1523,BackwardMask,2020.2.8,120.34852936094606,
,f,028_y_f_h_a.jpg,happy,9,21,f,021_o_f_s_a.jpg,sad,incongruent,7,match,,120,160,,3,193,block1_Pilot_2,28,h_s,h_s_strong,,,,,0,0,0,0,0,107,107,107,,,,,,,,,753.9714211999672,None,755.5893392999424,755.880194599973,755.880194599973,755.9048368999502,755.9048368999502,755.9457699999912,755.9457699999912,None,9,0,0.5863366000121459,755.9457699999912,None,757.445899699931,None,['7'],[0.25440870004240423],757.445899699931,None,,,,,Emoconpilot033,2021_Nov_02_1523,BackwardMask,2020.2.8,120.34852936094606,
,f,040_y_f_s_a.jpg,sad,7,13,m,013_y_m_n_a.jpg,neutral,incongruent,8,mismatch,,130,170,,2,198,block1_Pilot_2,40,s_n,s_n_strong,,,,,0,0,0,0,0,108,108,108,,,,,,,,,760.4469447999727,None,762.103982099914,762.3968410999514,762.3968410999514,762.4133743999992,762.4133743999992,762.4541922999779,762.4541922999779,None,8,1,0.8299944000318646,762.4541922999779,None,763.9543004999869,None,['8'],[0.2740139999659732],763.9543004999869,None,,,,,Emoconpilot033,2021_Nov_02_1523,BackwardMask,2020.2.8,120.34852936094606,
,f,030_o_f_n_a.jpg,neutral,8,33,m,033_o_m_s_a.jpg,sad,incongruent,7,mismatch,,140,160,,1,238,block1_Pilot_2,30,n_s,n_s_strong,,,,,0,0,0,0,0,109,109,109,,,,,,,,,766.9544225999853,None,768.9611285999417,769.255606199964,769.255606199964,769.2635652999161,769.2635652999161,769.3043465999654,769.3043465999654,None,None,0,,769.3043465999654,None,770.804497999954,None,['9'],[0.3838446999434382],770.804497999954,None,,,,,Emoconpilot033,2021_Nov_02_1523,BackwardMask,2020.2.8,120.34852936094606,
,f,021_o_f_h_a.jpg,happy,9,40,f,040_y_f_n_a.jpg,neutral,incongruent,8,match,,120,170,,2,125,block1_Pilot_2,21,h_n,h_n_weak,,,,,0,0,0,0,0,110,110,110,,,,,,,,,773.8045703999233,None,774.8653450999409,775.1560694999062,775.1560694999062,775.1719021999743,775.1719021999743,775.2127325999318,775.2127325999318,None,9,0,0.679477300029248,775.2127325999318,None,776.7128344000084,None,['8'],[0.2594858999364078],776.7128344000084,None,,,,,Emoconpilot033,2021_Nov_02_1523,BackwardMask,2020.2.8,120.34852936094606,
,f,021_o_f_h_a.jpg,happy,9,16,m,016_y_m_s_a.jpg,sad,incongruent,7,mismatch,,120,160,,1,238,block1_Pilot_2,21,h_s,h_s_strong,,,,,0,0,0,0,0,111,111,111,,,,,,,,,779.7136925999075,None,781.7154026000062,782.0061358999228,782.0061358999228,782.0137786999112,782.0137786999112,782.0545370999025,782.0545370999025,None,None,0,,782.0545370999025,None,783.5547146999743,None,['9'],[0.3774783000117168],783.5547146999743,None,,,,,Emoconpilot033,2021_Nov_02_1523,BackwardMask,2020.2.8,120.34852936094606,
,f,012_o_f_h_a.jpg,happy,9,8,m,008_y_m_s_a.jpg,sad,incongruent,7,mismatch,,120,160,,1,238,block1_Pilot_2,12,h_s,h_s_weak,,,,,0,0,0,0,0,112,112,112,,,,,,,,,786.5547448999714,None,788.5467613999499,788.8393083999399,788.8393083999399,788.8472352999961,788.8472352999961,788.8880440999055,788.8880440999055,None,None,0,,788.8880440999055,None,790.3882004999323,None,['9'],[0.48813670000527054],790.3882004999323,None,,,,,Emoconpilot033,2021_Nov_02_1523,BackwardMask,2020.2.8,120.34852936094606,
,m,013_y_m_h_a.jpg,happy,9,16,m,016_y_m_s_a.jpg,sad,incongruent,7,match,,120,160,,3,202,block1_Pilot_2,13,h_s,h_s_weak,,,,,0,0,0,0,0,113,113,113,,,,,,,,,793.3883676999249,None,795.0993866999634,795.3896274999715,795.3896274999715,795.4142455999972,795.4142455999972,795.4548837000038,795.4548837000038,None,9,0,0.47733629995491356,795.4548837000038,None,796.9551007999107,None,['7'],[0.32131550007034093],796.9551007999107,None,,,,,Emoconpilot033,2021_Nov_02_1523,BackwardMask,2020.2.8,120.34852936094606,
,f,019_m_f_s_a.jpg,sad,7,4,m,004_o_m_n_a.jpg,neutral,incongruent,8,mismatch,,130,170,,1,238,block1_Pilot_2,19,s_n,s_n_strong,,,,,0,0,0,0,0,114,114,114,,,,,,,,,799.955038899905,None,801.9578323999885,802.2480508999433,802.2480508999433,802.2558528999798,802.2558528999798,802.2967793999705,802.2967793999705,None,None,0,,802.2967793999705,None,803.7965833999915,None,['9'],[0.36780190002173185],803.7965833999915,None,,,,,Emoconpilot033,2021_Nov_02_1523,BackwardMask,2020.2.8,120.34852936094606,
,f,028_y_f_n_a.jpg,neutral,8,27,m,027_o_m_s_a.jpg,sad,incongruent,7,mismatch,,140,160,,18,238,block1_Pilot_2,28,n_s,n_s_strong,,,,,0,0,0,0,0,115,115,115,,,,,,,,,806.7975679999217,None,808.8000948999543,809.0898402999155,809.0898402999155,809.239307199954,809.239307199954,809.2801689999178,809.2801689999178,None,8,0,0.45202500000596046,809.2801689999178,None,810.7801343000028,None,['7'],[0.4001048000063747],810.7801343000028,None,,,,,Emoconpilot033,2021_Nov_02_1523,BackwardMask,2020.2.8,120.34852936094606,
,m,013_y_m_s_a.jpg,sad,7,12,f,012_o_f_h_a.jpg,happy,incongruent,9,mismatch,,130,150,,1,238,block1_Pilot_2,13,s_h,s_h_strong,,,,,0,0,0,0,0,116,116,116,,,,,,,,,813.781270199921,None,815.771779499948,816.0647450999822,816.0647450999822,816.0728619999718,816.0728619999718,816.1136999999871,816.1136999999871,None,None,0,,816.1136999999871,None,817.6137969999108,None,['9'],[0.5503744999878109],817.6137969999108,None,,,,,Emoconpilot033,2021_Nov_02_1523,BackwardMask,2020.2.8,120.34852936094606,
,m,016_y_m_s_a.jpg,sad,7,19,f,019_m_f_h_a.jpg,happy,incongruent,9,mismatch,,130,150,,1,238,block1_Pilot_2,16,s_h,s_h_strong,,,,,0,0,0,0,0,117,117,117,,,,,,,,,820.6148083999287,None,822.60530689999,822.8981041999068,822.8981041999068,822.9064408999402,822.9064408999402,822.9471177000087,822.9471177000087,None,None,0,,822.9471177000087,None,824.4471003999934,None,['9'],[0.3731209000106901],824.4471003999934,None,,,,,Emoconpilot033,2021_Nov_02_1523,BackwardMask,2020.2.8,120.34852936094606,
,m,013_y_m_s_a.jpg,sad,7,21,f,021_o_f_h_a.jpg,happy,incongruent,9,mismatch,,130,150,,18,238,block1_Pilot_2,13,s_h,s_h_strong,,,,,0,0,0,0,0,118,118,118,,,,,,,,,827.4481945999432,None,829.4375618000049,829.7316262999084,829.7316262999084,829.8813965999288,829.8813965999288,829.9222933999263,829.9222933999263,None,7,0,0.5298232999630272,829.9222933999263,None,831.4224133999087,None,['7'],[0.333948599989526],831.4224133999087,None,,,,,Emoconpilot033,2021_Nov_02_1523,BackwardMask,2020.2.8,120.34852936094606,
,f,012_o_f_s_a.jpg,sad,7,13,m,013_y_m_h_a.jpg,happy,incongruent,9,mismatch,,130,150,,3,235,block1_Pilot_2,12,s_h,s_h_weak,,,,,0,0,0,0,0,119,119,119,,,,,,,,,834.4223099999363,None,836.3853912999621,836.6817447999492,836.6817447999492,836.7065320999827,836.7065320999827,836.7474672999233,836.7474672999233,None,7,0,0.6408312000567093,836.7474672999233,None,838.2472729999572,None,['7'],[0.26889599999412894],838.2472729999572,None,,,,,Emoconpilot033,2021_Nov_02_1523,BackwardMask,2020.2.8,120.34852936094606,
,f,019_m_f_s_a.jpg,sad,7,30,f,030_o_f_h_a.jpg,happy,incongruent,9,match,,130,150,,3,235,block2_Pilot_2,19,s_h,s_h_strong,,,,,0,1,1,1,0,0,0,0,,,,,,,,,861.2766058999114,None,863.2438289999263,863.5328733999049,863.5328733999049,863.5571676999098,863.5571676999098,863.5979512999766,863.5979512999766,None,7,0,0.7023473000153899,863.5979512999766,None,865.0988579000114,None,['8'],[0.30545949994120747],865.0988579000114,None,,,841.2488716999069,None,Emoconpilot033,2021_Nov_02_1523,BackwardMask,2020.2.8,120.34852936094606,
,m,008_y_m_n_a.jpg,neutral,8,40,f,040_y_f_h_a.jpg,happy,incongruent,9,mismatch,,140,150,,2,121,block2_Pilot_2,8,n_h,n_h_strong,,,,,0,1,1,1,0,1,1,1,,,,,,,,,868.0989295999752,None,869.1254843999632,869.416272399947,869.416272399947,869.4321982999099,869.4321982999099,869.4731705999002,869.4731705999002,None,8,0,0.5951201000716537,869.4731705999002,None,870.973154700012,None,['8'],[0.3350943000987172],870.973154700012,None,,,,,Emoconpilot033,2021_Nov_02_1523,BackwardMask,2020.2.8,120.34852936094606,
,f,012_o_f_h_a.jpg,happy,9,27,m,027_o_m_n_a.jpg,neutral,incongruent,8,mismatch,,120,170,,2,240,block2_Pilot_2,12,h_n,h_n_weak,,,,,0,1,1,1,0,2,2,2,,,,,,,,,873.9732198999263,None,875.9818540000124,876.2742305999855,876.2742305999855,876.2906317999586,876.2906317999586,876.3315238999203,876.3315238999203,None,9,0,0.48872130003292114,876.3315238999203,None,877.8317107999464,None,['7'],[0.2925964000169188],877.8317107999464,None,,,,,Emoconpilot033,2021_Nov_02_1523,BackwardMask,2020.2.8,120.34852936094606,
,m,008_y_m_h_a.jpg,happy,9,40,f,040_y_f_h_a.jpg,happy,congruent,9,mismatch,,120,150,,18,195,block2_Pilot_2,8,h_h,h_h_strong,,,,,0,1,1,1,0,3,3,3,,,,,,,,,880.8326299999608,None,882.4651912999107,882.757627199986,882.757627199986,882.9075815000106,882.9075815000106,882.9483915999299,882.9483915999299,None,9,1,0.36770659999456257,882.9483915999299,None,884.4484349999111,None,['7'],[0.29176940000616014],884.4484349999111,None,,,,,Emoconpilot033,2021_Nov_02_1523,BackwardMask,2020.2.8,120.34852936094606,
,m,004_o_m_n_a.jpg,neutral,8,33,m,033_o_m_s_a.jpg,sad,incongruent,7,match,,140,160,,18,126,block2_Pilot_2,4,n_s,n_s_weak,,,,,0,1,1,1,0,4,4,4,,,,,,,,,887.4488675999455,None,888.526230199961,888.8165089999093,888.8165089999093,888.9659984000027,888.9659984000027,889.0067732000025,889.0067732000025,None,8,0,0.40545679989736527,889.0067732000025,None,890.5069738999009,None,['7'],[0.34548160003032535],890.5069738999009,None,,,,,Emoconpilot033,2021_Nov_02_1523,BackwardMask,2020.2.8,120.34852936094606,
,f,028_y_f_s_a.jpg,sad,7,27,m,027_o_m_n_a.jpg,neutral,incongruent,8,mismatch,,130,170,,18,225,block2_Pilot_2,28,s_n,s_n_strong,,,,,0,1,1,1,0,5,5,5,,,,,,,,,893.5075148999458,None,895.4074286000105,895.6996080999961,895.6996080999961,895.8493909999961,895.8493909999961,895.8902722999919,895.8902722999919,None,7,0,0.7297995999688283,895.8902722999919,None,897.3903515998973,None,['7'],[0.3098161000525579],897.3903515998973,None,,,,,Emoconpilot033,2021_Nov_02_1523,BackwardMask,2020.2.8,120.34852936094606,
,m,027_o_m_s_a.jpg,sad,7,30,f,030_o_f_h_a.jpg,happy,incongruent,9,mismatch,,130,150,,18,238,block2_Pilot_2,27,s_h,s_h_weak,,,,,0,1,1,1,0,6,6,6,,,,,,,,,900.3914545999141,None,902.3822463999968,902.674782399903,902.674782399903,902.8245991999283,902.8245991999283,902.8654394999612,902.8654394999612,None,7,0,0.4427791000343859,902.8654394999612,None,904.3654688999522,None,['7'],[0.26288739999290556],904.3654688999522,None,,,,,Emoconpilot033,2021_Nov_02_1523,BackwardMask,2020.2.8,120.34852936094606,
,m,033_o_m_h_a.jpg,happy,9,40,f,040_y_f_s_a.jpg,sad,incongruent,7,mismatch,,120,160,,1,238,block2_Pilot_2,33,h_s,h_s_strong,,,,,0,1,1,1,0,7,7,7,,,,,,,,,907.3657716999296,None,909.3571242999751,909.6500153999077,909.6500153999077,909.6580834999913,909.6580834999913,909.698826399981,909.698826399981,None,None,0,,909.698826399981,None,911.1989707999164,None,['9'],[0.4052729000104591],911.1989707999164,None,,,,,Emoconpilot033,2021_Nov_02_1523,BackwardMask,2020.2.8,120.34852936094606,
,f,012_o_f_n_a.jpg,neutral,8,12,f,012_o_f_h_a.jpg,happy,incongruent,9,match,,140,150,,2,200,block2_Pilot_2,12,n_h,n_h_weak,,,,,0,1,1,1,0,8,8,8,,,,,,,,,914.1991478999844,None,915.9094698999543,916.2005994999781,916.2005994999781,916.2165843999246,916.2165843999246,916.2572399999481,916.2572399999481,None,8,0,0.6350437999935821,916.2572399999481,None,917.7574682999402,None,['8'],[0.27880490000825375],917.7574682999402,None,,,,,Emoconpilot033,2021_Nov_02_1523,BackwardMask,2020.2.8,120.34852936094606,
,f,030_o_f_n_a.jpg,neutral,8,19,f,019_m_f_n_a.jpg,neutral,congruent,8,match,,140,170,,1,238,block2_Pilot_2,30,n_n,n_n_weak,,,,,0,1,1,1,0,9,9,9,,,,,,,,,920.7582681999775,None,922.759582699975,923.0505942999152,923.0505942999152,923.0582816000096,923.0582816000096,923.0990794999525,923.0990794999525,None,None,0,,923.0990794999525,None,924.5993026999058,None,['9'],[0.6048269000602886],924.5993026999058,None,,,,,Emoconpilot033,2021_Nov_02_1523,BackwardMask,2020.2.8,120.34852936094606,
,m,013_y_m_h_a.jpg,happy,9,8,m,008_y_m_n_a.jpg,neutral,incongruent,8,match,,120,170,,1,238,block2_Pilot_2,13,h_n,h_n_strong,,,,,0,1,1,1,0,10,10,10,,,,,,,,,927.6000640999991,None,929.6127132999245,929.9089811999584,929.9089811999584,929.9167319999542,929.9167319999542,929.9575438000029,929.9575438000029,None,None,0,,929.9575438000029,None,931.4576600999571,None,['9'],[0.3624538000440225],931.4576600999571,None,,,,,Emoconpilot033,2021_Nov_02_1523,BackwardMask,2020.2.8,120.34852936094606,
,f,040_y_f_h_a.jpg,happy,9,19,f,019_m_f_s_a.jpg,sad,incongruent,7,match,,120,160,,3,133,block2_Pilot_2,40,h_s,h_s_strong,,,,,0,1,1,1,0,11,11,11,,,,,,,,,934.4585832000012,None,935.5751044999342,935.8670344999991,935.8670344999991,935.8919426999055,935.8919426999055,935.9328422999242,935.9328422999242,None,9,0,0.5112719000317156,935.9328422999242,None,937.4327583999839,None,['7'],[0.35553770000115037],937.4327583999839,None,,,,,Emoconpilot033,2021_Nov_02_1523,BackwardMask,2020.2.8,120.34852936094606,
,f,040_y_f_h_a.jpg,happy,9,13,m,013_y_m_s_a.jpg,sad,incongruent,7,mismatch,,120,160,,3,226,block2_Pilot_2,40,h_s,h_s_strong,,,,,0,1,1,1,0,12,12,12,,,,,,,,,940.4337197999703,None,942.3238158999011,942.6172024999978,942.6172024999978,942.6421539000003,942.6421539000003,942.6829141000053,942.6829141000053,None,9,0,0.4252406999003142,942.6829141000053,None,944.1828513999935,None,['7'],[0.32533919997513294],944.1828513999935,None,,,,,Emoconpilot033,2021_Nov_02_1523,BackwardMask,2020.2.8,120.34852936094606,
,f,030_o_f_s_a.jpg,sad,7,27,m,027_o_m_h_a.jpg,happy,incongruent,9,mismatch,,130,150,,1,238,block2_Pilot_2,30,s_h,s_h_strong,,,,,0,1,1,1,0,13,13,13,,,,,,,,,947.1832388999173,None,949.1893630999839,949.484592899913,949.484592899913,949.4921712999931,949.4921712999931,949.5329807999078,949.5329807999078,None,None,0,,949.5329807999078,None,951.033138699946,None,['9'],[0.5630447999574244],951.033138699946,None,,,,,Emoconpilot033,2021_Nov_02_1523,BackwardMask,2020.2.8,120.34852936094606,
,m,033_o_m_h_a.jpg,happy,9,30,f,030_o_f_s_a.jpg,sad,incongruent,7,mismatch,,120,160,,1,238,block2_Pilot_2,33,h_s,h_s_weak,,,,,0,1,1,1,0,14,14,14,,,,,,,,,954.0332001999486,None,956.0247845000122,956.3176346999826,956.3176346999826,956.3256789000006,956.3256789000006,956.3664904999314,956.3664904999314,None,None,0,,956.3664904999314,None,957.8664400000125,None,['9'],[0.5217611999250948],957.8664400000125,None,,,,,Emoconpilot033,2021_Nov_02_1523,BackwardMask,2020.2.8,120.34852936094606,
,f,030_o_f_s_a.jpg,sad,7,28,f,028_y_f_n_a.jpg,neutral,incongruent,8,match,,130,170,,3,198,block2_Pilot_2,30,s_n,s_n_weak,,,,,0,1,1,1,0,15,15,15,,,,,,,,,960.8673964999616,None,962.5630739999469,962.8599427998997,962.8599427998997,962.8839726999868,962.8839726999868,962.9250272999052,962.9250272999052,None,7,0,0.9352591000497341,962.9250272999052,None,964.425106599927,None,['8'],[0.3472547000274062],964.425106599927,None,,,,,Emoconpilot033,2021_Nov_02_1523,BackwardMask,2020.2.8,120.34852936094606,
,f,030_o_f_s_a.jpg,sad,7,33,m,033_o_m_h_a.jpg,happy,incongruent,9,mismatch,,130,150,,3,175,block2_Pilot_2,30,s_h,s_h_weak,,,,,0,1,1,1,0,16,16,16,,,,,,,,,967.4258321999805,None,968.902382100001,969.193247999996,969.193247999996,969.2177693999838,969.2177693999838,969.2584824999794,969.2584824999794,None,7,0,0.6018016999587417,969.2584824999794,None,970.7583969999105,None,['8'],[0.24592870008200407],970.7583969999105,None,,,,,Emoconpilot033,2021_Nov_02_1523,BackwardMask,2020.2.8,120.34852936094606,
,f,021_o_f_h_a.jpg,happy,9,30,f,030_o_f_h_a.jpg,happy,congruent,9,match,,120,150,,2,194,block2_Pilot_2,21,h_h,h_h_strong,,,,,0,1,1,1,0,17,17,17,,,,,,,,,973.7592585999519,None,975.3941494999453,975.6850152999396,975.6850152999396,975.7011459999485,975.7011459999485,975.7419574999949,975.7419574999949,None,9,1,0.6143970999401063,975.7419574999949,None,977.2421060999623,None,['7'],[0.27424850000534207],977.2421060999623,None,,,,,Emoconpilot033,2021_Nov_02_1523,BackwardMask,2020.2.8,120.34852936094606,
,f,019_m_f_n_a.jpg,neutral,8,16,m,016_y_m_s_a.jpg,sad,incongruent,7,mismatch,,140,160,,18,163,block2_Pilot_2,19,n_s,n_s_weak,,,,,0,1,1,1,0,18,18,18,,,,,,,,,980.2429187999805,None,981.6194538999116,981.9101862999378,981.9101862999378,982.0596180999419,982.0596180999419,982.1003217999823,982.1003217999823,None,8,0,0.3838617999572307,982.1003217999823,None,983.6004562999588,None,['7'],[0.3398571000434458],983.6004562999588,None,,,,,Emoconpilot033,2021_Nov_02_1523,BackwardMask,2020.2.8,120.34852936094606,
,m,033_o_m_n_a.jpg,neutral,8,13,m,013_y_m_n_a.jpg,neutral,congruent,8,match,,140,170,,2,217,block2_Pilot_2,33,n_n,n_n_strong,,,,,0,1,1,1,0,19,19,19,,,,,,,,,986.6012213999638,None,988.4274590999121,988.7185294999508,988.7185294999508,988.7347348999465,988.7347348999465,988.77557659999,988.77557659999,None,8,1,0.5327606999780983,988.77557659999,None,990.2756094000069,None,['8'],[0.2806623999495059],990.2756094000069,None,,,,,Emoconpilot033,2021_Nov_02_1523,BackwardMask,2020.2.8,120.34852936094606,
,m,033_o_m_h_a.jpg,happy,9,13,m,013_y_m_n_a.jpg,neutral,incongruent,8,match,,120,170,,2,227,block2_Pilot_2,33,h_n,h_n_weak,,,,,0,1,1,1,0,20,20,20,,,,,,,,,993.2756367999827,None,995.1755138000008,995.4683633999666,995.4683633999666,995.4848670999054,995.4848670999054,995.5257994999411,995.5257994999411,None,9,0,0.5345383000094444,995.5257994999411,None,997.0257379999384,None,['8'],[0.26657950005028397],997.0257379999384,None,,,,,Emoconpilot033,2021_Nov_02_1523,BackwardMask,2020.2.8,120.34852936094606,
,f,012_o_f_s_a.jpg,sad,7,16,m,016_y_m_n_a.jpg,neutral,incongruent,8,mismatch,,130,170,,1,238,block2_Pilot_2,12,s_n,s_n_weak,,,,,0,1,1,1,0,21,21,21,,,,,,,,,1000.0268672999227,None,1002.0128206999507,1002.3100498999702,1002.3100498999702,1002.3183295999188,1002.3183295999188,1002.3591607999988,1002.3591607999988,None,None,0,,1002.3591607999988,None,1003.8595048999414,None,['9'],[0.3607983000110835],1003.8595048999414,None,,,,,Emoconpilot033,2021_Nov_02_1523,BackwardMask,2020.2.8,120.34852936094606,
,f,028_y_f_n_a.jpg,neutral,8,21,f,021_o_f_h_a.jpg,happy,incongruent,9,match,,140,150,,18,202,block2_Pilot_2,28,n_h,n_h_strong,,,,,0,1,1,1,0,22,22,22,,,,,,,,,1006.8592484999681,None,1008.5641944999807,1008.8607690999052,1008.8607690999052,1009.0101493999828,1009.0101493999828,1009.0508398999227,1009.0508398999227,None,8,0,0.40924760000780225,1009.0508398999227,None,1010.5508990999078,None,['7'],[0.4854759000008926],1010.5508990999078,None,,,,,Emoconpilot033,2021_Nov_02_1523,BackwardMask,2020.2.8,120.34852936094606,
,f,028_y_f_s_a.jpg,sad,7,30,f,030_o_f_n_a.jpg,neutral,incongruent,8,match,,130,170,,2,127,block2_Pilot_2,28,s_n,s_n_weak,,,,,0,1,1,1,0,23,23,23,,,,,,,,,1013.551989999949,None,1014.6211271999637,1014.9103666999144,1014.9103666999144,1014.9268953999272,1014.9268953999272,1014.9677736999001,1014.9677736999001,None,8,1,0.5405386000638828,1014.9677736999001,None,1016.4678159999894,None,['8'],[0.5845248999539763],1016.4678159999894,None,,,,,Emoconpilot033,2021_Nov_02_1523,BackwardMask,2020.2.8,120.34852936094606,
,m,004_o_m_n_a.jpg,neutral,8,40,f,040_y_f_n_a.jpg,neutral,congruent,8,mismatch,,140,170,,1,238,block2_Pilot_2,4,n_n,n_n_weak,,,,,0,1,1,1,0,24,24,24,,,,,,,,,1019.4679780999431,None,1021.4921923999209,1021.7860337999882,1021.7860337999882,1021.7937620999292,1021.7937620999292,1021.8347156000091,1021.8347156000091,None,None,0,,1021.8347156000091,None,1023.3344473999459,None,['9'],[0.445782299968414],1023.3344473999459,None,,,,,Emoconpilot033,2021_Nov_02_1523,BackwardMask,2020.2.8,120.34852936094606,
,m,016_y_m_n_a.jpg,neutral,8,16,m,016_y_m_h_a.jpg,happy,incongruent,9,match,,140,150,,18,239,block2_Pilot_2,16,n_h,n_h_weak,,,,,0,1,1,1,0,25,25,25,,,,,,,,,1026.3355011999374,None,1028.3451348999515,1028.636195799918,1028.636195799918,1028.7854957999662,1028.7854957999662,1028.826446199906,1028.826446199906,None,8,0,0.40999690000899136,1028.826446199906,None,1030.326391999959,None,['7'],[0.4297638999996707],1030.326391999959,None,,,,,Emoconpilot033,2021_Nov_02_1523,BackwardMask,2020.2.8,120.34852936094606,
,f,012_o_f_n_a.jpg,neutral,8,33,m,033_o_m_n_a.jpg,neutral,congruent,8,mismatch,,140,170,,3,134,block2_Pilot_2,12,n_n,n_n_weak,,,,,0,1,1,1,0,26,26,26,,,,,,,,,1033.3273876999738,None,1034.4622055999935,1034.752951100003,1034.752951100003,1034.777276699897,1034.777276699897,1034.8179499999387,1034.8179499999387,None,8,1,0.6902915000682697,1034.8179499999387,None,1036.318294800003,None,['7'],[0.4860251999925822],1036.318294800003,None,,,,,Emoconpilot033,2021_Nov_02_1523,BackwardMask,2020.2.8,120.34852936094606,
,m,013_y_m_h_a.jpg,happy,9,27,m,027_o_m_s_a.jpg,sad,incongruent,7,match,,120,160,,2,194,block2_Pilot_2,13,h_s,h_s_strong,,,,,0,1,1,1,0,27,27,27,,,,,,,,,1039.3190654999344,None,1040.9540055999532,1041.2448436999694,1041.2448436999694,1041.2609038999071,1041.2609038999071,1041.3015408999054,1041.3015408999054,None,9,0,0.5107870000647381,1041.3015408999054,None,1042.8017081998987,None,['8'],[0.43448569998145103],1042.8017081998987,None,,,,,Emoconpilot033,2021_Nov_02_1523,BackwardMask,2020.2.8,120.34852936094606,
,m,013_y_m_n_a.jpg,neutral,8,28,f,028_y_f_n_a.jpg,neutral,congruent,8,mismatch,,140,170,,1,238,block2_Pilot_2,13,n_n,n_n_weak,,,,,0,1,1,1,0,28,28,28,,,,,,,,,1045.802530999994,None,1047.8044607999036,1048.0947369999485,1048.0947369999485,1048.1025465999264,1048.1025465999264,1048.1433381999377,1048.1433381999377,None,None,0,,1048.1433381999377,None,1049.643806100008,None,['9'],[0.40841639996506274],1049.643806100008,None,,,,,Emoconpilot033,2021_Nov_02_1523,BackwardMask,2020.2.8,120.34852936094606,
,f,030_o_f_s_a.jpg,sad,7,33,m,033_o_m_h_a.jpg,happy,incongruent,9,mismatch,,130,150,,3,168,block2_Pilot_2,30,s_h,s_h_weak,,,,,0,1,1,1,0,29,29,29,,,,,,,,,1052.6439452999039,None,1054.062879199977,1054.353279099916,1054.353279099916,1054.3776442999952,1054.3776442999952,1054.4186235999223,1054.4186235999223,None,7,0,0.809435100061819,1054.4186235999223,None,1055.9185672999592,None,['8'],[0.7817737000295892],1055.9185672999592,None,,,,,Emoconpilot033,2021_Nov_02_1523,BackwardMask,2020.2.8,120.34852936094606,
,m,008_y_m_n_a.jpg,neutral,8,12,f,012_o_f_n_a.jpg,neutral,congruent,8,mismatch,,140,170,,18,208,block2_Pilot_2,8,n_n,n_n_weak,,,,,0,1,1,1,0,30,30,30,,,,,,,,,1058.918834000011,None,1060.6709273000015,1060.9616985999746,1060.9616985999746,1061.1113542999374,1061.1113542999374,1061.1519861000124,1061.1519861000124,None,8,1,0.42836189991794527,1061.1519861000124,None,1062.6518624000018,None,['7'],[0.3844204000197351],1062.6518624000018,None,,,,,Emoconpilot033,2021_Nov_02_1523,BackwardMask,2020.2.8,120.34852936094606,
,m,008_y_m_s_a.jpg,sad,7,4,m,004_o_m_n_a.jpg,neutral,incongruent,8,match,,130,170,,2,231,block2_Pilot_2,8,s_n,s_n_weak,,,,,0,1,1,1,0,31,31,31,,,,,,,,,1065.6537342999363,None,1067.597174399998,1067.886952699977,1067.886952699977,1067.903011999908,1067.903011999908,1067.9437976999907,1067.9437976999907,None,7,0,0.7245541999582201,1067.9437976999907,None,1069.443887499976,None,['8'],[0.33631409995723516],1069.443887499976,None,,,,,Emoconpilot033,2021_Nov_02_1523,BackwardMask,2020.2.8,120.34852936094606,
,m,016_y_m_n_a.jpg,neutral,8,28,f,028_y_f_n_a.jpg,neutral,congruent,8,mismatch,,140,170,,2,218,block2_Pilot_2,16,n_n,n_n_weak,,,,,0,1,1,1,0,32,32,32,,,,,,,,,1072.4443863999331,None,1074.279257099959,1074.5704506000038,1074.5704506000038,1074.5865738999564,1074.5865738999564,1074.6272814999102,1074.6272814999102,None,8,1,0.857020299998112,1074.6272814999102,None,1076.1273294999264,None,['8'],[0.316937500028871],1076.1273294999264,None,,,,,Emoconpilot033,2021_Nov_02_1523,BackwardMask,2020.2.8,120.34852936094606,
,m,033_o_m_n_a.jpg,neutral,8,33,m,033_o_m_s_a.jpg,sad,incongruent,7,match,,140,160,,3,141,block2_Pilot_2,33,n_s,n_s_weak,,,,,0,1,1,1,0,33,33,33,,,,,,,,,1079.1275210999884,None,1080.3216670999536,1080.61234709993,1080.61234709993,1080.6370032998966,1080.6370032998966,1080.6774792999495,1080.6774792999495,None,8,0,0.5427609999896958,1080.6774792999495,None,1082.1773739999626,None,['8'],[0.36303160001989454],1082.1773739999626,None,,,,,Emoconpilot033,2021_Nov_02_1523,BackwardMask,2020.2.8,120.34852936094606,
,m,016_y_m_n_a.jpg,neutral,8,13,m,013_y_m_s_a.jpg,sad,incongruent,7,match,,140,160,,1,238,block2_Pilot_2,16,n_s,n_s_weak,,,,,0,1,1,1,0,34,34,34,,,,,,,,,1085.1784568999428,None,1087.1809594999067,1087.4705625999486,1087.4705625999486,1087.4784128000028,1087.4784128000028,1087.5191312999232,1087.5191312999232,None,None,0,,1087.5191312999232,None,1089.0192255999427,None,['9'],[0.5530437000561506],1089.0192255999427,None,,,,,Emoconpilot033,2021_Nov_02_1523,BackwardMask,2020.2.8,120.34852936094606,
,f,030_o_f_h_a.jpg,happy,9,12,f,012_o_f_n_a.jpg,neutral,incongruent,8,match,,120,170,,3,190,block2_Pilot_2,30,h_n,h_n_weak,,,,,0,1,1,1,0,35,35,35,,,,,,,,,1092.0201898999512,None,1093.622000399977,1093.9124104999937,1093.9124104999937,1093.9367714999244,1093.9367714999244,1093.9776846999303,1093.9776846999303,None,9,0,0.47468089999165386,1093.9776846999303,None,1095.4777825999772,None,['7'],[0.32656069996301085],1095.4777825999772,None,,,,,Emoconpilot033,2021_Nov_02_1523,BackwardMask,2020.2.8,120.34852936094606,
,f,030_o_f_s_a.jpg,sad,7,12,f,012_o_f_n_a.jpg,neutral,incongruent,8,match,,130,170,,3,197,block2_Pilot_2,30,s_n,s_n_strong,,,,,0,1,1,1,0,36,36,36,,,,,,,,,1098.4777604999254,None,1100.1509243999608,1100.446324499906,1100.446324499906,1100.4702699999325,1100.4702699999325,1100.510991999996,1100.510991999996,None,7,0,1.0051906999433413,1100.510991999996,None,1102.0114630999742,None,['8'],[0.6568123999750242],1102.0114630999742,None,,,,,Emoconpilot033,2021_Nov_02_1523,BackwardMask,2020.2.8,120.34852936094606,
,m,004_o_m_s_a.jpg,sad,7,8,m,008_y_m_h_a.jpg,happy,incongruent,9,match,,130,150,,3,201,block2_Pilot_2,4,s_h,s_h_strong,,,,,0,1,1,1,0,37,37,37,,,,,,,,,1105.012369300006,None,1106.6939955999842,1106.9871235999744,1106.9871235999744,1107.0121020999504,1107.0121020999504,1107.053055199911,1107.053055199911,None,7,0,0.7112297000130638,1107.053055199911,None,1108.5530795999803,None,['8'],[0.2911772000370547],1108.5530795999803,None,,,,,Emoconpilot033,2021_Nov_02_1523,BackwardMask,2020.2.8,120.34852936094606,
,f,040_y_f_n_a.jpg,neutral,8,16,m,016_y_m_n_a.jpg,neutral,congruent,8,mismatch,,140,170,,3,198,block2_Pilot_2,40,n_n,n_n_strong,,,,,0,1,1,1,0,38,38,38,,,,,,,,,1111.554163599969,None,1113.2295973999426,1113.521230799961,1113.521230799961,1113.5456445999444,1113.5456445999444,1113.5863610999659,1113.5863610999659,None,8,1,0.6019660000456497,1113.5863610999659,None,1115.0865783999907,None,['8'],[0.26981889992021024],1115.0865783999907,None,,,,,Emoconpilot033,2021_Nov_02_1523,BackwardMask,2020.2.8,120.34852936094606,
,m,027_o_m_n_a.jpg,neutral,8,16,m,016_y_m_s_a.jpg,sad,incongruent,7,match,,140,160,,1,238,block2_Pilot_2,27,n_s,n_s_strong,,,,,0,1,1,1,0,39,39,39,,,,,,,,,1118.0879793999484,None,1120.090231499984,1120.3797225999879,1120.3797225999879,1120.387150399969,1120.387150399969,1120.4282389999134,1120.4282389999134,None,None,0,,1120.4282389999134,None,1121.9283783999272,None,['9'],[0.5079552000388503],1121.9283783999272,None,,,,,Emoconpilot033,2021_Nov_02_1523,BackwardMask,2020.2.8,120.34852936094606,
,m,033_o_m_n_a.jpg,neutral,8,40,f,040_y_f_h_a.jpg,happy,incongruent,9,mismatch,,140,150,,2,137,block2_Pilot_2,33,n_h,n_h_strong,,,,,0,1,1,1,0,40,40,40,,,,,,,,,1124.929151999997,None,1126.0890146999154,1126.379892900004,1126.379892900004,1126.3958406999009,1126.3958406999009,1126.4366491999244,1126.4366491999244,None,8,0,0.5116986000211909,1126.4366491999244,None,1127.936811099993,None,['8'],[0.5234664999879897],1127.936811099993,None,,,,,Emoconpilot033,2021_Nov_02_1523,BackwardMask,2020.2.8,120.34852936094606,
,m,004_o_m_s_a.jpg,sad,7,8,m,008_y_m_h_a.jpg,happy,incongruent,9,match,,130,150,,18,193,block2_Pilot_2,4,s_h,s_h_strong,,,,,0,1,1,1,0,41,41,41,,,,,,,,,1130.9381065999623,None,1132.5530862999149,1132.8461679999018,1132.8461679999018,1132.996201199945,1132.996201199945,1133.0369967999868,1133.0369967999868,None,7,0,0.5032780999317765,1133.0369967999868,None,1134.5371221000096,None,['7'],[0.2912526000291109],1134.5371221000096,None,,,,,Emoconpilot033,2021_Nov_02_1523,BackwardMask,2020.2.8,120.34852936094606,
,f,012_o_f_h_a.jpg,happy,9,4,m,004_o_m_s_a.jpg,sad,incongruent,7,mismatch,,120,160,,3,198,block2_Pilot_2,12,h_s,h_s_weak,,,,,0,1,1,1,0,42,42,42,,,,,,,,,1137.5383251999738,None,1139.1956126999576,1139.4879198999843,1139.4879198999843,1139.5128539999714,1139.5128539999714,1139.5535716000013,1139.5535716000013,None,9,0,0.5227711999323219,1139.5535716000013,None,1141.0537262998987,None,['7'],[0.30259770003613085],1141.0537262998987,None,,,,,Emoconpilot033,2021_Nov_02_1523,BackwardMask,2020.2.8,120.34852936094606,
,f,012_o_f_n_a.jpg,neutral,8,8,m,008_y_m_s_a.jpg,sad,incongruent,7,mismatch,,140,160,,1,238,block2_Pilot_2,12,n_s,n_s_strong,,,,,0,1,1,1,0,43,43,43,,,,,,,,,1144.0547329999972,None,1146.067728199996,1146.3637523999205,1146.3637523999205,1146.3712631999515,1146.3712631999515,1146.4121828000061,1146.4121828000061,None,None,0,,1146.4121828000061,None,1147.912116499967,None,['9'],[0.44401019997894764],1147.912116499967,None,,,,,Emoconpilot033,2021_Nov_02_1523,BackwardMask,2020.2.8,120.34852936094606,
,f,040_y_f_n_a.jpg,neutral,8,8,m,008_y_m_n_a.jpg,neutral,congruent,8,mismatch,,140,170,,3,165,block2_Pilot_2,40,n_n,n_n_weak,,,,,0,1,1,1,0,44,44,44,,,,,,,,,1150.9123607999645,None,1152.306742799934,1152.596939799958,1152.596939799958,1152.6214422999183,1152.6214422999183,1152.6621825000038,1152.6621825000038,None,8,1,0.7582144999178126,1152.6621825000038,None,1154.1630224999972,None,['8'],[0.36132899997755885],1154.1630224999972,None,,,,,Emoconpilot033,2021_Nov_02_1523,BackwardMask,2020.2.8,120.34852936094606,
,f,028_y_f_h_a.jpg,happy,9,33,m,033_o_m_n_a.jpg,neutral,incongruent,8,mismatch,,120,170,,1,238,block2_Pilot_2,28,h_n,h_n_strong,,,,,0,1,1,1,0,45,45,45,,,,,,,,,1157.1630372999934,None,1159.1578577999026,1159.4466987999622,1159.4466987999622,1159.454852499999,1159.454852499999,1159.4956615999108,1159.4956615999108,None,None,0,,1159.4956615999108,None,1160.9958030999405,None,['9'],[0.3205351000651717],1160.9958030999405,None,,,,,Emoconpilot033,2021_Nov_02_1523,BackwardMask,2020.2.8,120.34852936094606,
,m,027_o_m_s_a.jpg,sad,7,19,f,019_m_f_n_a.jpg,neutral,incongruent,8,mismatch,,130,170,,2,236,block2_Pilot_2,27,s_n,s_n_weak,,,,,0,1,1,1,0,46,46,46,,,,,,,,,1163.9966618999606,None,1165.9706923000049,1166.2635318000102,1166.2635318000102,1166.2800854999805,1166.2800854999805,1166.320842099958,1166.320842099958,None,8,1,0.6274530000519007,1166.320842099958,None,1167.8208785000024,None,['8'],[0.27139369992073625],1167.8208785000024,None,,,,,Emoconpilot033,2021_Nov_02_1523,BackwardMask,2020.2.8,120.34852936094606,
,m,027_o_m_h_a.jpg,happy,9,19,f,019_m_f_s_a.jpg,sad,incongruent,7,mismatch,,120,160,,1,238,block2_Pilot_2,27,h_s,h_s_strong,,,,,0,1,1,1,0,47,47,47,,,,,,,,,1170.8210800999077,None,1172.8384654999245,1173.1308203999652,1173.1308203999652,1173.1387990999501,1173.1387990999501,1173.179308099905,1173.179308099905,None,None,0,,1173.179308099905,None,1174.6791952999774,None,['9'],[0.4290757999988273],1174.6791952999774,None,,,,,Emoconpilot033,2021_Nov_02_1523,BackwardMask,2020.2.8,120.34852936094606,
,m,016_y_m_h_a.jpg,happy,9,4,m,004_o_m_s_a.jpg,sad,incongruent,7,match,,120,160,,3,227,block2_Pilot_2,16,h_s,h_s_strong,,,,,0,1,1,1,0,48,48,48,,,,,,,,,1177.6803140999982,None,1179.5803926999215,1179.8721808999544,1179.8721808999544,1179.8967899999116,1179.8967899999116,1179.937759499997,1179.937759499997,None,9,0,0.5304299999261275,1179.937759499997,None,1181.4377735999878,None,['7'],[0.27862439991440624],1181.4377735999878,None,,,,,Emoconpilot033,2021_Nov_02_1523,BackwardMask,2020.2.8,120.34852936094606,
,f,040_y_f_h_a.jpg,happy,9,13,m,013_y_m_h_a.jpg,happy,congruent,9,mismatch,,120,150,,3,165,block2_Pilot_2,40,h_h,h_h_strong,,,,,0,1,1,1,0,49,49,49,,,,,,,,,1184.4378948999802,None,1185.821086699958,1186.1139206999214,1186.1139206999214,1186.1392343000043,1186.1392343000043,1186.1795442999573,1186.1795442999573,None,9,1,0.4806618000147864,1186.1795442999573,None,1187.6797352998983,None,['7'],[0.34853580000344664],1187.6797352998983,None,,,,,Emoconpilot033,2021_Nov_02_1523,BackwardMask,2020.2.8,120.34852936094606,
,m,033_o_m_s_a.jpg,sad,7,28,f,028_y_f_n_a.jpg,neutral,incongruent,8,mismatch,,130,170,,2,227,block2_Pilot_2,33,s_n,s_n_weak,,,,,0,1,1,1,0,50,50,50,,,,,,,,,1190.6797286999645,None,1192.5803036999423,1192.8725661999779,1192.8725661999779,1192.8890937999822,1192.8890937999822,1192.929761199979,1192.929761199979,None,8,1,0.65836749994196,1192.929761199979,None,1194.4298808999592,None,['8'],[0.27049949998036027],1194.4298808999592,None,,,,,Emoconpilot033,2021_Nov_02_1523,BackwardMask,2020.2.8,120.34852936094606,
,f,019_m_f_s_a.jpg,sad,7,27,m,027_o_m_h_a.jpg,happy,incongruent,9,mismatch,,130,150,,1,238,block2_Pilot_2,19,s_h,s_h_weak,,,,,0,1,1,1,0,51,51,51,,,,,,,,,1197.4301258999621,None,1199.4420042999554,1199.731219099951,1199.731219099951,1199.739085100009,1199.739085100009,1199.779805499944,1199.779805499944,None,None,0,,1199.779805499944,None,1201.2800697999774,None,['9'],[0.3162211000453681],1201.2800697999774,None,,,,,Emoconpilot033,2021_Nov_02_1523,BackwardMask,2020.2.8,120.34852936094606,
,m,016_y_m_h_a.jpg,happy,9,19,f,019_m_f_n_a.jpg,neutral,incongruent,8,mismatch,,120,170,,18,238,block2_Pilot_2,16,h_n,h_n_strong,,,,,0,1,1,1,0,52,52,52,,,,,,,,,1204.2809698999627,None,1206.27184089995,1206.5643964000046,1206.5643964000046,1206.714188599959,1206.714188599959,1206.7550843999488,1206.7550843999488,None,9,0,0.4412663000402972,1206.7550843999488,None,1208.2551404999103,None,['7'],[0.3011529000941664],1208.2551404999103,None,,,,,Emoconpilot033,2021_Nov_02_1523,BackwardMask,2020.2.8,120.34852936094606,
,f,021_o_f_s_a.jpg,sad,7,8,m,008_y_m_n_a.jpg,neutral,incongruent,8,mismatch,,130,170,,1,238,block2_Pilot_2,21,s_n,s_n_strong,,,,,0,1,1,1,0,53,53,53,,,,,,,,,1211.2565079999622,None,1213.244159599999,1213.5395245999098,1213.5395245999098,1213.5476525999838,1213.5476525999838,1213.5884753999999,1213.5884753999999,None,None,0,,1213.5884753999999,None,1215.088655999978,None,['9'],[0.37147879996336997],1215.088655999978,None,,,,,Emoconpilot033,2021_Nov_02_1523,BackwardMask,2020.2.8,120.34852936094606,
,f,012_o_f_s_a.jpg,sad,7,33,m,033_o_m_s_a.jpg,sad,congruent,7,mismatch,,130,160,,2,148,block2_Pilot_2,12,s_s,s_s_weak,,,,,0,1,1,1,0,54,54,54,,,,,,,,,1218.089040299994,None,1219.3259647999657,1219.622921400005,1219.622921400005,1219.6393309999257,1219.6393309999257,1219.6803371999413,1219.6803371999413,None,None,0,,1219.6803371999413,None,1221.1803900999948,None,['9'],[0.35185899992939085],1221.1803900999948,None,,,,,Emoconpilot033,2021_Nov_02_1523,BackwardMask,2020.2.8,120.34852936094606,
,f,030_o_f_s_a.jpg,sad,7,40,f,040_y_f_s_a.jpg,sad,congruent,7,match,,130,160,,3,136,block2_Pilot_2,30,s_s,s_s_strong,,,,,0,1,1,1,0,55,55,55,,,,,,,,,1224.1811665999703,None,1225.3517174998997,1225.648527399986,1225.648527399986,1225.672934299917,1225.672934299917,1225.7135907999473,1225.7135907999473,None,7,1,0.7706355999689549,1225.7135907999473,None,1227.2137610999634,None,['8'],[0.2864223000360653],1227.2137610999634,None,,,,,Emoconpilot033,2021_Nov_02_1523,BackwardMask,2020.2.8,120.34852936094606,
,m,027_o_m_s_a.jpg,sad,7,28,f,028_y_f_h_a.jpg,happy,incongruent,9,mismatch,,130,150,,1,238,block2_Pilot_2,27,s_h,s_h_weak,,,,,0,1,1,1,0,56,56,56,,,,,,,,,1230.2140147999162,None,1232.2052775999764,1232.4981790999882,1232.4981790999882,1232.5063822999364,1232.5063822999364,1232.5472646999406,1232.5472646999406,None,None,0,,1232.5472646999406,None,1234.0471242999192,None,['9'],[0.3332394000608474],1234.0471242999192,None,,,,,Emoconpilot033,2021_Nov_02_1523,BackwardMask,2020.2.8,120.34852936094606,
,m,004_o_m_n_a.jpg,neutral,8,8,m,008_y_m_s_a.jpg,sad,incongruent,7,match,,140,160,,3,225,block2_Pilot_2,4,n_s,n_s_strong,,,,,0,1,1,1,0,57,57,57,,,,,,,,,1237.0480244999053,None,1238.969563499908,1239.2655763999792,1239.2655763999792,1239.2898947999347,1239.2898947999347,1239.3308475000085,1239.3308475000085,None,8,0,0.5295451000565663,1239.3308475000085,None,1240.8307236999972,None,['8'],[0.25350049999542534],1240.8307236999972,None,,,,,Emoconpilot033,2021_Nov_02_1523,BackwardMask,2020.2.8,120.34852936094606,
,f,012_o_f_s_a.jpg,sad,7,40,f,040_y_f_s_a.jpg,sad,congruent,7,match,,130,160,,1,238,block2_Pilot_2,12,s_s,s_s_strong,,,,,0,1,1,1,0,58,58,58,,,,,,,,,1243.831548599992,None,1245.8173589999788,1246.1149847999914,1246.1149847999914,1246.1231942999875,1246.1231942999875,1246.1642544999486,1246.1642544999486,None,None,0,,1246.1642544999486,None,1247.6642890999792,None,['9'],[0.4120565999764949],1247.6642890999792,None,,,,,Emoconpilot033,2021_Nov_02_1523,BackwardMask,2020.2.8,120.34852936094606,
,f,021_o_f_h_a.jpg,happy,9,4,m,004_o_m_n_a.jpg,neutral,incongruent,8,mismatch,,120,170,,1,238,block2_Pilot_2,21,h_n,h_n_weak,,,,,0,1,1,1,0,59,59,59,,,,,,,,,1250.6649234999204,None,1252.6684713999275,1252.9574409999186,1252.9574409999186,1252.9652059999062,1252.9652059999062,1253.0059556999477,1253.0059556999477,None,None,0,,1253.0059556999477,None,1254.5061255999608,None,['9'],[0.31429609993938357],1254.5061255999608,None,,,,,Emoconpilot033,2021_Nov_02_1523,BackwardMask,2020.2.8,120.34852936094606,
,f,040_y_f_h_a.jpg,happy,9,16,m,016_y_m_n_a.jpg,neutral,incongruent,8,mismatch,,120,170,,2,154,block2_Pilot_2,40,h_n,h_n_weak,,,,,0,1,1,1,0,60,60,60,,,,,,,,,1257.5068455999717,None,1258.797576699988,1259.0903249999974,1259.0903249999974,1259.10693489993,1259.10693489993,1259.147868399974,1259.147868399974,None,9,0,0.7684448999352753,1259.147868399974,None,1260.6481550999451,None,['8'],[0.3001522000413388],1260.6481550999451,None,,,,,Emoconpilot033,2021_Nov_02_1523,BackwardMask,2020.2.8,120.34852936094606,
,m,008_y_m_n_a.jpg,neutral,8,4,m,004_o_m_s_a.jpg,sad,incongruent,7,match,,140,160,,18,145,block2_Pilot_2,8,n_s,n_s_strong,,,,,0,1,1,1,0,61,61,61,,,,,,,,,1263.6488631999819,None,1264.8793405999895,1265.1742410999723,1265.1742410999723,1265.3236913,1265.3236913,1265.3645679999609,1265.3645679999609,None,8,0,0.3836755999363959,1265.3645679999609,None,1266.8645419999957,None,['7'],[0.2837121000047773],1266.8645419999957,None,,,,,Emoconpilot033,2021_Nov_02_1523,BackwardMask,2020.2.8,120.34852936094606,
,f,021_o_f_s_a.jpg,sad,7,33,m,033_o_m_h_a.jpg,happy,incongruent,9,mismatch,,130,150,,1,238,block2_Pilot_2,21,s_h,s_h_strong,,,,,0,1,1,1,0,62,62,62,,,,,,,,,1269.8655020999722,None,1271.8538178999443,1272.1489216999616,1272.1489216999616,1272.157224799972,1272.157224799972,1272.198151599965,1272.198151599965,None,None,0,,1272.198151599965,None,1273.6982441999717,None,['9'],[0.3861274999799207],1273.6982441999717,None,,,,,Emoconpilot033,2021_Nov_02_1523,BackwardMask,2020.2.8,120.34852936094606,
,m,033_o_m_n_a.jpg,neutral,8,30,f,030_o_f_h_a.jpg,happy,incongruent,9,mismatch,,140,150,,18,171,block2_Pilot_2,33,n_h,n_h_weak,,,,,0,1,1,1,0,63,63,63,,,,,,,,,1276.6982106999494,None,1278.144104099949,1278.4328616999555,1278.4328616999555,1278.5823639999144,1278.5823639999144,1278.6231162999757,1278.6231162999757,None,8,0,0.3732347999466583,1278.6231162999757,None,1280.1240752999438,None,['7'],[0.32006210007239133],1280.1240752999438,None,,,,,Emoconpilot033,2021_Nov_02_1523,BackwardMask,2020.2.8,120.34852936094606,
,m,027_o_m_n_a.jpg,neutral,8,27,m,027_o_m_h_a.jpg,happy,incongruent,9,match,,140,150,,2,164,block2_Pilot_2,27,n_h,n_h_weak,,,,,0,1,1,1,0,64,64,64,,,,,,,,,1283.123973699985,None,1284.509076599963,1284.799772999948,1284.799772999948,1284.815932999947,1284.815932999947,1284.8567096999614,1284.8567096999614,None,8,0,0.49152389995288104,1284.8567096999614,None,1286.3566516999854,None,['8'],[0.543754699989222],1286.3566516999854,None,,,,,Emoconpilot033,2021_Nov_02_1523,BackwardMask,2020.2.8,120.34852936094606,
,m,008_y_m_n_a.jpg,neutral,8,40,f,040_y_f_n_a.jpg,neutral,congruent,8,mismatch,,140,170,,1,238,block2_Pilot_2,8,n_n,n_n_strong,,,,,0,1,1,1,0,65,65,65,,,,,,,,,1289.3578913999954,None,1291.3765501999296,1291.6664719999535,1291.6664719999535,1291.6742833999451,1291.6742833999451,1291.7151831999654,1291.7151831999654,None,None,0,,1291.7151831999654,None,1293.215360299917,None,['9'],[0.3168599000200629],1293.215360299917,None,,,,,Emoconpilot033,2021_Nov_02_1523,BackwardMask,2020.2.8,120.34852936094606,
,f,040_y_f_h_a.jpg,happy,9,21,f,021_o_f_n_a.jpg,neutral,incongruent,8,match,,120,170,,18,239,block2_Pilot_2,40,h_n,h_n_strong,,,,,0,1,1,1,0,66,66,66,,,,,,,,,1296.2152551999316,None,1298.215015899972,1298.507654499961,1298.507654499961,1298.6578093999997,1298.6578093999997,1298.6985304999398,1298.6985304999398,None,9,0,0.42566740000620484,1298.6985304999398,None,1300.1987308999524,None,['7'],[0.3655136999441311],1300.1987308999524,None,,,,,Emoconpilot033,2021_Nov_02_1523,BackwardMask,2020.2.8,120.34852936094606,
,f,021_o_f_s_a.jpg,sad,7,28,f,028_y_f_h_a.jpg,happy,incongruent,9,match,,130,150,,1,238,block2_Pilot_2,21,s_h,s_h_weak,,,,,0,1,1,1,0,67,67,67,,,,,,,,,1303.1987908999436,None,1305.1876838000026,1305.4828490999062,1305.4828490999062,1305.4912201999687,1305.4912201999687,1305.5321057999972,1305.5321057999972,None,None,0,,1305.5321057999972,None,1307.0321074000094,None,['9'],[0.4042562999529764],1307.0321074000094,None,,,,,Emoconpilot033,2021_Nov_02_1523,BackwardMask,2020.2.8,120.34852936094606,
,f,021_o_f_n_a.jpg,neutral,8,30,f,030_o_f_n_a.jpg,neutral,congruent,8,match,,140,170,,2,209,block2_Pilot_2,21,n_n,n_n_strong,,,,,0,1,1,1,0,68,68,68,,,,,,,,,1310.032985799946,None,1311.818663099897,1312.1085986999096,1312.1085986999096,1312.124754999997,1312.124754999997,1312.1656667999923,1312.1656667999923,None,9,0,0.8544772999593988,1312.1656667999923,None,1313.665604299982,None,['8'],[0.37060829997062683],1313.665604299982,None,,,,,Emoconpilot033,2021_Nov_02_1523,BackwardMask,2020.2.8,120.34852936094606,
,f,040_y_f_s_a.jpg,sad,7,13,m,013_y_m_s_a.jpg,sad,congruent,7,mismatch,,130,160,,3,147,block2_Pilot_2,40,s_s,s_s_strong,,,,,0,1,1,1,0,69,69,69,,,,,,,,,1316.6666270999704,None,1317.899284599931,1318.1917111999355,1318.1917111999355,1318.2164402999915,1318.2164402999915,1318.2574002000038,1318.2574002000038,None,8,0,0.5787581999320537,1318.2574002000038,None,1319.7577943999786,None,['8'],[0.5106153999222443],1319.7577943999786,None,,,,,Emoconpilot033,2021_Nov_02_1523,BackwardMask,2020.2.8,120.34852936094606,
,f,040_y_f_s_a.jpg,sad,7,21,f,021_o_f_h_a.jpg,happy,incongruent,9,match,,130,150,,3,172,block2_Pilot_2,40,s_h,s_h_strong,,,,,0,1,1,1,0,70,70,70,,,,,,,,,1322.7583350999048,None,1324.1983911999268,1324.4918421999319,1324.4918421999319,1324.5165857999818,1324.5165857999818,1324.5573790000053,1324.5573790000053,None,8,0,0.598957100068219,1324.5573790000053,None,1326.0576921999454,None,['8'],[0.3464877000078559],1326.0576921999454,None,,,,,Emoconpilot033,2021_Nov_02_1523,BackwardMask,2020.2.8,120.34852936094606,
,m,013_y_m_s_a.jpg,sad,7,16,m,016_y_m_n_a.jpg,neutral,incongruent,8,match,,130,170,,1,238,block2_Pilot_2,13,s_n,s_n_strong,,,,,0,1,1,1,0,71,71,71,,,,,,,,,1329.0576486999635,None,1331.0489743999206,1331.3417982999235,1331.3417982999235,1331.3500238999259,1331.3500238999259,1331.3908529999899,1331.3908529999899,None,None,0,,1331.3908529999899,None,1332.8913255999796,None,['9'],[0.39311970002017915],1332.8913255999796,None,,,,,Emoconpilot033,2021_Nov_02_1523,BackwardMask,2020.2.8,120.34852936094606,
