Person,primeGender,prime,primeEmotion,corrAnsPrime,targetPerson,targetGender,target,targetEmotion,Cond,corrAnsTar,gender,condition,ID_primer,ID_target,PrimerTime,PrimerTime120,JitterTime,conditionsFile,primePerson,emotion_condition,Condition,example.thisRepN,example.thisTrialN,example.thisN,example.thisIndex,readinBlocks.thisRepN,readinBlocks.thisTrialN,readinBlocks.thisN,readinBlocks.thisIndex,trials.thisRepN,trials.thisTrialN,trials.thisN,trials.thisIndex,text_intro.started,text_intro.stopped,text_probe.started,text_probe.stopped,key_resp_2.keys,key_resp_2.rt,key_resp_2.started,key_resp_2.stopped,polygon_ISI.started,polygon_ISI.stopped,polygon.started,polygon.stopped,primerImage.started,primerImage.stopped,maskImage.started,maskImage.stopped,response.started,response.stopped,key_resp.keys,key_resp.corr,key_resp.rt,key_resp.started,key_resp.stopped,text.started,text.stopped,key_resp_Rating.keys,key_resp_Rating.rt,key_resp_Rating.started,key_resp_Rating.stopped,text_start.started,text_start.stopped,text_pause.started,text_pause.stopped,participant,date,expName,psychopyVersion,frameRate,
,,,,,,,,,,,,,,,,,,,,,,,,,,,,,,,,,,23.906147700035945,28.873747100122273,28.873747100122273,None,7,21.593719699885696,23.906147700035945,None,,,,,,,,,,,,,,,,,,,,,,,,,,Emoconpilot037,2021_Nov_10_1338,BackwardMask,2020.2.8,120.04715443410903,
2,f,1113_y_f_s_a.jpg,sad,7,1,m,1111_m_m_h_a.jpg,happy,incongruent,9,mix,s+h,130,150,1,2,148,,,,,0,0,0,0,,,,,,,,,,,,,,,,,45.53184780012816,None,46.81144229997881,47.12701880000532,47.12701880000532,47.15754709998146,47.15754709998146,47.189055600203574,47.189055600203574,None,7,0,0.9428673998918384,47.189055600203574,None,48.689282700186595,None,['7'],[1.2426110999658704],48.689282700186595,None,,,,,Emoconpilot037,2021_Nov_10_1338,BackwardMask,2020.2.8,120.04715443410903,
2,f,1111_m_m_h_a.jpg,happy,9,3,f,1113_y_f_s_a.jpg,sad,incongruent,7,mix,h+s,120,160,9,18,195,,,,,0,1,1,1,,,,,,,,,,,,,,,,,51.689812400145456,None,53.334873700048774,53.62379670003429,53.62379670003429,53.77327990019694,53.77327990019694,53.814082600176334,53.814082600176334,None,9,0,0.8059029001742601,53.814082600176334,None,55.314305800013244,None,['7'],[0.5456067000050098],55.314305800013244,None,,,,,Emoconpilot037,2021_Nov_10_1338,BackwardMask,2020.2.8,120.04715443410903,
2,f,1112_m_f_n_a.jpg,neutral,8,2,f,1112_m_f_n_a.jpg,neutral,congruent,8,match,n+n,140,170,9,18,134,,,,,0,2,2,2,,,,,,,,,,,,,,,,,58.31500820000656,None,59.45173970004544,59.74084200011566,59.74084200011566,59.890170300146565,59.890170300146565,59.931095500011,59.931095500011,None,8,1,0.6088675998616964,59.931095500011,None,61.43099550018087,None,['7'],[0.8689079000614583],61.43099550018087,None,,,,,Emoconpilot037,2021_Nov_10_1338,BackwardMask,2020.2.8,120.04715443410903,
,m,033_o_m_h_a.jpg,happy,9,30,f,030_o_f_n_a.jpg,neutral,incongruent,8,mismatch,,120,170,,18,238,block1_Pilot_2,33,h_n,h_n_strong,,,,,0,0,0,0,0,0,0,0,,,,,,,,,65.46752659999765,None,67.45313500007614,67.74874459998682,67.74874459998682,67.8985646001529,67.8985646001529,67.93941170000471,67.93941170000471,None,9,0,0.49650210002437234,67.93941170000471,None,69.43988770013675,None,['7'],[0.291987800039351],69.43988770013675,None,64.43101479997858,None,None,None,Emoconpilot037,2021_Nov_10_1338,BackwardMask,2020.2.8,120.04715443410903,
,m,004_o_m_h_a.jpg,happy,9,12,f,012_o_f_h_a.jpg,happy,congruent,9,mismatch,,120,150,,2,218,block1_Pilot_2,4,h_h,h_h_weak,,,,,0,0,0,0,0,1,1,1,,,,,,,,,72.43979159998707,None,74.3190476000309,74.60764160007238,74.60764160007238,74.62392980000004,74.62392980000004,74.66450940002687,74.66450940002687,None,8,0,0.8353973000776023,74.66450940002687,None,76.16472580004483,None,['8'],[0.263204799965024],76.16472580004483,None,,,,,Emoconpilot037,2021_Nov_10_1338,BackwardMask,2020.2.8,120.04715443410903,
,f,012_o_f_h_a.jpg,happy,9,33,m,033_o_m_h_a.jpg,happy,congruent,9,mismatch,,120,150,,2,140,block1_Pilot_2,12,h_h,h_h_weak,,,,,0,0,0,0,0,2,2,2,,,,,,,,,79.16485140006989,None,80.33991950005293,80.6324299001135,80.6324299001135,80.64891810016707,80.64891810016707,80.68957230006345,80.68957230006345,None,9,1,0.6985750000458211,80.68957230006345,None,82.18986900011078,None,['8'],[0.3660871998872608],82.18986900011078,None,,,,,Emoconpilot037,2021_Nov_10_1338,BackwardMask,2020.2.8,120.04715443410903,
,f,040_y_f_n_a.jpg,neutral,8,40,f,040_y_f_h_a.jpg,happy,incongruent,9,match,,140,150,,2,192,block1_Pilot_2,40,n_h,n_h_weak,,,,,0,0,0,0,0,3,3,3,,,,,,,,,85.19004330015741,None,86.81361469998956,87.1077412001323,87.1077412001323,87.12399990018457,87.12399990018457,87.16486560017802,87.16486560017802,None,None,0,,87.16486560017802,None,88.66502430010587,None,['9'],[0.2829644000157714],88.66502430010587,None,,,,,Emoconpilot037,2021_Nov_10_1338,BackwardMask,2020.2.8,120.04715443410903,
,m,013_y_m_s_a.jpg,sad,7,16,m,016_y_m_n_a.jpg,neutral,incongruent,8,match,,130,170,,3,155,block1_Pilot_2,13,s_n,s_n_weak,,,,,0,0,0,0,0,4,4,4,,,,,,,,,91.66501110000536,None,92.96487260004506,93.25763680017553,93.25763680017553,93.28252460015938,93.28252460015938,93.32328210002743,93.32328210002743,None,8,1,0.712701000040397,93.32328210002743,None,94.82333240006119,None,['8'],[0.2846756998915225],94.82333240006119,None,,,,,Emoconpilot037,2021_Nov_10_1338,BackwardMask,2020.2.8,120.04715443410903,
,f,012_o_f_h_a.jpg,happy,9,21,f,021_o_f_h_a.jpg,happy,congruent,9,match,,120,150,,2,216,block1_Pilot_2,12,h_h,h_h_strong,,,,,0,0,0,0,0,5,5,5,,,,,,,,,97.82350410008803,None,99.6310141000431,99.92440390004776,99.92440390004776,99.94115610001609,99.94115610001609,99.98173180012964,99.98173180012964,None,None,0,,99.98173180012964,None,101.48189140018076,None,['9'],[0.7700700000859797],101.48189140018076,None,,,,,Emoconpilot037,2021_Nov_10_1338,BackwardMask,2020.2.8,120.04715443410903,
,f,040_y_f_s_a.jpg,sad,7,40,f,040_y_f_h_a.jpg,happy,incongruent,9,match,,130,150,,1,238,block1_Pilot_2,40,s_h,s_h_weak,,,,,0,0,0,0,0,6,6,6,,,,,,,,,104.48301560012624,None,106.47361420001835,106.76661400008015,106.76661400008015,106.77460420015268,106.77460420015268,106.8156785001047,106.8156785001047,None,None,0,,106.8156785001047,None,108.31591710005887,None,['9'],[0.3200393000151962],108.31591710005887,None,,,,,Emoconpilot037,2021_Nov_10_1338,BackwardMask,2020.2.8,120.04715443410903,
,m,033_o_m_n_a.jpg,neutral,8,27,m,027_o_m_n_a.jpg,neutral,congruent,8,match,,140,170,,18,238,block1_Pilot_2,33,n_n,n_n_weak,,,,,0,0,0,0,0,7,7,7,,,,,,,,,111.31608950020745,None,113.33080160012469,113.6256520000752,113.6256520000752,113.77503540017642,113.77503540017642,113.8156989000272,113.8156989000272,None,8,1,0.39646709989756346,113.8156989000272,None,115.31651410018094,None,['7'],[0.5914986999705434],115.31651410018094,None,,,,,Emoconpilot037,2021_Nov_10_1338,BackwardMask,2020.2.8,120.04715443410903,
,f,040_y_f_h_a.jpg,happy,9,19,f,019_m_f_n_a.jpg,neutral,incongruent,8,match,,120,170,,1,238,block1_Pilot_2,40,h_n,h_n_strong,,,,,0,0,0,0,0,8,8,8,,,,,,,,,118.31687730015256,None,120.30712660006247,120.60025400016457,120.60025400016457,120.60847560013644,120.60847560013644,120.64924020017497,120.64924020017497,None,None,0,,120.64924020017497,None,122.1493490000721,None,['9'],[0.2865754999220371],122.1493490000721,None,,,,,Emoconpilot037,2021_Nov_10_1338,BackwardMask,2020.2.8,120.04715443410903,
,m,013_y_m_h_a.jpg,happy,9,12,f,012_o_f_s_a.jpg,sad,incongruent,7,mismatch,,120,160,,3,198,block1_Pilot_2,13,h_s,h_s_weak,,,,,0,0,0,0,0,9,9,9,,,,,,,,,125.14946810016409,None,126.8273072000593,127.1171058001928,127.1171058001928,127.1418724001851,127.1418724001851,127.18271090020426,127.18271090020426,None,9,0,0.5813720000442117,127.18271090020426,None,128.68283529998735,None,['7'],[0.1933218000922352],128.68283529998735,None,,,,,Emoconpilot037,2021_Nov_10_1338,BackwardMask,2020.2.8,120.04715443410903,
,m,008_y_m_h_a.jpg,happy,9,4,m,004_o_m_n_a.jpg,neutral,incongruent,8,match,,120,170,,18,150,block1_Pilot_2,8,h_n,h_n_strong,,,,,0,0,0,0,0,10,10,10,,,,,,,,,131.68376779998653,None,132.94096000003628,133.23389130015858,133.23389130015858,133.3838596001733,133.3838596001733,133.4246098001022,133.4246098001022,None,9,0,0.3634649000596255,133.4246098001022,None,134.9245622002054,None,['7'],[0.2717846999876201],134.9245622002054,None,,,,,Emoconpilot037,2021_Nov_10_1338,BackwardMask,2020.2.8,120.04715443410903,
,f,019_m_f_h_a.jpg,happy,9,27,m,027_o_m_s_a.jpg,sad,incongruent,7,mismatch,,120,160,,1,238,block1_Pilot_2,19,h_s,h_s_weak,,,,,0,0,0,0,0,11,11,11,,,,,,,,,137.92559360014275,None,139.91611260012724,140.20895580016077,140.20895580016077,140.21712380019017,140.21712380019017,140.258022100199,140.258022100199,None,None,0,,140.258022100199,None,141.75798780005425,None,['9'],[0.3019330999813974],141.75798780005425,None,,,,,Emoconpilot037,2021_Nov_10_1338,BackwardMask,2020.2.8,120.04715443410903,
,m,016_y_m_s_a.jpg,sad,7,4,m,004_o_m_s_a.jpg,sad,congruent,7,match,,130,160,,18,142,block1_Pilot_2,16,s_s,s_s_strong,,,,,0,0,0,0,0,12,12,12,,,,,,,,,144.75822499999776,None,145.94902360020205,146.2423847001046,146.2423847001046,146.39227860001847,146.39227860001847,146.43313390016556,146.43313390016556,None,7,1,0.5630063000135124,146.43313390016556,None,147.93328810017556,None,['7'],[0.3986779998522252],147.93328810017556,None,,,,,Emoconpilot037,2021_Nov_10_1338,BackwardMask,2020.2.8,120.04715443410903,
,f,021_o_f_n_a.jpg,neutral,8,21,f,021_o_f_h_a.jpg,happy,incongruent,9,match,,140,150,,3,171,block1_Pilot_2,21,n_h,n_h_weak,,,,,0,0,0,0,0,13,13,13,,,,,,,,,150.93406910006888,None,152.38074240018614,152.6764185000211,152.6764185000211,152.70092370011844,152.70092370011844,152.74156440002844,152.74156440002844,None,8,0,0.5745322001166642,152.74156440002844,None,154.2416869001463,None,['7'],[0.3304188000038266],154.2416869001463,None,,,,,Emoconpilot037,2021_Nov_10_1338,BackwardMask,2020.2.8,120.04715443410903,
,f,012_o_f_h_a.jpg,happy,9,13,m,013_y_m_h_a.jpg,happy,congruent,9,mismatch,,120,150,,3,213,block1_Pilot_2,12,h_h,h_h_weak,,,,,0,0,0,0,0,14,14,14,,,,,,,,,157.24171290011145,None,159.02465940010734,159.31781430006959,159.31781430006959,159.34262170013972,159.34262170013972,159.38343470008112,159.38343470008112,None,9,1,0.5006804000586271,159.38343470008112,None,160.8833582000807,None,['7'],[0.3207403998821974],160.8833582000807,None,,,,,Emoconpilot037,2021_Nov_10_1338,BackwardMask,2020.2.8,120.04715443410903,
,f,021_o_f_s_a.jpg,sad,7,27,m,027_o_m_n_a.jpg,neutral,incongruent,8,mismatch,,130,170,,3,174,block1_Pilot_2,21,s_n,s_n_weak,,,,,0,0,0,0,0,15,15,15,,,,,,,,,163.8836785000749,None,165.33973730006255,165.63434480014257,165.63434480014257,165.65951950009912,165.65951950009912,165.70033350004815,165.70033350004815,None,8,1,0.7198268999345601,165.70033350004815,None,167.20038620010018,None,['7'],[0.46771120000630617],167.20038620010018,None,,,,,Emoconpilot037,2021_Nov_10_1338,BackwardMask,2020.2.8,120.04715443410903,
,f,019_m_f_n_a.jpg,neutral,8,19,f,019_m_f_h_a.jpg,happy,incongruent,9,match,,140,150,,3,238,block1_Pilot_2,19,n_h,n_h_weak,,,,,0,0,0,0,0,16,16,16,,,,,,,,,170.20052910014056,None,172.22463409998454,172.5184547000099,172.5184547000099,172.54286590008996,172.54286590008996,172.58369970018975,172.58369970018975,None,8,0,0.6204347999300808,172.58369970018975,None,174.08379390020855,None,['7'],[0.49631899991072714],174.08379390020855,None,,,,,Emoconpilot037,2021_Nov_10_1338,BackwardMask,2020.2.8,120.04715443410903,
,f,028_y_f_n_a.jpg,neutral,8,30,f,030_o_f_s_a.jpg,sad,incongruent,7,match,,140,160,,18,219,block1_Pilot_2,28,n_s,n_s_weak,,,,,0,0,0,0,0,17,17,17,,,,,,,,,177.08474780013785,None,178.92864420008846,179.21853490010835,179.21853490010835,179.3680990000721,179.3680990000721,179.40881599998102,179.40881599998102,None,8,0,0.3633386001456529,179.40881599998102,None,180.90883900015615,None,['7'],[0.2631397000513971],180.90883900015615,None,,,,,Emoconpilot037,2021_Nov_10_1338,BackwardMask,2020.2.8,120.04715443410903,
,m,008_y_m_h_a.jpg,happy,9,8,m,008_y_m_s_a.jpg,sad,incongruent,7,match,,120,160,,3,176,block1_Pilot_2,8,h_s,h_s_weak,,,,,0,0,0,0,0,18,18,18,,,,,,,,,183.9089628001675,None,185.38344190013595,185.67656350019388,185.67656350019388,185.70147950015962,185.70147950015962,185.74232680001296,185.74232680001296,None,9,0,0.5336543000303209,185.74232680001296,None,187.242389800027,None,['7'],[0.28967530000954866],187.242389800027,None,,,,,Emoconpilot037,2021_Nov_10_1338,BackwardMask,2020.2.8,120.04715443410903,
,f,019_m_f_h_a.jpg,happy,9,33,m,033_o_m_n_a.jpg,neutral,incongruent,8,mismatch,,120,170,,18,136,block1_Pilot_2,19,h_n,h_n_weak,,,,,0,0,0,0,0,19,19,19,,,,,,,,,190.24238710012287,None,191.3831309999805,191.67652059998363,191.67652059998363,191.82639410020784,191.82639410020784,191.86745850020088,191.86745850020088,None,9,0,0.40860409988090396,191.86745850020088,None,193.3674525001552,None,['7'],[0.27657860005274415],193.3674525001552,None,,,,,Emoconpilot037,2021_Nov_10_1338,BackwardMask,2020.2.8,120.04715443410903,
,m,013_y_m_n_a.jpg,neutral,8,12,f,012_o_f_s_a.jpg,sad,incongruent,7,mismatch,,140,160,,2,132,block1_Pilot_2,13,n_s,n_s_strong,,,,,0,0,0,0,0,20,20,20,,,,,,,,,196.36837450019084,None,197.48839850001968,197.77723060012795,197.77723060012795,197.79339510016143,197.79339510016143,197.83426760020666,197.83426760020666,None,8,0,0.5937650999985635,197.83426760020666,None,199.33523650001734,None,['8'],[0.2928347000852227],199.33523650001734,None,,,,,Emoconpilot037,2021_Nov_10_1338,BackwardMask,2020.2.8,120.04715443410903,
,f,040_y_f_s_a.jpg,sad,7,8,m,008_y_m_h_a.jpg,happy,incongruent,9,mismatch,,130,150,,2,175,block1_Pilot_2,40,s_h,s_h_weak,,,,,0,0,0,0,0,21,21,21,,,,,,,,,202.334346299991,None,203.80078650009818,204.09361980017275,204.09361980017275,204.11021960014477,204.11021960014477,204.15088280010968,204.15088280010968,None,8,0,0.5811844000127167,204.15088280010968,None,205.65104270004667,None,['8'],[0.10501810000278056],205.65104270004667,None,,,,,Emoconpilot037,2021_Nov_10_1338,BackwardMask,2020.2.8,120.04715443410903,
,m,004_o_m_h_a.jpg,happy,9,40,f,040_y_f_s_a.jpg,sad,incongruent,7,mismatch,,120,160,,2,193,block1_Pilot_2,4,h_s,h_s_weak,,,,,0,0,0,0,0,22,22,22,,,,,,,,,208.6513640000485,None,210.28272490017116,210.57754420000128,210.57754420000128,210.5936613001395,210.5936613001395,210.6344821001403,210.6344821001403,None,None,0,,210.6344821001403,None,212.13461770000868,None,['9'],[0.3735142999794334],212.13461770000868,None,,,,,Emoconpilot037,2021_Nov_10_1338,BackwardMask,2020.2.8,120.04715443410903,
,f,028_y_f_s_a.jpg,sad,7,13,m,013_y_m_n_a.jpg,neutral,incongruent,8,mismatch,,130,170,,2,126,block1_Pilot_2,28,s_n,s_n_weak,,,,,0,0,0,0,0,23,23,23,,,,,,,,,215.13490090006962,None,216.19568420015275,216.48557750019245,216.48557750019245,216.50223660003394,216.50223660003394,216.5430984001141,216.5430984001141,None,8,1,0.5649882999714464,216.5430984001141,None,218.04314830014482,None,['8'],[0.12895729998126626],218.04314830014482,None,,,,,Emoconpilot037,2021_Nov_10_1338,BackwardMask,2020.2.8,120.04715443410903,
,m,004_o_m_h_a.jpg,happy,9,40,f,040_y_f_n_a.jpg,neutral,incongruent,8,mismatch,,120,170,,3,146,block1_Pilot_2,4,h_n,h_n_strong,,,,,0,0,0,0,0,24,24,24,,,,,,,,,221.0432657999918,None,222.28973509999923,222.58595110010356,222.58595110010356,222.6105481002014,222.6105481002014,222.6513873001095,222.6513873001095,None,9,0,0.5525817000307143,222.6513873001095,None,224.1514998001512,None,['7'],[0.26064280001446605],224.1514998001512,None,,,,,Emoconpilot037,2021_Nov_10_1338,BackwardMask,2020.2.8,120.04715443410903,
,m,008_y_m_s_a.jpg,sad,7,30,f,030_o_f_n_a.jpg,neutral,incongruent,8,mismatch,,130,170,,3,132,block1_Pilot_2,8,s_n,s_n_strong,,,,,0,0,0,0,0,25,25,25,,,,,,,,,227.15235200012103,None,228.27063000015914,228.56119520007633,228.56119520007633,228.5857114000246,228.5857114000246,228.62647310015745,228.62647310015745,None,7,0,0.6976496998686343,228.62647310015745,None,230.12642660015263,None,['7'],[0.30162070016376674],230.12642660015263,None,,,,,Emoconpilot037,2021_Nov_10_1338,BackwardMask,2020.2.8,120.04715443410903,
,f,040_y_f_n_a.jpg,neutral,8,40,f,040_y_f_s_a.jpg,sad,incongruent,7,match,,140,160,,2,123,block1_Pilot_2,40,n_s,n_s_weak,,,,,0,0,0,0,0,26,26,26,,,,,,,,,233.12714250013232,None,234.1720517000649,234.46125350007787,234.46125350007787,234.4774955001194,234.4774955001194,234.51837519998662,234.51837519998662,None,None,0,,234.51837519998662,None,236.01842400012538,None,['9'],[0.2897091000340879],236.01842400012538,None,,,,,Emoconpilot037,2021_Nov_10_1338,BackwardMask,2020.2.8,120.04715443410903,
,f,028_y_f_s_a.jpg,sad,7,27,m,027_o_m_s_a.jpg,sad,congruent,7,mismatch,,130,160,,3,159,block1_Pilot_2,28,s_s,s_s_weak,,,,,0,0,0,0,0,27,27,27,,,,,,,,,239.01944910013117,None,240.3551265001297,240.64439969998784,240.64439969998784,240.6695046001114,240.6695046001114,240.71008880017325,240.71008880017325,None,8,0,0.6460452999453992,240.71008880017325,None,242.2102020001039,None,['8'],[0.41780580021440983],242.2102020001039,None,,,,,Emoconpilot037,2021_Nov_10_1338,BackwardMask,2020.2.8,120.04715443410903,
,f,012_o_f_s_a.jpg,sad,7,27,m,027_o_m_s_a.jpg,sad,congruent,7,mismatch,,130,160,,18,166,block1_Pilot_2,12,s_s,s_s_weak,,,,,0,0,0,0,0,28,28,28,,,,,,,,,245.21035670000128,None,246.59924300014973,246.89436980010942,246.89436980010942,247.0444164001383,247.0444164001383,247.08528600004502,247.08528600004502,None,7,1,0.5028331999201328,247.08528600004502,None,248.58522950019687,None,['7'],[0.20298060006462038],248.58522950019687,None,,,,,Emoconpilot037,2021_Nov_10_1338,BackwardMask,2020.2.8,120.04715443410903,
,f,028_y_f_n_a.jpg,neutral,8,28,f,028_y_f_h_a.jpg,happy,incongruent,9,match,,140,150,,2,186,block1_Pilot_2,28,n_h,n_h_weak,,,,,0,0,0,0,0,29,29,29,,,,,,,,,251.58570270007476,None,253.1692429999821,253.4616524002049,253.4616524002049,253.47773899999447,253.47773899999447,253.51873370003887,253.51873370003887,None,8,0,0.6694779000245035,253.51873370003887,None,255.01873920019716,None,['8'],[0.289274699985981],255.01873920019716,None,,,,,Emoconpilot037,2021_Nov_10_1338,BackwardMask,2020.2.8,120.04715443410903,
,m,027_o_m_n_a.jpg,neutral,8,16,m,016_y_m_n_a.jpg,neutral,congruent,8,match,,140,170,,2,188,block1_Pilot_2,27,n_n,n_n_weak,,,,,0,0,0,0,0,30,30,30,,,,,,,,,258.0195277000312,None,259.6054929001257,259.89523410005495,259.89523410005495,259.9113009001594,259.9113009001594,259.95225640013814,259.95225640013814,None,None,0,,259.95225640013814,None,261.45218470017426,None,['9'],[0.31192979984916747],261.45218470017426,None,,,,,Emoconpilot037,2021_Nov_10_1338,BackwardMask,2020.2.8,120.04715443410903,
,f,012_o_f_s_a.jpg,sad,7,13,m,013_y_m_n_a.jpg,neutral,incongruent,8,mismatch,,130,170,,3,162,block1_Pilot_2,12,s_n,s_n_strong,,,,,0,0,0,0,0,31,31,31,,,,,,,,,264.4523699001875,None,265.8055545000825,266.102925500134,266.102925500134,266.1279699001461,266.1279699001461,266.16905790008605,266.16905790008605,None,8,1,0.723028700100258,266.16905790008605,None,267.6692642001435,None,['8'],[1.0787639999762177],267.6692642001435,None,,,,,Emoconpilot037,2021_Nov_10_1338,BackwardMask,2020.2.8,120.04715443410903,
,f,012_o_f_s_a.jpg,sad,7,16,m,016_y_m_h_a.jpg,happy,incongruent,9,mismatch,,130,150,,1,238,block1_Pilot_2,12,s_h,s_h_strong,,,,,0,0,0,0,0,32,32,32,,,,,,,,,270.6699064001441,None,272.65515890019014,272.953234200133,272.953234200133,272.96160749997944,272.96160749997944,273.00244230008684,273.00244230008684,None,None,0,,273.00244230008684,None,274.5024520000443,None,['9'],[0.23745430004782975],274.5024520000443,None,,,,,Emoconpilot037,2021_Nov_10_1338,BackwardMask,2020.2.8,120.04715443410903,
,f,028_y_f_n_a.jpg,neutral,8,21,f,021_o_f_n_a.jpg,neutral,congruent,8,match,,140,170,,3,220,block1_Pilot_2,28,n_n,n_n_weak,,,,,0,0,0,0,0,33,33,33,,,,,,,,,277.50252690003254,None,279.35659490013495,279.6455739000812,279.6455739000812,279.67014810000546,279.67014810000546,279.71091800020076,279.71091800020076,None,8,1,0.5091840999666601,279.71091800020076,None,281.21104450011626,None,['8'],[0.3049405000638217],281.21104450011626,None,,,,,Emoconpilot037,2021_Nov_10_1338,BackwardMask,2020.2.8,120.04715443410903,
,f,040_y_f_h_a.jpg,happy,9,33,m,033_o_m_s_a.jpg,sad,incongruent,7,mismatch,,120,160,,2,194,block1_Pilot_2,40,h_s,h_s_weak,,,,,0,0,0,0,0,34,34,34,,,,,,,,,284.2119901999831,None,285.8366475000512,286.12882260000333,286.12882260000333,286.14510730002075,286.14510730002075,286.18596330005676,286.18596330005676,None,None,0,,286.18596330005676,None,287.686034000013,None,['9'],[0.2539003000129014],287.686034000013,None,,,,,Emoconpilot037,2021_Nov_10_1338,BackwardMask,2020.2.8,120.04715443410903,
,f,028_y_f_h_a.jpg,happy,9,8,m,008_y_m_n_a.jpg,neutral,incongruent,8,mismatch,,120,170,,3,162,block1_Pilot_2,28,h_n,h_n_weak,,,,,0,0,0,0,0,35,35,35,,,,,,,,,290.68615530012175,None,292.04623970016837,292.3370038000867,292.3370038000867,292.3620190001093,292.3620190001093,292.4028571001254,292.4028571001254,None,9,0,0.5692573999986053,292.4028571001254,None,293.9030515002087,None,['7'],[0.2769408000167459],293.9030515002087,None,,,,,Emoconpilot037,2021_Nov_10_1338,BackwardMask,2020.2.8,120.04715443410903,
,m,013_y_m_n_a.jpg,neutral,8,27,m,027_o_m_n_a.jpg,neutral,congruent,8,match,,140,170,,2,126,block1_Pilot_2,13,n_n,n_n_strong,,,,,0,0,0,0,0,36,36,36,,,,,,,,,296.90306890010834,None,298.00559920002706,298.2958138000686,298.2958138000686,298.3122380999848,298.3122380999848,298.3529752001632,298.3529752001632,None,8,1,0.5470827999524772,298.3529752001632,None,299.8529777000658,None,['8'],[0.22317539993673563],299.8529777000658,None,,,,,Emoconpilot037,2021_Nov_10_1338,BackwardMask,2020.2.8,120.04715443410903,
,f,028_y_f_s_a.jpg,sad,7,19,f,019_m_f_n_a.jpg,neutral,incongruent,8,match,,130,170,,2,156,block1_Pilot_2,28,s_n,s_n_strong,,,,,0,0,0,0,0,37,37,37,,,,,,,,,302.8532319001388,None,304.1636700001545,304.45373940002173,304.45373940002173,304.47051780018955,304.47051780018955,304.5114937000908,304.5114937000908,None,8,1,0.6526262999977916,304.5114937000908,None,306.0113998001907,None,['8'],[0.21663210005499423],306.0113998001907,None,,,,,Emoconpilot037,2021_Nov_10_1338,BackwardMask,2020.2.8,120.04715443410903,
,m,016_y_m_s_a.jpg,sad,7,19,f,019_m_f_n_a.jpg,neutral,incongruent,8,mismatch,,130,170,,3,138,block1_Pilot_2,16,s_n,s_n_weak,,,,,0,0,0,0,0,38,38,38,,,,,,,,,309.0115418001078,None,310.1706722001545,310.4626003000885,310.4626003000885,310.4870966000017,310.4870966000017,310.5283282001037,310.5283282001037,None,8,1,0.7157711000181735,310.5283282001037,None,312.02829530020244,None,['8'],[0.23992109997197986],312.02829530020244,None,,,,,Emoconpilot037,2021_Nov_10_1338,BackwardMask,2020.2.8,120.04715443410903,
,m,033_o_m_s_a.jpg,sad,7,27,m,027_o_m_n_a.jpg,neutral,incongruent,8,match,,130,170,,3,120,block1_Pilot_2,33,s_n,s_n_strong,,,,,0,0,0,0,0,39,39,39,,,,,,,,,315.0290932999924,None,316.03650540020317,316.3296080001164,316.3296080001164,316.35415590018965,316.35415590018965,316.3950732999947,316.3950732999947,None,None,0,,316.3950732999947,None,317.8952954001725,None,['9'],[0.2928844999987632],317.8952954001725,None,,,,,Emoconpilot037,2021_Nov_10_1338,BackwardMask,2020.2.8,120.04715443410903,
,f,040_y_f_s_a.jpg,sad,7,33,m,033_o_m_n_a.jpg,neutral,incongruent,8,mismatch,,130,170,,1,238,block1_Pilot_2,40,s_n,s_n_weak,,,,,0,0,0,0,0,40,40,40,,,,,,,,,320.89524810016155,None,322.8866332001053,323.17956710001454,323.17956710001454,323.18755790009163,323.18755790009163,323.2284060001839,323.2284060001839,None,None,0,,323.2284060001839,None,324.728691900149,None,['9'],[0.29957809997722507],324.728691900149,None,,,,,Emoconpilot037,2021_Nov_10_1338,BackwardMask,2020.2.8,120.04715443410903,
,f,021_o_f_n_a.jpg,neutral,8,19,f,019_m_f_s_a.jpg,sad,incongruent,7,match,,140,160,,1,238,block1_Pilot_2,21,n_s,n_s_strong,,,,,0,0,0,0,0,41,41,41,,,,,,,,,327.7292851000093,None,329.73416590015404,330.0301145000849,330.0301145000849,330.03782570012845,330.03782570012845,330.07863180013373,330.07863180013373,None,None,0,,330.07863180013373,None,331.57880050013773,None,['9'],[0.37735339999198914],331.57880050013773,None,,,,,Emoconpilot037,2021_Nov_10_1338,BackwardMask,2020.2.8,120.04715443410903,
,m,033_o_m_h_a.jpg,happy,9,27,m,027_o_m_h_a.jpg,happy,congruent,9,match,,120,150,,3,134,block1_Pilot_2,33,h_h,h_h_weak,,,,,0,0,0,0,0,42,42,42,,,,,,,,,334.57867980003357,None,335.7031686999835,335.99651640001684,335.99651640001684,336.021247100085,336.021247100085,336.06217910000123,336.06217910000123,None,9,1,0.5418227000627667,336.06217910000123,None,337.56211600010283,None,['7'],[0.3538778000511229],337.56211600010283,None,,,,,Emoconpilot037,2021_Nov_10_1338,BackwardMask,2020.2.8,120.04715443410903,
,f,040_y_f_s_a.jpg,sad,7,4,m,004_o_m_h_a.jpg,happy,incongruent,9,mismatch,,130,150,,2,225,block1_Pilot_2,40,s_h,s_h_strong,,,,,0,0,0,0,0,43,43,43,,,,,,,,,340.56245430000126,None,342.44562570005655,342.7380999000743,342.7380999000743,342.75466289999895,342.75466289999895,342.7954425001517,342.7954425001517,None,8,0,0.8406221999321133,342.7954425001517,None,344.2955498001538,None,['8'],[0.7727059000171721],344.2955498001538,None,,,,,Emoconpilot037,2021_Nov_10_1338,BackwardMask,2020.2.8,120.04715443410903,
,m,027_o_m_s_a.jpg,sad,7,21,f,021_o_f_n_a.jpg,neutral,incongruent,8,mismatch,,130,170,,18,238,block1_Pilot_2,27,s_n,s_n_weak,,,,,0,0,0,0,0,44,44,44,,,,,,,,,347.29573680018075,None,349.2872150000185,349.57998930010945,349.57998930010945,349.7296836001333,349.7296836001333,349.77062920015305,349.77062920015305,None,8,1,0.44153730012476444,349.77062920015305,None,351.2706252001226,None,['7'],[0.3895281001459807],351.2706252001226,None,,,,,Emoconpilot037,2021_Nov_10_1338,BackwardMask,2020.2.8,120.04715443410903,
,m,016_y_m_h_a.jpg,happy,9,16,m,016_y_m_n_a.jpg,neutral,incongruent,8,match,,120,170,,3,202,block1_Pilot_2,16,h_n,h_n_weak,,,,,0,0,0,0,0,45,45,45,,,,,,,,,354.27097840001807,None,355.9611535000149,356.25509830005467,356.25509830005467,356.279798100004,356.279798100004,356.32057760003954,356.32057760003954,None,9,0,0.5315252000000328,356.32057760003954,None,357.8210065001622,None,['7'],[0.23915149993263185],357.8210065001622,None,,,,,Emoconpilot037,2021_Nov_10_1338,BackwardMask,2020.2.8,120.04715443410903,
,m,033_o_m_h_a.jpg,happy,9,13,m,013_y_m_n_a.jpg,neutral,incongruent,8,match,,120,170,,2,150,block1_Pilot_2,33,h_n,h_n_weak,,,,,0,0,0,0,0,46,46,46,,,,,,,,,360.8218259001151,None,362.07804669998586,362.3719054001849,362.3719054001849,362.38839780003764,362.38839780003764,362.4291095000226,362.4291095000226,None,8,1,0.7428825001697987,362.4291095000226,None,363.92921030009165,None,['8'],[0.23497330001555383],363.92921030009165,None,,,,,Emoconpilot037,2021_Nov_10_1338,BackwardMask,2020.2.8,120.04715443410903,
,f,012_o_f_n_a.jpg,neutral,8,16,m,016_y_m_n_a.jpg,neutral,congruent,8,mismatch,,140,170,,1,238,block1_Pilot_2,12,n_n,n_n_strong,,,,,0,0,0,0,0,47,47,47,,,,,,,,,366.92942430009134,None,368.9427051001694,369.23911190009676,369.23911190009676,369.2469256001059,369.2469256001059,369.2879218000453,369.2879218000453,None,None,0,,369.2879218000453,None,370.78768750000745,None,['9'],[0.28824359993450344],370.78768750000745,None,,,,,Emoconpilot037,2021_Nov_10_1338,BackwardMask,2020.2.8,120.04715443410903,
,f,040_y_f_n_a.jpg,neutral,8,30,f,030_o_f_h_a.jpg,happy,incongruent,9,match,,140,150,,2,194,block1_Pilot_2,40,n_h,n_h_strong,,,,,0,0,0,0,0,48,48,48,,,,,,,,,373.78865900007077,None,375.42426580004394,375.71443850011565,375.71443850011565,375.73036490008235,375.73036490008235,375.77121260017157,375.77121260017157,None,None,0,,375.77121260017157,None,377.2712681000121,None,['9'],[0.29280080017633736],377.2712681000121,None,,,,,Emoconpilot037,2021_Nov_10_1338,BackwardMask,2020.2.8,120.04715443410903,
,m,013_y_m_n_a.jpg,neutral,8,12,f,012_o_f_s_a.jpg,sad,incongruent,7,mismatch,,140,160,,18,238,block1_Pilot_2,13,n_s,n_s_weak,,,,,0,0,0,0,0,49,49,49,,,,,,,,,380.27202690020204,None,382.27440710016526,382.56432030000724,382.56432030000724,382.7138166001532,382.7138166001532,382.7547634001821,382.7547634001821,None,8,0,0.43326360010541975,382.7547634001821,None,384.2547313000541,None,['7'],[0.24541780003346503],384.2547313000541,None,,,,,Emoconpilot037,2021_Nov_10_1338,BackwardMask,2020.2.8,120.04715443410903,
,f,012_o_f_h_a.jpg,happy,9,12,f,012_o_f_n_a.jpg,neutral,incongruent,8,match,,120,170,,2,125,block1_Pilot_2,12,h_n,h_n_strong,,,,,0,0,0,0,0,50,50,50,,,,,,,,,387.2549088001251,None,388.3046850000974,388.5975041000638,388.5975041000638,388.6140203999821,388.6140203999821,388.6548345000483,388.6548345000483,None,None,0,,388.6548345000483,None,390.15500949998386,None,['9'],[0.289226199965924],390.15500949998386,None,,,,,Emoconpilot037,2021_Nov_10_1338,BackwardMask,2020.2.8,120.04715443410903,
,m,008_y_m_s_a.jpg,sad,7,19,f,019_m_f_s_a.jpg,sad,congruent,7,mismatch,,130,160,,2,202,block1_Pilot_2,8,s_s,s_s_strong,,,,,0,0,0,0,0,51,51,51,,,,,,,,,393.15512080001645,None,394.859866600018,395.1561861000955,395.1561861000955,395.1723540001549,395.1723540001549,395.21311460016295,395.21311460016295,None,None,0,,395.21311460016295,None,396.71344289998524,None,['9'],[0.25853380002081394],396.71344289998524,None,,,,,Emoconpilot037,2021_Nov_10_1338,BackwardMask,2020.2.8,120.04715443410903,
,f,028_y_f_n_a.jpg,neutral,8,12,f,012_o_f_n_a.jpg,neutral,congruent,8,match,,140,170,,2,214,block1_Pilot_2,28,n_n,n_n_strong,,,,,0,0,0,0,0,52,52,52,,,,,,,,,399.71426560007967,None,401.5153557001613,401.8061749001499,401.8061749001499,401.822129300097,401.822129300097,401.8634350001812,401.8634350001812,None,8,1,0.6365960000548512,401.8634350001812,None,403.36330940015614,None,['8'],[0.2647883000317961],403.36330940015614,None,,,,,Emoconpilot037,2021_Nov_10_1338,BackwardMask,2020.2.8,120.04715443410903,
,m,027_o_m_h_a.jpg,happy,9,19,f,019_m_f_h_a.jpg,happy,congruent,9,mismatch,,120,150,,3,165,block1_Pilot_2,27,h_h,h_h_strong,,,,,0,0,0,0,0,53,53,53,,,,,,,,,406.3636745000258,None,407.75784830003977,408.04811060009524,408.04811060009524,408.07236800016835,408.07236800016835,408.11324680014513,408.11324680014513,None,9,1,0.4427744001150131,408.11324680014513,None,409.61331759998575,None,['7'],[0.23868299997411668],409.61331759998575,None,,,,,Emoconpilot037,2021_Nov_10_1338,BackwardMask,2020.2.8,120.04715443410903,
,m,008_y_m_s_a.jpg,sad,7,13,m,013_y_m_h_a.jpg,happy,incongruent,9,match,,130,150,,18,200,block1_Pilot_2,8,s_h,s_h_strong,,,,,0,0,0,0,0,54,54,54,,,,,,,,,412.6136146001518,None,414.2993322000839,414.58988290000707,414.58988290000707,414.73921929998323,414.73921929998323,414.78011920000426,414.78011920000426,None,7,0,0.41602910007350147,414.78011920000426,None,416.280106500024,None,['7'],[0.2680219002068043],416.280106500024,None,,,,,Emoconpilot037,2021_Nov_10_1338,BackwardMask,2020.2.8,120.04715443410903,
,f,030_o_f_n_a.jpg,neutral,8,28,f,028_y_f_s_a.jpg,sad,incongruent,7,match,,140,160,,18,238,block1_Pilot_2,30,n_s,n_s_weak,,,,,0,0,0,0,0,55,55,55,,,,,,,,,419.2804586000275,None,421.28273029997945,421.573348400183,421.573348400183,421.722878200002,421.722878200002,421.7636347000953,421.7636347000953,None,8,0,0.5605286001227796,421.7636347000953,None,423.2637167000212,None,['7'],[0.2923584000673145],423.2637167000212,None,,,,,Emoconpilot037,2021_Nov_10_1338,BackwardMask,2020.2.8,120.04715443410903,
,f,019_m_f_h_a.jpg,happy,9,27,m,027_o_m_h_a.jpg,happy,congruent,9,mismatch,,120,150,,1,238,block1_Pilot_2,19,h_h,h_h_strong,,,,,0,0,0,0,0,56,56,56,,,,,,,,,426.2638411000371,None,428.2550288999919,428.5480551000219,428.5480551000219,428.5563684999943,428.5563684999943,428.59709030017257,428.59709030017257,None,None,0,,428.59709030017257,None,430.0971192000434,None,['9'],[0.2590006999671459],430.0971192000434,None,,,,,Emoconpilot037,2021_Nov_10_1338,BackwardMask,2020.2.8,120.04715443410903,
,m,004_o_m_s_a.jpg,sad,7,4,m,004_o_m_h_a.jpg,happy,incongruent,9,match,,130,150,,18,155,block1_Pilot_2,4,s_h,s_h_weak,,,,,0,0,0,0,0,57,57,57,,,,,,,,,433.09734540013596,None,434.3952909000218,434.69002140010707,434.69002140010707,434.8395964000374,434.8395964000374,434.88054829998873,434.88054829998873,None,7,0,0.7795669001061469,434.88054829998873,None,436.380574000068,None,['7'],[0.35148570011369884],436.380574000068,None,,,,,Emoconpilot037,2021_Nov_10_1338,BackwardMask,2020.2.8,120.04715443410903,
,f,021_o_f_s_a.jpg,sad,7,27,m,027_o_m_n_a.jpg,neutral,incongruent,8,mismatch,,130,170,,3,224,block1_Pilot_2,21,s_n,s_n_weak,,,,,0,0,0,0,0,58,58,58,,,,,,,,,439.3807777001057,None,441.2540253000334,441.54827430006117,441.54827430006117,441.57319690007716,441.57319690007716,441.6140591001604,441.6140591001604,None,8,1,0.8539722000714391,441.6140591001604,None,443.11414860002697,None,['8'],[0.23386380006559193],443.11414860002697,None,,,,,Emoconpilot037,2021_Nov_10_1338,BackwardMask,2020.2.8,120.04715443410903,
,f,021_o_f_h_a.jpg,happy,9,27,m,027_o_m_n_a.jpg,neutral,incongruent,8,mismatch,,120,170,,2,147,block1_Pilot_2,21,h_n,h_n_strong,,,,,0,0,0,0,0,59,59,59,,,,,,,,,446.11419420014136,None,447.373026000103,447.665521300165,447.665521300165,447.68163380003534,447.68163380003534,447.722718300065,447.722718300065,None,9,0,0.4894123999401927,447.722718300065,None,449.2225003000349,None,['8'],[0.1896618001628667],449.2225003000349,None,,,,,Emoconpilot037,2021_Nov_10_1338,BackwardMask,2020.2.8,120.04715443410903,
,f,040_y_f_n_a.jpg,neutral,8,13,m,013_y_m_h_a.jpg,happy,incongruent,9,mismatch,,140,150,,3,237,block1_Pilot_2,40,n_h,n_h_strong,,,,,0,0,0,0,0,60,60,60,,,,,,,,,452.22266700002365,None,454.2177485001739,454.5072757001035,454.5072757001035,454.5317189001944,454.5317189001944,454.57258200016804,454.57258200016804,None,8,0,0.5674583001527935,454.57258200016804,None,456.0726185000967,None,['7'],[0.3394917999394238],456.0726185000967,None,,,,,Emoconpilot037,2021_Nov_10_1338,BackwardMask,2020.2.8,120.04715443410903,
,m,027_o_m_n_a.jpg,neutral,8,19,f,019_m_f_h_a.jpg,happy,incongruent,9,mismatch,,140,150,,3,199,block1_Pilot_2,27,n_h,n_h_strong,,,,,0,0,0,0,0,61,61,61,,,,,,,,,459.0729687002022,None,460.75587870017625,461.0492698000744,461.0492698000744,461.07348910020664,461.07348910020664,461.11451430013403,461.11451430013403,None,8,0,0.505525300046429,461.11451430013403,None,462.61460590013303,None,['7'],[0.26958269998431206],462.61460590013303,None,,,,,Emoconpilot037,2021_Nov_10_1338,BackwardMask,2020.2.8,120.04715443410903,
,m,027_o_m_h_a.jpg,happy,9,21,f,021_o_f_s_a.jpg,sad,incongruent,7,mismatch,,120,160,,2,169,block1_Pilot_2,27,h_s,h_s_strong,,,,,0,0,0,0,0,62,62,62,,,,,,,,,465.614665400004,None,467.04243850009516,467.332854000153,467.332854000153,467.3486562001053,467.3486562001053,467.3895854000002,467.3895854000002,None,8,0,0.7184747001156211,467.3895854000002,None,468.8896620001178,None,['8'],[0.23447220004163682],468.8896620001178,None,,,,,Emoconpilot037,2021_Nov_10_1338,BackwardMask,2020.2.8,120.04715443410903,
,m,013_y_m_n_a.jpg,neutral,8,33,m,033_o_m_h_a.jpg,happy,incongruent,9,match,,140,150,,18,238,block1_Pilot_2,13,n_h,n_h_strong,,,,,0,0,0,0,0,63,63,63,,,,,,,,,471.8897057999857,None,473.891835300019,474.18315100017935,474.18315100017935,474.33223420009017,474.33223420009017,474.37295260000974,474.37295260000974,None,8,0,0.4392000997904688,474.37295260000974,None,475.8732200001832,None,['7'],[0.25870519992895424],475.8732200001832,None,,,,,Emoconpilot037,2021_Nov_10_1338,BackwardMask,2020.2.8,120.04715443410903,
,m,033_o_m_n_a.jpg,neutral,8,30,f,030_o_f_s_a.jpg,sad,incongruent,7,mismatch,,140,160,,1,238,block1_Pilot_2,33,n_s,n_s_weak,,,,,0,0,0,0,0,64,64,64,,,,,,,,,478.87328100018203,None,480.87744310009293,481.16611610003747,481.16611610003747,481.17394130001776,481.17394130001776,481.21492080017924,481.21492080017924,None,None,0,,481.21492080017924,None,482.71485480014235,None,['9'],[0.3372038002125919],482.71485480014235,None,,,,,Emoconpilot037,2021_Nov_10_1338,BackwardMask,2020.2.8,120.04715443410903,
,m,033_o_m_s_a.jpg,sad,7,4,m,004_o_m_s_a.jpg,sad,congruent,7,match,,130,160,,18,146,block1_Pilot_2,33,s_s,s_s_weak,,,,,0,0,0,0,0,65,65,65,,,,,,,,,485.7155178000685,None,486.93952550017275,487.2325546001084,487.2325546001084,487.3825165000744,487.3825165000744,487.4231694000773,487.4231694000773,None,8,0,0.37296609999611974,487.4231694000773,None,488.92340370011516,None,['7'],[0.28853189991787076],488.92340370011516,None,,,,,Emoconpilot037,2021_Nov_10_1338,BackwardMask,2020.2.8,120.04715443410903,
,m,016_y_m_s_a.jpg,sad,7,28,f,028_y_f_h_a.jpg,happy,incongruent,9,mismatch,,130,150,,18,238,block1_Pilot_2,16,s_h,s_h_strong,,,,,0,0,0,0,0,66,66,66,,,,,,,,,491.923557800008,None,493.91478160000406,494.20766369998455,494.20766369998455,494.3576398000587,494.3576398000587,494.39843250019476,494.39843250019476,None,9,1,0.42953060008585453,494.39843250019476,None,495.8984867001418,None,None,,495.8984867001418,None,,,,,Emoconpilot037,2021_Nov_10_1338,BackwardMask,2020.2.8,120.04715443410903,
,f,030_o_f_h_a.jpg,happy,9,28,f,028_y_f_h_a.jpg,happy,congruent,9,match,,120,150,,3,234,block1_Pilot_2,30,h_h,h_h_weak,,,,,0,0,0,0,0,67,67,67,,,,,,,,,498.898609300144,None,500.8710912000388,501.16676010005176,501.16676010005176,501.1910030001309,501.1910030001309,501.2319969001692,501.2319969001692,None,9,1,0.5479393000714481,501.2319969001692,None,502.73210170003586,None,['7'],[0.27199029992334545],502.73210170003586,None,,,,,Emoconpilot037,2021_Nov_10_1338,BackwardMask,2020.2.8,120.04715443410903,
,m,013_y_m_h_a.jpg,happy,9,4,m,004_o_m_h_a.jpg,happy,congruent,9,match,,120,150,,2,141,block1_Pilot_2,13,h_h,h_h_strong,,,,,0,0,0,0,0,68,68,68,,,,,,,,,505.7321490000468,None,506.92600810015574,507.21672880020924,507.21672880020924,507.2328953000251,507.2328953000251,507.27367810020223,507.27367810020223,None,9,1,0.6984816999174654,507.27367810020223,None,508.7736792000942,None,['8'],[0.3104643998667598],508.7736792000942,None,,,,,Emoconpilot037,2021_Nov_10_1338,BackwardMask,2020.2.8,120.04715443410903,
,f,028_y_f_s_a.jpg,sad,7,8,m,008_y_m_s_a.jpg,sad,congruent,7,mismatch,,130,160,,1,238,block1_Pilot_2,28,s_s,s_s_strong,,,,,0,0,0,0,0,69,69,69,,,,,,,,,511.77390830009244,None,513.7690573001746,514.0584599000867,514.0584599000867,514.066541200038,514.066541200038,514.1075675000902,514.1075675000902,None,None,0,,514.1075675000902,None,515.6073341001756,None,['9'],[0.29289090004749596],515.6073341001756,None,,,,,Emoconpilot037,2021_Nov_10_1338,BackwardMask,2020.2.8,120.04715443410903,
,f,028_y_f_s_a.jpg,sad,7,30,f,030_o_f_h_a.jpg,happy,incongruent,9,match,,130,150,,2,199,block1_Pilot_2,28,s_h,s_h_weak,,,,,0,0,0,0,0,70,70,70,,,,,,,,,518.6081086001359,None,520.2748188001569,520.566869799979,520.566869799979,520.5834393000696,520.5834393000696,520.6242697001435,520.6242697001435,None,None,0,,520.6242697001435,None,522.1241590001155,None,['9'],[0.3119997999165207],522.1241590001155,None,,,,,Emoconpilot037,2021_Nov_10_1338,BackwardMask,2020.2.8,120.04715443410903,
,m,008_y_m_h_a.jpg,happy,9,21,f,021_o_f_n_a.jpg,neutral,incongruent,8,mismatch,,120,170,,2,137,block1_Pilot_2,8,h_n,h_n_weak,,,,,0,0,0,0,0,71,71,71,,,,,,,,,525.1242627000902,None,526.2742278000806,526.5671364001464,526.5671364001464,526.5835216999985,526.5835216999985,526.6244024001062,526.6244024001062,None,None,0,,526.6244024001062,None,528.1243391002063,None,['9'],[1.119713299907744],528.1243391002063,None,,,,,Emoconpilot037,2021_Nov_10_1338,BackwardMask,2020.2.8,120.04715443410903,
,f,012_o_f_n_a.jpg,neutral,8,8,m,008_y_m_s_a.jpg,sad,incongruent,7,mismatch,,140,160,,2,208,block1_Pilot_2,12,n_s,n_s_weak,,,,,0,0,0,0,0,72,72,72,,,,,,,,,531.1254932000302,None,532.9017916000448,533.1925329000223,533.1925329000223,533.2087158001959,533.2087158001959,533.2495350001846,533.2495350001846,None,8,0,0.5866463999263942,533.2495350001846,None,534.7497114001308,None,['8'],[0.23838019999675453],534.7497114001308,None,,,,,Emoconpilot037,2021_Nov_10_1338,BackwardMask,2020.2.8,120.04715443410903,
,m,016_y_m_n_a.jpg,neutral,8,8,m,008_y_m_n_a.jpg,neutral,congruent,8,match,,140,170,,3,211,block1_Pilot_2,16,n_n,n_n_strong,,,,,0,0,0,0,0,73,73,73,,,,,,,,,537.7500128999818,None,539.5272046001628,539.8177170001436,539.8177170001436,539.8420876001474,539.8420876001474,539.8829352001194,539.8829352001194,None,8,1,0.5692037001717836,539.8829352001194,None,541.3831871000584,None,['7'],[0.22893649991601706],541.3831871000584,None,,,,,Emoconpilot037,2021_Nov_10_1338,BackwardMask,2020.2.8,120.04715443410903,
,m,016_y_m_h_a.jpg,happy,9,13,m,013_y_m_s_a.jpg,sad,incongruent,7,match,,120,160,,3,138,block1_Pilot_2,16,h_s,h_s_weak,,,,,0,0,0,0,0,74,74,74,,,,,,,,,544.3839402000885,None,545.5417607000563,545.8339660000056,545.8339660000056,545.8588636000641,545.8588636000641,545.8996900999919,545.8996900999919,None,9,0,0.5605512999463826,545.8996900999919,None,547.3998393001966,None,['7'],[0.19621310010552406],547.3998393001966,None,,,,,Emoconpilot037,2021_Nov_10_1338,BackwardMask,2020.2.8,120.04715443410903,
,m,016_y_m_n_a.jpg,neutral,8,19,f,019_m_f_s_a.jpg,sad,incongruent,7,mismatch,,140,160,,2,185,block1_Pilot_2,16,n_s,n_s_strong,,,,,0,0,0,0,0,75,75,75,,,,,,,,,550.4004293000326,None,551.9620519001037,552.2513112002052,552.2513112002052,552.2673489002045,552.2673489002045,552.3082640001085,552.3082640001085,None,8,0,0.6239843000657856,552.3082640001085,None,553.8085197000764,None,['8'],[0.2996716999914497],553.8085197000764,None,,,,,Emoconpilot037,2021_Nov_10_1338,BackwardMask,2020.2.8,120.04715443410903,
,m,027_o_m_s_a.jpg,sad,7,8,m,008_y_m_s_a.jpg,sad,congruent,7,match,,130,160,,1,238,block1_Pilot_2,27,s_s,s_s_strong,,,,,0,0,0,0,0,76,76,76,,,,,,,,,556.8090127999894,None,558.7996350000612,559.0926775999833,559.0926775999833,559.1007267001551,559.1007267001551,559.1416577000637,559.1416577000637,None,None,0,,559.1416577000637,None,560.6416606002022,None,['9'],[0.32249379996210337],560.6416606002022,None,,,,,Emoconpilot037,2021_Nov_10_1338,BackwardMask,2020.2.8,120.04715443410903,
,f,019_m_f_n_a.jpg,neutral,8,27,m,027_o_m_n_a.jpg,neutral,congruent,8,mismatch,,140,170,,3,186,block1_Pilot_2,19,n_n,n_n_strong,,,,,0,0,0,0,0,77,77,77,,,,,,,,,563.6419073001016,None,565.2131638000719,565.5099463001825,565.5099463001825,565.5343754000496,565.5343754000496,565.5752603001893,565.5752603001893,None,8,1,0.7087997000198811,565.5752603001893,None,567.075045700185,None,['7'],[0.2810609999578446],567.075045700185,None,,,,,Emoconpilot037,2021_Nov_10_1338,BackwardMask,2020.2.8,120.04715443410903,
,m,004_o_m_s_a.jpg,sad,7,12,f,012_o_f_s_a.jpg,sad,congruent,7,mismatch,,130,160,,1,238,block1_Pilot_2,4,s_s,s_s_strong,,,,,0,0,0,0,0,78,78,78,,,,,,,,,570.075928900158,None,572.0666957001667,572.3597137001343,572.3597137001343,572.3677336000837,572.3677336000837,572.4085176000372,572.4085176000372,None,None,0,,572.4085176000372,None,573.9084866000339,None,['9'],[0.2956666999962181],573.9084866000339,None,,,,,Emoconpilot037,2021_Nov_10_1338,BackwardMask,2020.2.8,120.04715443410903,
,f,019_m_f_n_a.jpg,neutral,8,13,m,013_y_m_s_a.jpg,sad,incongruent,7,mismatch,,140,160,,3,207,block1_Pilot_2,19,n_s,n_s_strong,,,,,0,0,0,0,0,79,79,79,,,,,,,,,576.908702700166,None,578.6532058999874,578.9432696001604,578.9432696001604,578.9680021000095,578.9680021000095,579.0088683001231,579.0088683001231,None,8,0,0.5870926999486983,579.0088683001231,None,580.5088500001002,None,['8'],[0.2472822000272572],580.5088500001002,None,,,,,Emoconpilot037,2021_Nov_10_1338,BackwardMask,2020.2.8,120.04715443410903,
,m,027_o_m_h_a.jpg,happy,9,33,m,033_o_m_h_a.jpg,happy,congruent,9,match,,120,150,,1,238,block1_Pilot_2,27,h_h,h_h_strong,,,,,0,0,0,0,0,80,80,80,,,,,,,,,583.5089885999914,None,585.5116833001375,585.8020244999789,585.8020244999789,585.8097157999873,585.8097157999873,585.8505858001299,585.8505858001299,None,None,0,,585.8505858001299,None,587.3508081000764,None,['9'],[0.3253372998442501],587.3508081000764,None,,,,,Emoconpilot037,2021_Nov_10_1338,BackwardMask,2020.2.8,120.04715443410903,
,m,027_o_m_h_a.jpg,happy,9,21,f,021_o_f_s_a.jpg,sad,incongruent,7,mismatch,,120,160,,1,238,block1_Pilot_2,27,h_s,h_s_weak,,,,,0,0,0,0,0,81,81,81,,,,,,,,,590.350688500097,None,592.3532147000078,592.6437917000148,592.6437917000148,592.6516784001142,592.6516784001142,592.6923926000018,592.6923926000018,None,None,0,,592.6923926000018,None,594.1924056001008,None,['9'],[0.2997338999994099],594.1924056001008,None,,,,,Emoconpilot037,2021_Nov_10_1338,BackwardMask,2020.2.8,120.04715443410903,
,m,033_o_m_s_a.jpg,sad,7,40,f,040_y_f_n_a.jpg,neutral,incongruent,8,mismatch,,130,170,,3,146,block1_Pilot_2,33,s_n,s_n_weak,,,,,0,0,0,0,0,82,82,82,,,,,,,,,597.1924689000007,None,598.4167899000458,598.7103523002006,598.7103523002006,598.7350665000267,598.7350665000267,598.7758702000137,598.7758702000137,None,8,1,0.5483651999384165,598.7758702000137,None,600.2760312000755,None,['7'],[0.496117000002414],600.2760312000755,None,,,,,Emoconpilot037,2021_Nov_10_1338,BackwardMask,2020.2.8,120.04715443410903,
,m,008_y_m_h_a.jpg,happy,9,4,m,004_o_m_s_a.jpg,sad,incongruent,7,match,,120,160,,2,225,block1_Pilot_2,8,h_s,h_s_weak,,,,,0,0,0,0,0,83,83,83,,,,,,,,,603.2762248001527,None,605.1593642001972,605.4518590001389,605.4518590001389,605.4685024002101,605.4685024002101,605.5093076000921,605.5093076000921,None,None,0,,605.5093076000921,None,607.0094008001033,None,['9'],[0.25074049993418157],607.0094008001033,None,,,,,Emoconpilot037,2021_Nov_10_1338,BackwardMask,2020.2.8,120.04715443410903,
,f,012_o_f_n_a.jpg,neutral,8,4,m,004_o_m_s_a.jpg,sad,incongruent,7,mismatch,,140,160,,3,150,block1_Pilot_2,12,n_s,n_s_strong,,,,,0,0,0,0,0,84,84,84,,,,,,,,,610.0093913001474,None,611.2891783001833,611.5860184000339,611.5860184000339,611.6101935000625,611.6101935000625,611.6509307001252,611.6509307001252,None,8,0,0.5612574999686331,611.6509307001252,None,613.1511902001221,None,['7'],[0.7169701000675559],613.1511902001221,None,,,,,Emoconpilot037,2021_Nov_10_1338,BackwardMask,2020.2.8,120.04715443410903,
,f,021_o_f_s_a.jpg,sad,7,40,f,040_y_f_n_a.jpg,neutral,incongruent,8,match,,130,170,,2,156,block1_Pilot_2,21,s_n,s_n_strong,,,,,0,0,0,0,0,85,85,85,,,,,,,,,616.1520738000982,None,617.4572629001923,617.7522057001479,617.7522057001479,617.7692090000492,617.7692090000492,617.8095869000535,617.8095869000535,None,None,0,,617.8095869000535,None,619.3096789000556,None,['9'],[0.2785137998871505],619.3096789000556,None,,,,,Emoconpilot037,2021_Nov_10_1338,BackwardMask,2020.2.8,120.04715443410903,
,m,004_o_m_n_a.jpg,neutral,8,13,m,013_y_m_n_a.jpg,neutral,congruent,8,match,,140,170,,2,225,block1_Pilot_2,4,n_n,n_n_strong,,,,,0,0,0,0,0,86,86,86,,,,,,,,,622.3109761001542,None,624.2066790000536,624.5027352001052,624.5027352001052,624.5190491001122,624.5190491001122,624.5596772001591,624.5596772001591,None,None,0,,624.5596772001591,None,626.0598520000931,None,['9'],[0.32830599998123944],626.0598520000931,None,,,,,Emoconpilot037,2021_Nov_10_1338,BackwardMask,2020.2.8,120.04715443410903,
,m,016_y_m_n_a.jpg,neutral,8,16,m,016_y_m_h_a.jpg,happy,incongruent,9,match,,140,150,,18,193,block1_Pilot_2,16,n_h,n_h_strong,,,,,0,0,0,0,0,87,87,87,,,,,,,,,629.0603971001692,None,630.6876547001302,630.9778560001869,630.9778560001869,631.1273643001914,631.1273643001914,631.1680207001045,631.1680207001045,None,8,0,0.36416530003771186,631.1680207001045,None,632.6681827001739,None,['7'],[0.2159331999719143],632.6681827001739,None,,,,,Emoconpilot037,2021_Nov_10_1338,BackwardMask,2020.2.8,120.04715443410903,
,m,033_o_m_h_a.jpg,happy,9,4,m,004_o_m_h_a.jpg,happy,congruent,9,match,,120,150,,2,195,block1_Pilot_2,33,h_h,h_h_strong,,,,,0,0,0,0,0,88,88,88,,,,,,,,,635.6691906000488,None,637.3007098999806,637.5943249000702,637.5943249000702,637.6107709000353,637.6107709000353,637.6515055000782,637.6515055000782,None,9,1,0.6487253000959754,637.6515055000782,None,639.1517718001269,None,['7'],[0.48438200005330145],639.1517718001269,None,,,,,Emoconpilot037,2021_Nov_10_1338,BackwardMask,2020.2.8,120.04715443410903,
,m,027_o_m_h_a.jpg,happy,9,16,m,016_y_m_h_a.jpg,happy,congruent,9,match,,120,150,,3,209,block1_Pilot_2,27,h_h,h_h_weak,,,,,0,0,0,0,0,89,89,89,,,,,,,,,642.1517533001024,None,643.9173619002104,644.211513500195,644.211513500195,644.2360350000672,644.2360350000672,644.2766945001204,644.2766945001204,None,9,1,0.5274446001276374,644.2766945001204,None,645.776916900184,None,['8'],[0.41918170009739697],645.776916900184,None,,,,,Emoconpilot037,2021_Nov_10_1338,BackwardMask,2020.2.8,120.04715443410903,
,m,033_o_m_s_a.jpg,sad,7,16,m,016_y_m_s_a.jpg,sad,congruent,7,match,,130,160,,3,128,block1_Pilot_2,33,s_s,s_s_strong,,,,,0,0,0,0,0,90,90,90,,,,,,,,,648.7777017001063,None,649.8522177999839,650.144457400078,650.144457400078,650.1693706000224,650.1693706000224,650.2101965001784,650.2101965001784,None,8,0,0.457953599980101,650.2101965001784,None,651.7101881001145,None,['7'],[0.37398909986950457],651.7101881001145,None,,,,,Emoconpilot037,2021_Nov_10_1338,BackwardMask,2020.2.8,120.04715443410903,
,f,021_o_f_s_a.jpg,sad,7,30,f,030_o_f_s_a.jpg,sad,congruent,7,match,,130,160,,1,238,block1_Pilot_2,21,s_s,s_s_strong,,,,,0,0,0,0,0,91,91,91,,,,,,,,,654.711255799979,None,656.6993833000306,656.9946163999848,656.9946163999848,657.002809900092,657.002809900092,657.0437582000159,657.0437582000159,None,None,0,,657.0437582000159,None,658.5437366000842,None,['9'],[0.4284377999138087],658.5437366000842,None,,,,,Emoconpilot037,2021_Nov_10_1338,BackwardMask,2020.2.8,120.04715443410903,
,m,033_o_m_n_a.jpg,neutral,8,28,f,028_y_f_s_a.jpg,sad,incongruent,7,mismatch,,140,160,,18,166,block1_Pilot_2,33,n_s,n_s_strong,,,,,0,0,0,0,0,92,92,92,,,,,,,,,661.5437891001347,None,662.9483462001663,663.2368544000201,663.2368544000201,663.3861340000294,663.3861340000294,663.4268974000588,663.4268974000588,None,8,0,0.36120130005292594,663.4268974000588,None,664.9271554001607,None,['7'],[0.24478449998423457],664.9271554001607,None,,,,,Emoconpilot037,2021_Nov_10_1338,BackwardMask,2020.2.8,120.04715443410903,
,f,019_m_f_n_a.jpg,neutral,8,30,f,030_o_f_n_a.jpg,neutral,congruent,8,match,,140,170,,18,228,block1_Pilot_2,19,n_n,n_n_weak,,,,,0,0,0,0,0,93,93,93,,,,,,,,,667.9283211000729,None,669.8464059000835,670.1370291002095,670.1370291002095,670.286505700089,670.286505700089,670.3273183000274,670.3273183000274,None,8,1,0.42086199996992946,670.3273183000274,None,671.8273863000795,None,['7'],[0.3527966998517513],671.8273863000795,None,,,,,Emoconpilot037,2021_Nov_10_1338,BackwardMask,2020.2.8,120.04715443410903,
,m,008_y_m_s_a.jpg,sad,7,12,f,012_o_f_h_a.jpg,happy,incongruent,9,mismatch,,130,150,,3,130,block1_Pilot_2,8,s_h,s_h_weak,,,,,0,0,0,0,0,94,94,94,,,,,,,,,674.8285944000818,None,675.9294392000884,676.2205238000024,676.2205238000024,676.2449422001373,676.2449422001373,676.2858142000623,676.2858142000623,None,None,0,,676.2858142000623,None,677.7857658001594,None,['9'],[0.2664618999697268],677.7857658001594,None,,,,,Emoconpilot037,2021_Nov_10_1338,BackwardMask,2020.2.8,120.04715443410903,
,m,016_y_m_n_a.jpg,neutral,8,28,f,028_y_f_n_a.jpg,neutral,congruent,8,mismatch,,140,170,,18,189,block1_Pilot_2,16,n_n,n_n_strong,,,,,0,0,0,0,0,95,95,95,,,,,,,,,680.7865635000635,None,682.3797677999828,682.6708186999895,682.6708186999895,682.8200279001612,682.8200279001612,682.8609244001564,682.8609244001564,None,8,1,0.31121259997598827,682.8609244001564,None,684.3606595001183,None,['7'],[0.18748170020990074],684.3606595001183,None,,,,,Emoconpilot037,2021_Nov_10_1338,BackwardMask,2020.2.8,120.04715443410903,
,f,012_o_f_s_a.jpg,sad,7,16,m,016_y_m_h_a.jpg,happy,incongruent,9,mismatch,,130,150,,3,238,block1_Pilot_2,12,s_h,s_h_strong,,,,,0,0,0,0,0,96,96,96,,,,,,,,,687.3609121001791,None,689.3478287002072,689.6452419999987,689.6452419999987,689.67022119998,689.67022119998,689.7111402000301,689.7111402000301,None,None,0,,689.7111402000301,None,691.211021900177,None,['9'],[0.2570889999624342],691.211021900177,None,,,,,Emoconpilot037,2021_Nov_10_1338,BackwardMask,2020.2.8,120.04715443410903,
,m,013_y_m_h_a.jpg,happy,9,27,m,027_o_m_h_a.jpg,happy,congruent,9,match,,120,150,,18,238,block1_Pilot_2,13,h_h,h_h_strong,,,,,0,0,0,0,0,97,97,97,,,,,,,,,694.2115591000766,None,696.2138508001808,696.5042367000133,696.5042367000133,696.6536410001572,696.6536410001572,696.6943736001849,696.6943736001849,None,9,1,0.3738333999644965,696.6943736001849,None,698.1946493000723,None,['7'],[0.3453406000044197],698.1946493000723,None,,,,,Emoconpilot037,2021_Nov_10_1338,BackwardMask,2020.2.8,120.04715443410903,
,m,016_y_m_s_a.jpg,sad,7,33,m,033_o_m_n_a.jpg,neutral,incongruent,8,match,,130,170,,1,238,block1_Pilot_2,16,s_n,s_n_weak,,,,,0,0,0,0,0,98,98,98,,,,,,,,,701.1947562000714,None,703.1856556001585,703.4789998000488,703.4789998000488,703.4871867001057,703.4871867001057,703.5282114001457,703.5282114001457,None,None,0,,703.5282114001457,None,705.0281971001532,None,['9'],[0.34393550013192],705.0281971001532,None,,,,,Emoconpilot037,2021_Nov_10_1338,BackwardMask,2020.2.8,120.04715443410903,
,m,008_y_m_n_a.jpg,neutral,8,30,f,030_o_f_n_a.jpg,neutral,congruent,8,mismatch,,140,170,,1,238,block1_Pilot_2,8,n_n,n_n_weak,,,,,0,0,0,0,0,99,99,99,,,,,,,,,708.0284701001365,None,710.0446052001789,710.3377645001747,710.3377645001747,710.3457473001909,710.3457473001909,710.3864698000252,710.3864698000252,None,None,0,,710.3864698000252,None,711.8864743001759,None,['9'],[0.3176355001050979],711.8864743001759,None,,,,,Emoconpilot037,2021_Nov_10_1338,BackwardMask,2020.2.8,120.04715443410903,
,m,008_y_m_s_a.jpg,sad,7,30,f,030_o_f_s_a.jpg,sad,congruent,7,mismatch,,130,160,,2,133,block1_Pilot_2,8,s_s,s_s_weak,,,,,0,0,0,0,0,100,100,100,,,,,,,,,714.8865435000043,None,716.0142606000882,716.3044610000215,716.3044610000215,716.3207204001956,716.3207204001956,716.361742899986,716.361742899986,None,None,0,,716.361742899986,None,717.861780700041,None,['9'],[0.3023838000372052],717.861780700041,None,,,,,Emoconpilot037,2021_Nov_10_1338,BackwardMask,2020.2.8,120.04715443410903,
,f,040_y_f_n_a.jpg,neutral,8,30,f,030_o_f_s_a.jpg,sad,incongruent,7,match,,140,160,,3,197,block1_Pilot_2,40,n_s,n_s_strong,,,,,0,0,0,0,0,101,101,101,,,,,,,,,720.8618314000778,None,722.5222554001957,722.8130910000764,722.8130910000764,722.8374541001394,722.8374541001394,722.8782405999955,722.8782405999955,None,8,0,0.6778871999122202,722.8782405999955,None,724.3783309999853,None,['8'],[0.7618034000042826],724.3783309999853,None,,,,,Emoconpilot037,2021_Nov_10_1338,BackwardMask,2020.2.8,120.04715443410903,
,m,004_o_m_h_a.jpg,happy,9,30,f,030_o_f_s_a.jpg,sad,incongruent,7,mismatch,,120,160,,3,121,block1_Pilot_2,4,h_s,h_s_strong,,,,,0,0,0,0,0,102,102,102,,,,,,,,,727.3785376001615,None,728.40616530017,728.6965970001183,728.6965970001183,728.7209747000597,728.7209747000597,728.7617196000647,728.7617196000647,None,9,0,0.5544785999227315,728.7617196000647,None,730.2618648000062,None,['8'],[0.5501751999836415],730.2618648000062,None,,,,,Emoconpilot037,2021_Nov_10_1338,BackwardMask,2020.2.8,120.04715443410903,
,f,040_y_f_h_a.jpg,happy,9,8,m,008_y_m_h_a.jpg,happy,congruent,9,mismatch,,120,150,,18,211,block1_Pilot_2,40,h_h,h_h_weak,,,,,0,0,0,0,0,103,103,103,,,,,,,,,733.2627563001588,None,735.0294201001525,735.321446100017,735.321446100017,735.4708814001642,735.4708814001642,735.5118307000957,735.5118307000957,None,9,1,0.3723147001583129,735.5118307000957,None,737.0119998001028,None,['7'],[0.240136600099504],737.0119998001028,None,,,,,Emoconpilot037,2021_Nov_10_1338,BackwardMask,2020.2.8,120.04715443410903,
,f,019_m_f_s_a.jpg,sad,7,16,m,016_y_m_n_a.jpg,neutral,incongruent,8,mismatch,,130,170,,2,198,block1_Pilot_2,19,s_n,s_n_strong,,,,,0,0,0,0,0,104,104,104,,,,,,,,,740.0120588000864,None,741.7015379001386,741.9969358001836,741.9969358001836,742.0128774000332,742.0128774000332,742.0537702001166,742.0537702001166,None,None,0,,742.0537702001166,None,743.5537163000554,None,['9'],[0.2824248999822885],743.5537163000554,None,,,,,Emoconpilot037,2021_Nov_10_1338,BackwardMask,2020.2.8,120.04715443410903,
,f,040_y_f_s_a.jpg,sad,7,12,f,012_o_f_s_a.jpg,sad,congruent,7,match,,130,160,,18,240,block1_Pilot_2,40,s_s,s_s_strong,,,,,0,0,0,0,0,105,105,105,,,,,,,,,746.5543894001748,None,748.5619823001325,748.8548874000553,748.8548874000553,749.004858400207,749.004858400207,749.0455974000506,749.0455974000506,None,7,1,0.8226286000572145,749.0455974000506,None,750.5456342999823,None,['7'],[0.25030709989368916],750.5456342999823,None,,,,,Emoconpilot037,2021_Nov_10_1338,BackwardMask,2020.2.8,120.04715443410903,
,f,040_y_f_n_a.jpg,neutral,8,33,m,033_o_m_s_a.jpg,sad,incongruent,7,mismatch,,140,160,,3,188,block1_Pilot_2,40,n_s,n_s_weak,,,,,0,0,0,0,0,106,106,106,,,,,,,,,753.5456835001241,None,755.1442436000798,755.4387690001167,755.4387690001167,755.4631764001679,755.4631764001679,755.5040840001311,755.5040840001311,None,8,0,0.6440361000131816,755.5040840001311,None,757.0042070001364,None,['7'],[0.2559241000562906],757.0042070001364,None,,,,,Emoconpilot037,2021_Nov_10_1338,BackwardMask,2020.2.8,120.04715443410903,
,f,028_y_f_h_a.jpg,happy,9,21,f,021_o_f_s_a.jpg,sad,incongruent,7,match,,120,160,,3,193,block1_Pilot_2,28,h_s,h_s_strong,,,,,0,0,0,0,0,107,107,107,,,,,,,,,760.0049372999929,None,761.6238053999841,761.9134207000025,761.9134207000025,761.9382672000211,761.9382672000211,761.9793055001646,761.9793055001646,None,9,0,0.46487839985638857,761.9793055001646,None,763.4793355001602,None,['7'],[0.17292889999225736],763.4793355001602,None,,,,,Emoconpilot037,2021_Nov_10_1338,BackwardMask,2020.2.8,120.04715443410903,
,f,040_y_f_s_a.jpg,sad,7,13,m,013_y_m_n_a.jpg,neutral,incongruent,8,mismatch,,130,170,,2,198,block1_Pilot_2,40,s_n,s_n_strong,,,,,0,0,0,0,0,108,108,108,,,,,,,,,766.4793238001876,None,768.1374561002012,768.4302579001524,768.4302579001524,768.4468004000373,768.4468004000373,768.4875231999904,768.4875231999904,None,8,1,0.6846151000354439,768.4875231999904,None,769.9880962001625,None,['8'],[0.5921310000121593],769.9880962001625,None,,,,,Emoconpilot037,2021_Nov_10_1338,BackwardMask,2020.2.8,120.04715443410903,
,f,030_o_f_n_a.jpg,neutral,8,33,m,033_o_m_s_a.jpg,sad,incongruent,7,mismatch,,140,160,,1,238,block1_Pilot_2,30,n_s,n_s_strong,,,,,0,0,0,0,0,109,109,109,,,,,,,,,772.9877096000127,None,774.9918305000756,775.2808652999811,775.2808652999811,775.2887004001532,775.2887004001532,775.3298514001071,775.3298514001071,None,None,0,,775.3298514001071,None,776.8299018000253,None,['9'],[0.2780893000308424],776.8299018000253,None,,,,,Emoconpilot037,2021_Nov_10_1338,BackwardMask,2020.2.8,120.04715443410903,
,f,021_o_f_h_a.jpg,happy,9,40,f,040_y_f_n_a.jpg,neutral,incongruent,8,match,,120,170,,2,125,block1_Pilot_2,21,h_n,h_n_weak,,,,,0,0,0,0,0,110,110,110,,,,,,,,,779.8304970001336,None,780.8904650001787,781.181098200148,781.181098200148,781.1969551001675,781.1969551001675,781.2379274000414,781.2379274000414,None,9,0,0.6860527000389993,781.2379274000414,None,782.7380693000741,None,['8'],[0.2419817999470979],782.7380693000741,None,,,,,Emoconpilot037,2021_Nov_10_1338,BackwardMask,2020.2.8,120.04715443410903,
,f,021_o_f_h_a.jpg,happy,9,16,m,016_y_m_s_a.jpg,sad,incongruent,7,mismatch,,120,160,,1,238,block1_Pilot_2,21,h_s,h_s_strong,,,,,0,0,0,0,0,111,111,111,,,,,,,,,785.7380767001305,None,787.7406384001952,788.0313661000691,788.0313661000691,788.0388445002027,788.0388445002027,788.0797728002071,788.0797728002071,None,None,0,,788.0797728002071,None,789.5797312001232,None,['9'],[0.3204306000843644],789.5797312001232,None,,,,,Emoconpilot037,2021_Nov_10_1338,BackwardMask,2020.2.8,120.04715443410903,
,f,012_o_f_h_a.jpg,happy,9,8,m,008_y_m_s_a.jpg,sad,incongruent,7,mismatch,,120,160,,1,238,block1_Pilot_2,12,h_s,h_s_weak,,,,,0,0,0,0,0,112,112,112,,,,,,,,,792.5808565001935,None,794.5716441001277,794.8641773001291,794.8641773001291,794.8723461001646,794.8723461001646,794.9132058999967,794.9132058999967,None,None,0,,794.9132058999967,None,796.4131820001639,None,['9'],[0.566910200053826],796.4131820001639,None,,,,,Emoconpilot037,2021_Nov_10_1338,BackwardMask,2020.2.8,120.04715443410903,
,m,013_y_m_h_a.jpg,happy,9,16,m,016_y_m_s_a.jpg,sad,incongruent,7,match,,120,160,,3,202,block1_Pilot_2,13,h_s,h_s_weak,,,,,0,0,0,0,0,113,113,113,,,,,,,,,799.4132863001432,None,801.1162529001012,801.4062400001567,801.4062400001567,801.4308251000475,801.4308251000475,801.4717960001435,801.4717960001435,None,9,0,0.5163577001076192,801.4717960001435,None,802.9716671002097,None,['7'],[0.23249679990112782],802.9716671002097,None,,,,,Emoconpilot037,2021_Nov_10_1338,BackwardMask,2020.2.8,120.04715443410903,
,f,019_m_f_s_a.jpg,sad,7,4,m,004_o_m_n_a.jpg,neutral,incongruent,8,mismatch,,130,170,,1,238,block1_Pilot_2,19,s_n,s_n_strong,,,,,0,0,0,0,0,114,114,114,,,,,,,,,805.972674000077,None,807.9739114001859,808.2648171000183,808.2648171000183,808.2726125000045,808.2726125000045,808.3134690001607,808.3134690001607,None,None,0,,808.3134690001607,None,809.8140738001093,None,['9'],[0.30998090002685785],809.8140738001093,None,,,,,Emoconpilot037,2021_Nov_10_1338,BackwardMask,2020.2.8,120.04715443410903,
,f,028_y_f_n_a.jpg,neutral,8,27,m,027_o_m_s_a.jpg,sad,incongruent,7,mismatch,,140,160,,18,238,block1_Pilot_2,28,n_s,n_s_strong,,,,,0,0,0,0,0,115,115,115,,,,,,,,,812.8136605001055,None,814.8161228001118,815.1065773000009,815.1065773000009,815.2557276000734,815.2557276000734,815.2966238001827,815.2966238001827,None,8,0,0.4035726001020521,815.2966238001827,None,816.7970245000906,None,['7'],[0.2631743000820279],816.7970245000906,None,,,,,Emoconpilot037,2021_Nov_10_1338,BackwardMask,2020.2.8,120.04715443410903,
,m,013_y_m_s_a.jpg,sad,7,12,f,012_o_f_h_a.jpg,happy,incongruent,9,mismatch,,130,150,,1,238,block1_Pilot_2,13,s_h,s_h_strong,,,,,0,0,0,0,0,116,116,116,,,,,,,,,819.7970410000999,None,821.7891387001146,822.081439500209,822.081439500209,822.0895734000951,822.0895734000951,822.1303648999892,822.1303648999892,None,None,0,,822.1303648999892,None,823.630092300009,None,['9'],[0.29393250006251037],823.630092300009,None,,,,,Emoconpilot037,2021_Nov_10_1338,BackwardMask,2020.2.8,120.04715443410903,
,m,016_y_m_s_a.jpg,sad,7,19,f,019_m_f_h_a.jpg,happy,incongruent,9,mismatch,,130,150,,1,238,block1_Pilot_2,16,s_h,s_h_strong,,,,,0,0,0,0,0,117,117,117,,,,,,,,,826.630304899998,None,828.6228462001309,828.9150082000997,828.9150082000997,828.923037200002,828.923037200002,828.9634211000521,828.9634211000521,None,None,0,,828.9634211000521,None,830.4635694001336,None,['9'],[0.30851260013878345],830.4635694001336,None,,,,,Emoconpilot037,2021_Nov_10_1338,BackwardMask,2020.2.8,120.04715443410903,
,m,013_y_m_s_a.jpg,sad,7,21,f,021_o_f_h_a.jpg,happy,incongruent,9,mismatch,,130,150,,18,238,block1_Pilot_2,13,s_h,s_h_strong,,,,,0,0,0,0,0,118,118,118,,,,,,,,,833.4637231000233,None,835.4554389000405,835.7478028000332,835.7478028000332,835.897819200065,835.897819200065,835.9385459001642,835.9385459001642,None,7,0,0.8094939000438899,835.9385459001642,None,837.4394426001236,None,['7'],[0.28441189997829497],837.4394426001236,None,,,,,Emoconpilot037,2021_Nov_10_1338,BackwardMask,2020.2.8,120.04715443410903,
,f,012_o_f_s_a.jpg,sad,7,13,m,013_y_m_h_a.jpg,happy,incongruent,9,mismatch,,130,150,,3,235,block1_Pilot_2,12,s_h,s_h_weak,,,,,0,0,0,0,0,119,119,119,,,,,,,,,840.4388036001474,None,842.4005122000817,842.6979973001871,842.6979973001871,842.7231018000748,842.7231018000748,842.7636942001991,842.7636942001991,None,None,0,,842.7636942001991,None,844.2638199999928,None,['9'],[0.324331299867481],844.2638199999928,None,,,,,Emoconpilot037,2021_Nov_10_1338,BackwardMask,2020.2.8,120.04715443410903,
,f,019_m_f_s_a.jpg,sad,7,30,f,030_o_f_h_a.jpg,happy,incongruent,9,match,,130,150,,3,235,block2_Pilot_2,19,s_h,s_h_strong,,,,,0,1,1,1,0,0,0,0,,,,,,,,,867.292747200001,None,869.2777113001794,869.5740286000073,869.5740286000073,869.5984726999886,869.5984726999886,869.6392944001127,869.6392944001127,None,None,0,,869.6392944001127,None,871.139392600162,None,['9'],[0.36858470016159117],871.139392600162,None,,,847.2638616000768,None,Emoconpilot037,2021_Nov_10_1338,BackwardMask,2020.2.8,120.04715443410903,
,m,008_y_m_n_a.jpg,neutral,8,40,f,040_y_f_h_a.jpg,happy,incongruent,9,mismatch,,140,150,,2,121,block2_Pilot_2,8,n_h,n_h_strong,,,,,0,1,1,1,0,1,1,1,,,,,,,,,874.1401732000522,None,875.1700215002056,875.4664570000023,875.4664570000023,875.4825184000656,875.4825184000656,875.5227565001696,875.5227565001696,None,None,0,,875.5227565001696,None,877.0243267000187,None,['9'],[0.37169540021568537],877.0243267000187,None,,,,,Emoconpilot037,2021_Nov_10_1338,BackwardMask,2020.2.8,120.04715443410903,
,f,012_o_f_h_a.jpg,happy,9,27,m,027_o_m_n_a.jpg,neutral,incongruent,8,mismatch,,120,170,,2,240,block2_Pilot_2,12,h_n,h_n_weak,,,,,0,1,1,1,0,2,2,2,,,,,,,,,880.0229223000351,None,882.0325031999964,882.3243017999921,882.3243017999921,882.3406905001029,882.3406905001029,882.3817587001249,882.3817587001249,None,9,0,0.614438199903816,882.3817587001249,None,883.8815150000155,None,['8'],[0.22670829994603992],883.8815150000155,None,,,,,Emoconpilot037,2021_Nov_10_1338,BackwardMask,2020.2.8,120.04715443410903,
,m,008_y_m_h_a.jpg,happy,9,40,f,040_y_f_h_a.jpg,happy,congruent,9,mismatch,,120,150,,18,195,block2_Pilot_2,8,h_h,h_h_strong,,,,,0,1,1,1,0,3,3,3,,,,,,,,,886.8816001000814,None,888.5178263999987,888.8077790001407,888.8077790001407,888.9574562001508,888.9574562001508,888.9980226000771,888.9980226000771,None,9,1,0.4458687000442296,888.9980226000771,None,890.4982915001456,None,['7'],[0.2256160001270473],890.4982915001456,None,,,,,Emoconpilot037,2021_Nov_10_1338,BackwardMask,2020.2.8,120.04715443410903,
,m,004_o_m_n_a.jpg,neutral,8,33,m,033_o_m_s_a.jpg,sad,incongruent,7,match,,140,160,,18,126,block2_Pilot_2,4,n_s,n_s_weak,,,,,0,1,1,1,0,4,4,4,,,,,,,,,893.4984677000903,None,894.6056823001709,894.9000737001188,894.9000737001188,895.0492081001867,895.0492081001867,895.090337500209,895.090337500209,None,8,0,0.4100277000106871,895.090337500209,None,896.589987100102,None,['7'],[0.21421199990436435],896.589987100102,None,,,,,Emoconpilot037,2021_Nov_10_1338,BackwardMask,2020.2.8,120.04715443410903,
,f,028_y_f_s_a.jpg,sad,7,27,m,027_o_m_n_a.jpg,neutral,incongruent,8,mismatch,,130,170,,18,225,block2_Pilot_2,28,s_n,s_n_strong,,,,,0,1,1,1,0,5,5,5,,,,,,,,,899.5915530000348,None,901.4768645002041,901.7664797001053,901.7664797001053,901.9163121001329,901.9163121001329,901.9571895999834,901.9571895999834,None,7,0,0.7508779999334365,901.9571895999834,None,903.4567619999871,None,['7'],[0.24346789997071028],903.4567619999871,None,,,,,Emoconpilot037,2021_Nov_10_1338,BackwardMask,2020.2.8,120.04715443410903,
,m,027_o_m_s_a.jpg,sad,7,30,f,030_o_f_h_a.jpg,happy,incongruent,9,mismatch,,130,150,,18,238,block2_Pilot_2,27,s_h,s_h_weak,,,,,0,1,1,1,0,6,6,6,,,,,,,,,906.4568437000271,None,908.4479724999983,908.7410564001184,908.7410564001184,908.8910412001424,908.8910412001424,908.9318499001674,908.9318499001674,None,7,0,0.5120252999477088,908.9318499001674,None,910.4318400002085,None,['7'],[0.20413030008785427],910.4318400002085,None,,,,,Emoconpilot037,2021_Nov_10_1338,BackwardMask,2020.2.8,120.04715443410903,
,m,033_o_m_h_a.jpg,happy,9,40,f,040_y_f_s_a.jpg,sad,incongruent,7,mismatch,,120,160,,1,238,block2_Pilot_2,33,h_s,h_s_strong,,,,,0,1,1,1,0,7,7,7,,,,,,,,,913.4319528001361,None,915.4221541001461,915.7163406000473,915.7163406000473,915.7243910999969,915.7243910999969,915.7652823000681,915.7652823000681,None,None,0,,915.7652823000681,None,917.2653509001248,None,['9'],[0.3385949002113193],917.2653509001248,None,,,,,Emoconpilot037,2021_Nov_10_1338,BackwardMask,2020.2.8,120.04715443410903,
,f,012_o_f_n_a.jpg,neutral,8,12,f,012_o_f_h_a.jpg,happy,incongruent,9,match,,140,150,,2,200,block2_Pilot_2,12,n_h,n_h_weak,,,,,0,1,1,1,0,8,8,8,,,,,,,,,920.2654919000342,None,921.9932034001686,922.2834533001296,922.2834533001296,922.2995228001382,922.2995228001382,922.3403063002042,922.3403063002042,None,8,0,0.8156822000164539,922.3403063002042,None,923.8404694001656,None,['8'],[0.2196970998775214],923.8404694001656,None,,,,,Emoconpilot037,2021_Nov_10_1338,BackwardMask,2020.2.8,120.04715443410903,
,f,030_o_f_n_a.jpg,neutral,8,19,f,019_m_f_n_a.jpg,neutral,congruent,8,match,,140,170,,1,238,block2_Pilot_2,30,n_n,n_n_weak,,,,,0,1,1,1,0,9,9,9,,,,,,,,,926.8406899999827,None,928.8441552000586,929.1341524000745,929.1341524000745,929.1417498001829,929.1417498001829,929.1821209001355,929.1821209001355,None,None,0,,929.1821209001355,None,930.682224499993,None,['9'],[0.3459752998314798],930.682224499993,None,,,,,Emoconpilot037,2021_Nov_10_1338,BackwardMask,2020.2.8,120.04715443410903,
,m,013_y_m_h_a.jpg,happy,9,8,m,008_y_m_n_a.jpg,neutral,incongruent,8,match,,120,170,,1,238,block2_Pilot_2,13,h_n,h_n_strong,,,,,0,1,1,1,0,10,10,10,,,,,,,,,933.6824053002056,None,935.6865868000314,935.9753378999885,935.9753378999885,935.9831642000936,935.9831642000936,936.0240125001874,936.0240125001874,None,None,0,,936.0240125001874,None,937.5240551000461,None,['9'],[0.34388080006465316],937.5240551000461,None,,,,,Emoconpilot037,2021_Nov_10_1338,BackwardMask,2020.2.8,120.04715443410903,
,f,040_y_f_h_a.jpg,happy,9,19,f,019_m_f_s_a.jpg,sad,incongruent,7,match,,120,160,,3,133,block2_Pilot_2,40,h_s,h_s_strong,,,,,0,1,1,1,0,11,11,11,,,,,,,,,940.5242214000318,None,941.6445673999842,941.9334408000577,941.9334408000577,941.9583713000175,941.9583713000175,941.9990507001057,941.9990507001057,None,9,0,0.6047986000776291,941.9990507001057,None,943.499218699988,None,['7'],[0.2087276999372989],943.499218699988,None,,,,,Emoconpilot037,2021_Nov_10_1338,BackwardMask,2020.2.8,120.04715443410903,
,f,040_y_f_h_a.jpg,happy,9,13,m,013_y_m_s_a.jpg,sad,incongruent,7,mismatch,,120,160,,3,226,block2_Pilot_2,40,h_s,h_s_strong,,,,,0,1,1,1,0,12,12,12,,,,,,,,,946.4993265999947,None,948.3905137002002,948.6837958001997,948.6837958001997,948.7083957002033,948.7083957002033,948.7491619000211,948.7491619000211,None,9,0,0.4630858001764864,948.7491619000211,None,950.2493453000207,None,['7'],[0.22654500021599233],950.2493453000207,None,,,,,Emoconpilot037,2021_Nov_10_1338,BackwardMask,2020.2.8,120.04715443410903,
,f,030_o_f_s_a.jpg,sad,7,27,m,027_o_m_h_a.jpg,happy,incongruent,9,mismatch,,130,150,,1,238,block2_Pilot_2,30,s_h,s_h_strong,,,,,0,1,1,1,0,13,13,13,,,,,,,,,953.2494584000669,None,955.3456263002008,955.6340791000985,955.6340791000985,955.6419864001218,955.6419864001218,955.6827033001464,955.6827033001464,None,None,0,,955.6827033001464,None,957.1831602000166,None,['9'],[0.38887930009514093],957.1831602000166,None,,,,,Emoconpilot037,2021_Nov_10_1338,BackwardMask,2020.2.8,120.04715443410903,
,m,033_o_m_h_a.jpg,happy,9,30,f,030_o_f_s_a.jpg,sad,incongruent,7,mismatch,,120,160,,1,238,block2_Pilot_2,33,h_s,h_s_weak,,,,,0,1,1,1,0,14,14,14,,,,,,,,,960.1833864001092,None,962.1756556001492,962.4672262000386,962.4672262000386,962.4752762001008,962.4752762001008,962.5161951000337,962.5161951000337,None,None,0,,962.5161951000337,None,964.0162339999806,None,['9'],[0.29179379995912313],964.0162339999806,None,,,,,Emoconpilot037,2021_Nov_10_1338,BackwardMask,2020.2.8,120.04715443410903,
,f,030_o_f_s_a.jpg,sad,7,28,f,028_y_f_n_a.jpg,neutral,incongruent,8,match,,130,170,,3,198,block2_Pilot_2,30,s_n,s_n_weak,,,,,0,1,1,1,0,15,15,15,,,,,,,,,967.0163939001504,None,968.7167203000281,969.0094330001157,969.0094330001157,969.0337579001207,969.0337579001207,969.0746893000323,969.0746893000323,None,8,1,0.5932418999727815,969.0746893000323,None,970.5750015000813,None,['8'],[0.46891229995526373],970.5750015000813,None,,,,,Emoconpilot037,2021_Nov_10_1338,BackwardMask,2020.2.8,120.04715443410903,
,f,030_o_f_s_a.jpg,sad,7,33,m,033_o_m_h_a.jpg,happy,incongruent,9,mismatch,,130,150,,3,175,block2_Pilot_2,30,s_h,s_h_weak,,,,,0,1,1,1,0,16,16,16,,,,,,,,,973.57504720008,None,975.0536273000762,975.3428474999964,975.3428474999964,975.3672831000295,975.3672831000295,975.4081158000045,975.4081158000045,None,8,0,0.5559429998975247,975.4081158000045,None,976.9082945000846,None,['8'],[0.41570000001229346],976.9082945000846,None,,,,,Emoconpilot037,2021_Nov_10_1338,BackwardMask,2020.2.8,120.04715443410903,
,f,021_o_f_h_a.jpg,happy,9,30,f,030_o_f_h_a.jpg,happy,congruent,9,match,,120,150,,2,194,block2_Pilot_2,21,h_h,h_h_strong,,,,,0,1,1,1,0,17,17,17,,,,,,,,,979.908342699986,None,981.545218600193,981.8348987000063,981.8348987000063,981.8507154001854,981.8507154001854,981.8915380002,981.8915380002,None,8,0,0.6003977998625487,981.8915380002,None,983.3919942001812,None,['8'],[0.5640690000727773],983.3919942001812,None,,,,,Emoconpilot037,2021_Nov_10_1338,BackwardMask,2020.2.8,120.04715443410903,
,f,019_m_f_n_a.jpg,neutral,8,16,m,016_y_m_s_a.jpg,sad,incongruent,7,mismatch,,140,160,,18,163,block2_Pilot_2,19,n_s,n_s_weak,,,,,0,1,1,1,0,18,18,18,,,,,,,,,986.3918290000875,None,987.7745177000761,988.0680454000831,988.0680454000831,988.2175122001208,988.2175122001208,988.2586455000564,988.2586455000564,None,8,0,0.3853366000112146,988.2586455000564,None,989.7587023000233,None,['7'],[0.7653840000275522],989.7587023000233,None,,,,,Emoconpilot037,2021_Nov_10_1338,BackwardMask,2020.2.8,120.04715443410903,
,m,033_o_m_n_a.jpg,neutral,8,13,m,013_y_m_n_a.jpg,neutral,congruent,8,match,,140,170,,2,217,block2_Pilot_2,33,n_n,n_n_strong,,,,,0,1,1,1,0,19,19,19,,,,,,,,,992.7586271001492,None,994.590580600081,994.8849312001839,994.8849312001839,994.9010884000454,994.9010884000454,994.9419009999838,994.9419009999838,None,8,1,0.5980907999910414,994.9419009999838,None,996.441930500092,None,['8'],[1.0501030997838825],996.441930500092,None,,,,,Emoconpilot037,2021_Nov_10_1338,BackwardMask,2020.2.8,120.04715443410903,
,m,033_o_m_h_a.jpg,happy,9,13,m,013_y_m_n_a.jpg,neutral,incongruent,8,match,,120,170,,2,227,block2_Pilot_2,33,h_n,h_n_weak,,,,,0,1,1,1,0,20,20,20,,,,,,,,,999.442101099994,None,1001.3417720000725,1001.6348497001454,1001.6348497001454,1001.6514405000489,1001.6514405000489,1001.691924800165,1001.691924800165,None,None,0,,1001.691924800165,None,1003.1921255001798,None,['9'],[0.37977060000412166],1003.1921255001798,None,,,,,Emoconpilot037,2021_Nov_10_1338,BackwardMask,2020.2.8,120.04715443410903,
,f,012_o_f_s_a.jpg,sad,7,16,m,016_y_m_n_a.jpg,neutral,incongruent,8,mismatch,,130,170,,1,238,block2_Pilot_2,12,s_n,s_n_weak,,,,,0,1,1,1,0,21,21,21,,,,,,,,,1006.1922913000453,None,1008.1790702000726,1008.4765108001884,1008.4765108001884,1008.4848211000208,1008.4848211000208,1008.5255419001915,1008.5255419001915,None,None,0,,1008.5255419001915,None,1010.0258886001538,None,['9'],[0.2581744999624789],1010.0258886001538,None,,,,,Emoconpilot037,2021_Nov_10_1338,BackwardMask,2020.2.8,120.04715443410903,
,f,028_y_f_n_a.jpg,neutral,8,21,f,021_o_f_h_a.jpg,happy,incongruent,9,match,,140,150,,18,202,block2_Pilot_2,28,n_h,n_h_strong,,,,,0,1,1,1,0,22,22,22,,,,,,,,,1013.0257029000204,None,1014.7362023000605,1015.0278007001616,1015.0278007001616,1015.177128800191,1015.177128800191,1015.2176181999967,1015.2176181999967,None,8,0,0.43432049988768995,1015.2176181999967,None,1016.7174009000883,None,['7'],[0.6945527999196202],1016.7174009000883,None,,,,,Emoconpilot037,2021_Nov_10_1338,BackwardMask,2020.2.8,120.04715443410903,
,f,028_y_f_s_a.jpg,sad,7,30,f,030_o_f_n_a.jpg,neutral,incongruent,8,match,,130,170,,2,127,block2_Pilot_2,28,s_n,s_n_weak,,,,,0,1,1,1,0,23,23,23,,,,,,,,,1019.7175047001801,None,1020.8011292000301,1021.0936433000024,1021.0936433000024,1021.1099692999851,1021.1099692999851,1021.1507849001791,1021.1507849001791,None,8,1,0.5253278000745922,1021.1507849001791,None,1022.6509228001814,None,['7'],[0.625068600056693],1022.6509228001814,None,,,,,Emoconpilot037,2021_Nov_10_1338,BackwardMask,2020.2.8,120.04715443410903,
,m,004_o_m_n_a.jpg,neutral,8,40,f,040_y_f_n_a.jpg,neutral,congruent,8,mismatch,,140,170,,1,238,block2_Pilot_2,4,n_n,n_n_weak,,,,,0,1,1,1,0,24,24,24,,,,,,,,,1025.6510018000845,None,1027.6938552001957,1027.9859931000974,1027.9859931000974,1027.993599400157,1027.993599400157,1028.0342139001004,1028.0342139001004,None,None,0,,1028.0342139001004,None,1029.5346971000545,None,['9'],[0.2932983001228422],1029.5346971000545,None,,,,,Emoconpilot037,2021_Nov_10_1338,BackwardMask,2020.2.8,120.04715443410903,
,m,016_y_m_n_a.jpg,neutral,8,16,m,016_y_m_h_a.jpg,happy,incongruent,9,match,,140,150,,18,239,block2_Pilot_2,16,n_h,n_h_weak,,,,,0,1,1,1,0,25,25,25,,,,,,,,,1032.536824000068,None,1034.547348699998,1034.8359750001691,1034.8359750001691,1034.9852858001832,1034.9852858001832,1035.0270601999946,1035.0270601999946,None,8,0,0.3448285001795739,1035.0270601999946,None,1036.5261523001827,None,['7'],[0.3097669999115169],1036.5261523001827,None,,,,,Emoconpilot037,2021_Nov_10_1338,BackwardMask,2020.2.8,120.04715443410903,
,f,012_o_f_n_a.jpg,neutral,8,33,m,033_o_m_n_a.jpg,neutral,congruent,8,mismatch,,140,170,,3,134,block2_Pilot_2,12,n_n,n_n_weak,,,,,0,1,1,1,0,26,26,26,,,,,,,,,1039.5263349001762,None,1040.6666088001803,1040.9610930001363,1040.9610930001363,1040.9857314000838,1040.9857314000838,1041.0263015001547,1041.0263015001547,None,8,1,0.44983300007879734,1041.0263015001547,None,1042.5285132001154,None,['7'],[0.26734740007668734],1042.5285132001154,None,,,,,Emoconpilot037,2021_Nov_10_1338,BackwardMask,2020.2.8,120.04715443410903,
,m,013_y_m_h_a.jpg,happy,9,27,m,027_o_m_s_a.jpg,sad,incongruent,7,match,,120,160,,2,194,block2_Pilot_2,13,h_s,h_s_strong,,,,,0,1,1,1,0,27,27,27,,,,,,,,,1045.5276666001882,None,1047.163654500153,1047.4529246001039,1047.4529246001039,1047.4689763002098,1047.4689763002098,1047.5099038002081,1047.5099038002081,None,9,0,0.5981276000384241,1047.5099038002081,None,1049.0110639000777,None,['8'],[0.2088764999061823],1049.0110639000777,None,,,,,Emoconpilot037,2021_Nov_10_1338,BackwardMask,2020.2.8,120.04715443410903,
,m,013_y_m_n_a.jpg,neutral,8,28,f,028_y_f_n_a.jpg,neutral,congruent,8,mismatch,,140,170,,1,238,block2_Pilot_2,13,n_n,n_n_weak,,,,,0,1,1,1,0,28,28,28,,,,,,,,,1052.0102149001323,None,1054.0148077001795,1054.301913500065,1054.301913500065,1054.3097624999937,1054.3097624999937,1054.3499604000244,1054.3499604000244,None,None,0,,1054.3499604000244,None,1055.850491099991,None,['9'],[0.4016688000410795],1055.850491099991,None,,,,,Emoconpilot037,2021_Nov_10_1338,BackwardMask,2020.2.8,120.04715443410903,
,f,030_o_f_s_a.jpg,sad,7,33,m,033_o_m_h_a.jpg,happy,incongruent,9,mismatch,,130,150,,3,168,block2_Pilot_2,30,s_h,s_h_weak,,,,,0,1,1,1,0,29,29,29,,,,,,,,,1058.850532800192,None,1060.270729900105,1060.560247400077,1060.560247400077,1060.5846514999866,1060.5846514999866,1060.6249081999995,1060.6249081999995,None,9,1,1.187124599935487,1060.6249081999995,None,1062.1252820000518,None,['8'],[0.6627142000943422],1062.1252820000518,None,,,,,Emoconpilot037,2021_Nov_10_1338,BackwardMask,2020.2.8,120.04715443410903,
,m,008_y_m_n_a.jpg,neutral,8,12,f,012_o_f_n_a.jpg,neutral,congruent,8,mismatch,,140,170,,18,208,block2_Pilot_2,8,n_n,n_n_weak,,,,,0,1,1,1,0,30,30,30,,,,,,,,,1065.1253620001953,None,1066.882054500049,1067.176806700183,1067.176806700183,1067.3264513001777,1067.3264513001777,1067.3671790000517,1067.3671790000517,None,8,1,0.3729077000170946,1067.3671790000517,None,1068.8672185000032,None,['7'],[0.25760179990902543],1068.8672185000032,None,,,,,Emoconpilot037,2021_Nov_10_1338,BackwardMask,2020.2.8,120.04715443410903,
,m,008_y_m_s_a.jpg,sad,7,4,m,004_o_m_n_a.jpg,neutral,incongruent,8,match,,130,170,,2,231,block2_Pilot_2,8,s_n,s_n_weak,,,,,0,1,1,1,0,31,31,31,,,,,,,,,1071.867425700184,None,1073.811760700075,1074.1022361000068,1074.1022361000068,1074.1180748001207,1074.1180748001207,1074.158671000041,1074.158671000041,None,8,1,0.6533916001208127,1074.158671000041,None,1075.6586933000945,None,['8'],[0.08128809998743236],1075.6586933000945,None,,,,,Emoconpilot037,2021_Nov_10_1338,BackwardMask,2020.2.8,120.04715443410903,
,m,016_y_m_n_a.jpg,neutral,8,28,f,028_y_f_n_a.jpg,neutral,congruent,8,mismatch,,140,170,,2,218,block2_Pilot_2,16,n_n,n_n_weak,,,,,0,1,1,1,0,32,32,32,,,,,,,,,1078.6589909000322,None,1080.4944890001789,1080.7855051001534,1080.7855051001534,1080.801124199992,1080.801124199992,1080.8420343000907,1080.8420343000907,None,None,0,,1080.8420343000907,None,1082.3421509000473,None,['9'],[0.3978949999436736],1082.3421509000473,None,,,,,Emoconpilot037,2021_Nov_10_1338,BackwardMask,2020.2.8,120.04715443410903,
,m,033_o_m_n_a.jpg,neutral,8,33,m,033_o_m_s_a.jpg,sad,incongruent,7,match,,140,160,,3,141,block2_Pilot_2,33,n_s,n_s_weak,,,,,0,1,1,1,0,33,33,33,,,,,,,,,1085.3425972000696,None,1086.5392398000695,1086.826990300091,1086.826990300091,1086.8517299999949,1086.8517299999949,1086.8923185002059,1086.8923185002059,None,8,0,0.5516692001838237,1086.8923185002059,None,1088.3924351001624,None,['7'],[0.2918506001587957],1088.3924351001624,None,,,,,Emoconpilot037,2021_Nov_10_1338,BackwardMask,2020.2.8,120.04715443410903,
,m,016_y_m_n_a.jpg,neutral,8,13,m,013_y_m_s_a.jpg,sad,incongruent,7,match,,140,160,,1,238,block2_Pilot_2,16,n_s,n_s_weak,,,,,0,1,1,1,0,34,34,34,,,,,,,,,1091.392447100021,None,1093.3979119001888,1093.685768400086,1093.685768400086,1093.6932760002092,1093.6932760002092,1093.7341848001815,1093.7341848001815,None,None,0,,1093.7341848001815,None,1095.2341503000353,None,['9'],[0.3138204999268055],1095.2341503000353,None,,,,,Emoconpilot037,2021_Nov_10_1338,BackwardMask,2020.2.8,120.04715443410903,
,f,030_o_f_h_a.jpg,happy,9,12,f,012_o_f_n_a.jpg,neutral,incongruent,8,match,,120,170,,3,190,block2_Pilot_2,30,h_n,h_n_weak,,,,,0,1,1,1,0,35,35,35,,,,,,,,,1098.2345350000542,None,1099.8356494000182,1100.1277243001387,1100.1277243001387,1100.1518753001,1100.1518753001,1100.1924248000141,1100.1924248000141,None,9,0,0.523524799849838,1100.1924248000141,None,1101.6925753999967,None,['7'],[0.25546339992433786],1101.6925753999967,None,,,,,Emoconpilot037,2021_Nov_10_1338,BackwardMask,2020.2.8,120.04715443410903,
,f,030_o_f_s_a.jpg,sad,7,12,f,012_o_f_n_a.jpg,neutral,incongruent,8,match,,130,170,,3,197,block2_Pilot_2,30,s_n,s_n_strong,,,,,0,1,1,1,0,36,36,36,,,,,,,,,1104.6926939000841,None,1106.352556800004,1106.644070800161,1106.644070800161,1106.6688834000379,1106.6688834000379,1106.709591299994,1106.709591299994,None,8,1,0.8544968999922276,1106.709591299994,None,1108.209296300076,None,['8'],[0.2914179000072181],1108.209296300076,None,,,,,Emoconpilot037,2021_Nov_10_1338,BackwardMask,2020.2.8,120.04715443410903,
,m,004_o_m_s_a.jpg,sad,7,8,m,008_y_m_h_a.jpg,happy,incongruent,9,match,,130,150,,3,201,block2_Pilot_2,4,s_h,s_h_strong,,,,,0,1,1,1,0,37,37,37,,,,,,,,,1111.2096260001417,None,1112.8904707001057,1113.1855205001775,1113.1855205001775,1113.210069600027,1113.210069600027,1113.2509300000966,1113.2509300000966,None,8,0,0.5930750998668373,1113.2509300000966,None,1114.7509851001669,None,['8'],[0.17302979994565248],1114.7509851001669,None,,,,,Emoconpilot037,2021_Nov_10_1338,BackwardMask,2020.2.8,120.04715443410903,
,f,040_y_f_n_a.jpg,neutral,8,16,m,016_y_m_n_a.jpg,neutral,congruent,8,mismatch,,140,170,,3,198,block2_Pilot_2,40,n_n,n_n_strong,,,,,0,1,1,1,0,38,38,38,,,,,,,,,1117.7512463000603,None,1119.4653094999958,1119.7525250001345,1119.7525250001345,1119.7772477001417,1119.7772477001417,1119.818098000018,1119.818098000018,None,8,1,0.5058576001320034,1119.818098000018,None,1121.318011000054,None,['7'],[0.31797770014964044],1121.318011000054,None,,,,,Emoconpilot037,2021_Nov_10_1338,BackwardMask,2020.2.8,120.04715443410903,
,m,027_o_m_n_a.jpg,neutral,8,16,m,016_y_m_s_a.jpg,sad,incongruent,7,match,,140,160,,1,238,block2_Pilot_2,27,n_s,n_s_strong,,,,,0,1,1,1,0,39,39,39,,,,,,,,,1124.3182697000448,None,1126.3203004000243,1126.61126780021,1126.61126780021,1126.6189663000405,1126.6189663000405,1126.6594788001385,1126.6594788001385,None,None,0,,1126.6594788001385,None,1128.1597297000699,None,['9'],[0.5562501000240445],1128.1597297000699,None,,,,,Emoconpilot037,2021_Nov_10_1338,BackwardMask,2020.2.8,120.04715443410903,
,m,033_o_m_n_a.jpg,neutral,8,40,f,040_y_f_h_a.jpg,happy,incongruent,9,mismatch,,140,150,,2,137,block2_Pilot_2,33,n_h,n_h_strong,,,,,0,1,1,1,0,40,40,40,,,,,,,,,1131.1599285001867,None,1132.3481678001117,1132.636602200102,1132.636602200102,1132.6526496000588,1132.6526496000588,1132.6933421001304,1132.6933421001304,None,8,0,0.5992606999352574,1132.6933421001304,None,1134.1933818000834,None,['8'],[0.3386051000561565],1134.1933818000834,None,,,,,Emoconpilot037,2021_Nov_10_1338,BackwardMask,2020.2.8,120.04715443410903,
,m,004_o_m_s_a.jpg,sad,7,8,m,008_y_m_h_a.jpg,happy,incongruent,9,match,,130,150,,18,193,block2_Pilot_2,4,s_h,s_h_strong,,,,,0,1,1,1,0,41,41,41,,,,,,,,,1137.1934532001615,None,1138.807068800088,1139.1028953001369,1139.1028953001369,1139.2524853001814,1139.2524853001814,1139.2934542000294,1139.2934542000294,None,7,0,0.9345748000778258,1139.2934542000294,None,1140.7932928001974,None,['7'],[0.29930360009893775],1140.7932928001974,None,,,,,Emoconpilot037,2021_Nov_10_1338,BackwardMask,2020.2.8,120.04715443410903,
,f,012_o_f_h_a.jpg,happy,9,4,m,004_o_m_s_a.jpg,sad,incongruent,7,mismatch,,120,160,,3,198,block2_Pilot_2,12,h_s,h_s_weak,,,,,0,1,1,1,0,42,42,42,,,,,,,,,1143.7934807001147,None,1145.4501676000655,1145.7443456000183,1145.7443456000183,1145.7699404000305,1145.7699404000305,1145.8102553000208,1145.8102553000208,None,9,0,0.5617370000109076,1145.8102553000208,None,1147.3103620000184,None,['7'],[0.21366110001690686],1147.3103620000184,None,,,,,Emoconpilot037,2021_Nov_10_1338,BackwardMask,2020.2.8,120.04715443410903,
,f,012_o_f_n_a.jpg,neutral,8,8,m,008_y_m_s_a.jpg,sad,incongruent,7,mismatch,,140,160,,1,238,block2_Pilot_2,12,n_s,n_s_strong,,,,,0,1,1,1,0,43,43,43,,,,,,,,,1150.3104034999851,None,1152.3593364001717,1152.6534345000982,1152.6534345000982,1152.6611262001097,1152.6611262001097,1152.7019642000087,1152.7019642000087,None,None,0,,1152.7019642000087,None,1154.2019547000527,None,['9'],[0.2980676998849958],1154.2019547000527,None,,,,,Emoconpilot037,2021_Nov_10_1338,BackwardMask,2020.2.8,120.04715443410903,
,f,040_y_f_n_a.jpg,neutral,8,8,m,008_y_m_n_a.jpg,neutral,congruent,8,mismatch,,140,170,,3,165,block2_Pilot_2,40,n_n,n_n_weak,,,,,0,1,1,1,0,44,44,44,,,,,,,,,1157.2022063999902,None,1158.5944788001943,1158.886728100013,1158.886728100013,1158.9112818001304,1158.9112818001304,1158.9519883000758,1158.9519883000758,None,8,1,1.0360341998748481,1158.9519883000758,None,1160.4521167001221,None,['7'],[0.9679296999238431],1160.4521167001221,None,,,,,Emoconpilot037,2021_Nov_10_1338,BackwardMask,2020.2.8,120.04715443410903,
,f,028_y_f_h_a.jpg,happy,9,33,m,033_o_m_n_a.jpg,neutral,incongruent,8,mismatch,,120,170,,1,238,block2_Pilot_2,28,h_n,h_n_strong,,,,,0,1,1,1,0,45,45,45,,,,,,,,,1163.4525536000729,None,1165.4592286001425,1165.7531368001364,1165.7531368001364,1165.7613597000018,1165.7613597000018,1165.8023008001037,1165.8023008001037,None,None,0,,1165.8023008001037,None,1167.3021836001426,None,['9'],[0.3818143999669701],1167.3021836001426,None,,,,,Emoconpilot037,2021_Nov_10_1338,BackwardMask,2020.2.8,120.04715443410903,
,m,027_o_m_s_a.jpg,sad,7,19,f,019_m_f_n_a.jpg,neutral,incongruent,8,mismatch,,130,170,,2,236,block2_Pilot_2,27,s_n,s_n_weak,,,,,0,1,1,1,0,46,46,46,,,,,,,,,1170.3027312001213,None,1172.2747382000089,1172.570115600014,1172.570115600014,1172.5865017999895,1172.5865017999895,1172.6272253000643,1172.6272253000643,None,8,1,0.5847107998561114,1172.6272253000643,None,1174.1274123000912,None,['8'],[0.2605953998863697],1174.1274123000912,None,,,,,Emoconpilot037,2021_Nov_10_1338,BackwardMask,2020.2.8,120.04715443410903,
,m,027_o_m_h_a.jpg,happy,9,19,f,019_m_f_s_a.jpg,sad,incongruent,7,mismatch,,120,160,,1,238,block2_Pilot_2,27,h_s,h_s_strong,,,,,0,1,1,1,0,47,47,47,,,,,,,,,1177.1275441001635,None,1179.1849317001179,1179.4790284000337,1179.4790284000337,1179.4865549001843,1179.4865549001843,1179.5274976000655,1179.5274976000655,None,None,0,,1179.5274976000655,None,1181.0277778001036,None,['9'],[0.32025850005447865],1181.0277778001036,None,,,,,Emoconpilot037,2021_Nov_10_1338,BackwardMask,2020.2.8,120.04715443410903,
,m,016_y_m_h_a.jpg,happy,9,4,m,004_o_m_s_a.jpg,sad,incongruent,7,match,,120,160,,3,227,block2_Pilot_2,16,h_s,h_s_strong,,,,,0,1,1,1,0,48,48,48,,,,,,,,,1184.028298499994,None,1185.927865799982,1186.220671800198,1186.220671800198,1186.2456873999909,1186.2456873999909,1186.2862602001987,1186.2862602001987,None,9,0,0.5097109000198543,1186.2862602001987,None,1187.7863199000712,None,['7'],[0.25010179984383285],1187.7863199000712,None,,,,,Emoconpilot037,2021_Nov_10_1338,BackwardMask,2020.2.8,120.04715443410903,
,f,040_y_f_h_a.jpg,happy,9,13,m,013_y_m_h_a.jpg,happy,congruent,9,mismatch,,120,150,,3,165,block2_Pilot_2,40,h_h,h_h_strong,,,,,0,1,1,1,0,49,49,49,,,,,,,,,1190.787926300196,None,1192.1714064001571,1192.4637808999978,1192.4637808999978,1192.488814700162,1192.488814700162,1192.5297906000633,1192.5297906000633,None,9,1,0.4903165001887828,1192.5297906000633,None,1194.029460000107,None,['7'],[0.190796900074929],1194.029460000107,None,,,,,Emoconpilot037,2021_Nov_10_1338,BackwardMask,2020.2.8,120.04715443410903,
,m,033_o_m_s_a.jpg,sad,7,28,f,028_y_f_n_a.jpg,neutral,incongruent,8,mismatch,,130,170,,2,227,block2_Pilot_2,33,s_n,s_n_weak,,,,,0,1,1,1,0,50,50,50,,,,,,,,,1197.0298384001944,None,1198.930013500154,1199.2224246000405,1199.2224246000405,1199.2390511000995,1199.2390511000995,1199.2799341999926,1199.2799341999926,None,None,0,,1199.2799341999926,None,1200.7798601000104,None,['9'],[0.4563782000914216],1200.7798601000104,None,,,,,Emoconpilot037,2021_Nov_10_1338,BackwardMask,2020.2.8,120.04715443410903,
,f,019_m_f_s_a.jpg,sad,7,27,m,027_o_m_h_a.jpg,happy,incongruent,9,mismatch,,130,150,,1,238,block2_Pilot_2,19,s_h,s_h_weak,,,,,0,1,1,1,0,51,51,51,,,,,,,,,1203.7809557002038,None,1205.7850401999895,1206.0814209000673,1206.0814209000673,1206.0891178001184,1206.0891178001184,1206.130043500103,1206.130043500103,None,None,0,,1206.130043500103,None,1207.6300111000892,None,['9'],[0.39823739998973906],1207.6300111000892,None,,,,,Emoconpilot037,2021_Nov_10_1338,BackwardMask,2020.2.8,120.04715443410903,
,m,016_y_m_h_a.jpg,happy,9,19,f,019_m_f_n_a.jpg,neutral,incongruent,8,mismatch,,120,170,,18,238,block2_Pilot_2,16,h_n,h_n_strong,,,,,0,1,1,1,0,52,52,52,,,,,,,,,1210.6302672000602,None,1212.6212649000809,1212.9144951000344,1212.9144951000344,1213.064417900052,1213.064417900052,1213.1050200001337,1213.1050200001337,None,9,0,0.3471741999965161,1213.1050200001337,None,1214.605280000018,None,['7'],[0.17490860004909337],1214.605280000018,None,,,,,Emoconpilot037,2021_Nov_10_1338,BackwardMask,2020.2.8,120.04715443410903,
,f,021_o_f_s_a.jpg,sad,7,8,m,008_y_m_n_a.jpg,neutral,incongruent,8,mismatch,,130,170,,1,238,block2_Pilot_2,21,s_n,s_n_strong,,,,,0,1,1,1,0,53,53,53,,,,,,,,,1217.6053371001035,None,1219.594375200104,1219.8897147001699,1219.8897147001699,1219.897762699984,1219.897762699984,1219.9384703000542,1219.9384703000542,None,None,0,,1219.9384703000542,None,1221.4387350000907,None,['9'],[0.34153379988856614],1221.4387350000907,None,,,,,Emoconpilot037,2021_Nov_10_1338,BackwardMask,2020.2.8,120.04715443410903,
,f,012_o_f_s_a.jpg,sad,7,33,m,033_o_m_s_a.jpg,sad,congruent,7,mismatch,,130,160,,2,148,block2_Pilot_2,12,s_s,s_s_weak,,,,,0,1,1,1,0,54,54,54,,,,,,,,,1224.4388663000427,None,1225.6756877000444,1225.9727883001324,1225.9727883001324,1225.9895660001785,1225.9895660001785,1226.0303888001945,1226.0303888001945,None,None,0,,1226.0303888001945,None,1227.531336700078,None,['9'],[0.35290870000608265],1227.531336700078,None,,,,,Emoconpilot037,2021_Nov_10_1338,BackwardMask,2020.2.8,120.04715443410903,
,f,030_o_f_s_a.jpg,sad,7,40,f,040_y_f_s_a.jpg,sad,congruent,7,match,,130,160,,3,136,block2_Pilot_2,30,s_s,s_s_strong,,,,,0,1,1,1,0,55,55,55,,,,,,,,,1230.530635900097,None,1231.6845305000897,1231.9736528000794,1231.9736528000794,1231.9980351000559,1231.9980351000559,1232.0388642000034,1232.0388642000034,None,7,1,0.8214491000398993,1232.0388642000034,None,1233.5389897001442,None,['8'],[0.577151499921456],1233.5389897001442,None,,,,,Emoconpilot037,2021_Nov_10_1338,BackwardMask,2020.2.8,120.04715443410903,
,m,027_o_m_s_a.jpg,sad,7,28,f,028_y_f_h_a.jpg,happy,incongruent,9,mismatch,,130,150,,1,238,block2_Pilot_2,27,s_h,s_h_weak,,,,,0,1,1,1,0,56,56,56,,,,,,,,,1236.5400763000362,None,1238.5308561001439,1238.8233786001801,1238.8233786001801,1238.831589100184,1238.831589100184,1238.8722801001277,1238.8722801001277,None,None,0,,1238.8722801001277,None,1240.3723687999882,None,['9'],[0.48793859989382327],1240.3723687999882,None,,,,,Emoconpilot037,2021_Nov_10_1338,BackwardMask,2020.2.8,120.04715443410903,
,m,004_o_m_n_a.jpg,neutral,8,8,m,008_y_m_s_a.jpg,sad,incongruent,7,match,,140,160,,3,225,block2_Pilot_2,4,n_s,n_s_strong,,,,,0,1,1,1,0,57,57,57,,,,,,,,,1243.3725471000653,None,1245.2679203001317,1245.5572815001942,1245.5572815001942,1245.5816271000076,1245.5816271000076,1245.6224448999856,1245.6224448999856,None,8,0,0.7255792999640107,1245.6224448999856,None,1247.1224981001578,None,['8'],[0.6577703000511974],1247.1224981001578,None,,,,,Emoconpilot037,2021_Nov_10_1338,BackwardMask,2020.2.8,120.04715443410903,
,f,012_o_f_s_a.jpg,sad,7,40,f,040_y_f_s_a.jpg,sad,congruent,7,match,,130,160,,1,238,block2_Pilot_2,12,s_s,s_s_strong,,,,,0,1,1,1,0,58,58,58,,,,,,,,,1250.1225880000275,None,1252.1092873001471,1252.4071396000218,1252.4071396000218,1252.4150726001244,1252.4150726001244,1252.4559797002003,1252.4559797002003,None,None,0,,1252.4559797002003,None,1253.956546400208,None,['9'],[0.40772289992310107],1253.956546400208,None,,,,,Emoconpilot037,2021_Nov_10_1338,BackwardMask,2020.2.8,120.04715443410903,
,f,021_o_f_h_a.jpg,happy,9,4,m,004_o_m_n_a.jpg,neutral,incongruent,8,mismatch,,120,170,,1,238,block2_Pilot_2,21,h_n,h_n_weak,,,,,0,1,1,1,0,59,59,59,,,,,,,,,1256.9562470000237,None,1258.9601962000597,1259.2499784000684,1259.2499784000684,1259.2570374000352,1259.2570374000352,1259.297351300018,1259.297351300018,None,None,0,,1259.297351300018,None,1260.7980383001268,None,['9'],[0.39015999995172024],1260.7980383001268,None,,,,,Emoconpilot037,2021_Nov_10_1338,BackwardMask,2020.2.8,120.04715443410903,
,f,040_y_f_h_a.jpg,happy,9,16,m,016_y_m_n_a.jpg,neutral,incongruent,8,mismatch,,120,170,,2,154,block2_Pilot_2,40,h_n,h_n_weak,,,,,0,1,1,1,0,60,60,60,,,,,,,,,1263.798429600196,None,1265.089311200194,1265.3823086000048,1265.3823086000048,1265.398772600107,1265.398772600107,1265.4396236001048,1265.4396236001048,None,None,0,,1265.4396236001048,None,1266.9397811000235,None,['9'],[0.304427299881354],1266.9397811000235,None,,,,,Emoconpilot037,2021_Nov_10_1338,BackwardMask,2020.2.8,120.04715443410903,
,m,008_y_m_n_a.jpg,neutral,8,4,m,004_o_m_s_a.jpg,sad,incongruent,7,match,,140,160,,18,145,block2_Pilot_2,8,n_s,n_s_strong,,,,,0,1,1,1,0,61,61,61,,,,,,,,,1269.939677500166,None,1271.1690253000706,1271.4576248000376,1271.4576248000376,1271.607204800006,1271.607204800006,1271.6481135999784,1271.6481135999784,None,8,0,0.37983119999989867,1271.6481135999784,None,1273.1482250001281,None,['7'],[0.2080105000641197],1273.1482250001281,None,,,,,Emoconpilot037,2021_Nov_10_1338,BackwardMask,2020.2.8,120.04715443410903,
,f,021_o_f_s_a.jpg,sad,7,33,m,033_o_m_h_a.jpg,happy,incongruent,9,mismatch,,130,150,,1,238,block2_Pilot_2,21,s_h,s_h_strong,,,,,0,1,1,1,0,62,62,62,,,,,,,,,1276.1482844999991,None,1278.137505199993,1278.432558500208,1278.432558500208,1278.440522900084,1278.440522900084,1278.4817115000915,1278.4817115000915,None,None,0,,1278.4817115000915,None,1279.9812177000567,None,['9'],[0.4388005000073463],1279.9812177000567,None,,,,,Emoconpilot037,2021_Nov_10_1338,BackwardMask,2020.2.8,120.04715443410903,
,m,033_o_m_n_a.jpg,neutral,8,30,f,030_o_f_h_a.jpg,happy,incongruent,9,mismatch,,140,150,,18,171,block2_Pilot_2,33,n_h,n_h_weak,,,,,0,1,1,1,0,63,63,63,,,,,,,,,1282.9812983002048,None,1284.4280817001127,1284.7250330001116,1284.7250330001116,1284.8739820001647,1284.8739820001647,1284.914959100075,1284.914959100075,None,8,0,0.36131269996985793,1284.914959100075,None,1286.4146169000305,None,['7'],[0.23743469989858568],1286.4146169000305,None,,,,,Emoconpilot037,2021_Nov_10_1338,BackwardMask,2020.2.8,120.04715443410903,
,m,027_o_m_n_a.jpg,neutral,8,27,m,027_o_m_h_a.jpg,happy,incongruent,9,match,,140,150,,2,164,block2_Pilot_2,27,n_h,n_h_weak,,,,,0,1,1,1,0,64,64,64,,,,,,,,,1289.4154692001175,None,1290.8010202001315,1291.0912377000786,1291.0912377000786,1291.1075330001768,1291.1075330001768,1291.1481503001414,1291.1481503001414,None,None,0,,1291.1481503001414,None,1292.6468827000353,None,['9'],[0.43736229999922216],1292.6468827000353,None,,,,,Emoconpilot037,2021_Nov_10_1338,BackwardMask,2020.2.8,120.04715443410903,
,m,008_y_m_n_a.jpg,neutral,8,40,f,040_y_f_n_a.jpg,neutral,congruent,8,mismatch,,140,170,,1,238,block2_Pilot_2,8,n_n,n_n_strong,,,,,0,1,1,1,0,65,65,65,,,,,,,,,1295.6469764001667,None,1297.650452699978,1297.9406848000363,1297.9406848000363,1297.9485282001551,1297.9485282001551,1297.9895604001358,1297.9895604001358,None,None,0,,1297.9895604001358,None,1299.4902449999936,None,['9'],[0.49796629999764264],1299.4902449999936,None,,,,,Emoconpilot037,2021_Nov_10_1338,BackwardMask,2020.2.8,120.04715443410903,
,f,040_y_f_h_a.jpg,happy,9,21,f,021_o_f_n_a.jpg,neutral,incongruent,8,match,,120,170,,18,239,block2_Pilot_2,40,h_n,h_n_strong,,,,,0,1,1,1,0,66,66,66,,,,,,,,,1302.4903478000779,None,1304.504898500163,1304.7994747001212,1304.7994747001212,1304.9496295000426,1304.9496295000426,1304.9900726000778,1304.9900726000778,None,9,0,0.5099182000849396,1304.9900726000778,None,1306.49125620001,None,['7'],[0.30499619990587234],1306.49125620001,None,,,,,Emoconpilot037,2021_Nov_10_1338,BackwardMask,2020.2.8,120.04715443410903,
,f,021_o_f_s_a.jpg,sad,7,28,f,028_y_f_h_a.jpg,happy,incongruent,9,match,,130,150,,1,238,block2_Pilot_2,21,s_h,s_h_weak,,,,,0,1,1,1,0,67,67,67,,,,,,,,,1309.4907164000906,None,1311.4834051001817,1311.774713800056,1311.774713800056,1311.7830972000957,1311.7830972000957,1311.8238435001113,1311.8238435001113,None,None,0,,1311.8238435001113,None,1313.324077700032,None,['9'],[0.3600425999611616],1313.324077700032,None,,,,,Emoconpilot037,2021_Nov_10_1338,BackwardMask,2020.2.8,120.04715443410903,
,f,021_o_f_n_a.jpg,neutral,8,30,f,030_o_f_n_a.jpg,neutral,congruent,8,match,,140,170,,2,209,block2_Pilot_2,21,n_n,n_n_strong,,,,,0,1,1,1,0,68,68,68,,,,,,,,,1316.3243283000775,None,1318.1288064999972,1318.425561600132,1318.425561600132,1318.441324400017,1318.441324400017,1318.4823013001587,1318.4823013001587,None,None,0,,1318.4823013001587,None,1319.9832886999939,None,['9'],[0.34085709997452796],1319.9832886999939,None,,,,,Emoconpilot037,2021_Nov_10_1338,BackwardMask,2020.2.8,120.04715443410903,
,f,040_y_f_s_a.jpg,sad,7,13,m,013_y_m_s_a.jpg,sad,congruent,7,mismatch,,130,160,,3,147,block2_Pilot_2,40,s_s,s_s_strong,,,,,0,1,1,1,0,69,69,69,,,,,,,,,1322.982530400157,None,1324.219722600188,1324.5084002001677,1324.5084002001677,1324.533385500079,1324.533385500079,1324.5742080002092,1324.5742080002092,None,8,0,0.7980100000277162,1324.5742080002092,None,1326.074392199982,None,['8'],[0.23378170002251863],1326.074392199982,None,,,,,Emoconpilot037,2021_Nov_10_1338,BackwardMask,2020.2.8,120.04715443410903,
,f,040_y_f_s_a.jpg,sad,7,21,f,021_o_f_h_a.jpg,happy,incongruent,9,match,,130,150,,3,172,block2_Pilot_2,40,s_h,s_h_strong,,,,,0,1,1,1,0,70,70,70,,,,,,,,,1329.0750019000843,None,1330.5157587002032,1330.8085682000965,1330.8085682000965,1330.8335525000002,1330.8335525000002,1330.8742422000505,1330.8742422000505,None,8,0,0.5780159998685122,1330.8742422000505,None,1332.3743582000025,None,['8'],[0.23781579989008605],1332.3743582000025,None,,,,,Emoconpilot037,2021_Nov_10_1338,BackwardMask,2020.2.8,120.04715443410903,
,m,013_y_m_s_a.jpg,sad,7,16,m,016_y_m_n_a.jpg,neutral,incongruent,8,match,,130,170,,1,238,block2_Pilot_2,13,s_n,s_n_strong,,,,,0,1,1,1,0,71,71,71,,,,,,,,,1335.3744448001962,None,1337.3699717000127,1337.6586194001138,1337.6586194001138,1337.6669031002093,1337.6669031002093,1337.7077858000994,1337.7077858000994,None,None,0,,1337.7077858000994,None,1339.2079042000696,None,['9'],[0.4041414000093937],1339.2079042000696,None,,,,,Emoconpilot037,2021_Nov_10_1338,BackwardMask,2020.2.8,120.04715443410903,
,m,008_y_m_s_a.jpg,sad,7,12,f,012_o_f_h_a.jpg,happy,incongruent,9,mismatch,,130,150,,18,238,block2_Pilot_2,8,s_h,s_h_weak,,,,,0,1,1,1,0,72,72,72,,,,,,,,,1342.2080756002106,None,1344.2410217002034,1344.5342153999954,1344.5342153999954,1344.68362720008,1344.68362720008,1344.7245430999901,1344.7245430999901,None,7,0,0.5276983000803739,1344.7245430999901,None,1346.224617100088,None,['7'],[0.29158139997161925],1346.224617100088,None,,,,,Emoconpilot037,2021_Nov_10_1338,BackwardMask,2020.2.8,120.04715443410903,
