Person	primeGender	prime	primeEmotion	corrAnsPrime	targetPerson	targetGender	target	targetEmotion	Cond	corrAnsTar	gender	condition	ID_primer	ID_target	PrimerTime	PrimerTime120	JitterTime	conditionsFile	primePerson	emotion_condition	Condition	example.thisRepN	example.thisTrialN	example.thisN	example.thisIndex	readinBlocks.thisRepN	readinBlocks.thisTrialN	readinBlocks.thisN	readinBlocks.thisIndex	trials.thisRepN	trials.thisTrialN	trials.thisN	trials.thisIndex	text_intro.started	text_intro.stopped	text_probe.started	text_probe.stopped	key_resp_2.keys	key_resp_2.rt	key_resp_2.started	key_resp_2.stopped	polygon_ISI.started	polygon_ISI.stopped	polygon.started	polygon.stopped	primerImage.started	primerImage.stopped		maskImage.started	maskImage.stopped	response.started	response.stopped	key_resp.keys	key_resp.corr	key_resp.started	key_resp.stopped	text.started	text.stopped	key_resp_Rating.keys	key_resp_Rating.rt	key_resp_Rating.started	key_resp_Rating.stopped	text_start.started	text_start.stopped	text_pause.started	text_pause.stopped	key_resp.rt	text_ende.started	text_ende.stopped	participant	date	expName	psychopyVersion	frameRate
																																		159.5651206	164.5227638	164.5227638	None	7	16.8360244	159.5651206	None																													Emoconpilot039	2021_Dec_15_1153	BackwardMask	08.02.20	120.019059
2	f	1113_y_f_s_a.jpg	sad	7	1	m	1111_m_m_h_a.jpg	happy	incongruent	9	mix	s+h	130	150	1	2	148					0	0	0	0																	176.5062285	None	177.8490978	178.1666021	178.1666021	178.2004929	0.0338908	178.2004929	178.2339695	178.2339695	None	None	0	178.2339695	None	179.7301458	None	['9']	[2.91114349999998]	179.7301458	None								Emoconpilot039	2021_Dec_15_1153	BackwardMask	08.02.20	120.019059
2	f	1111_m_m_h_a.jpg	happy	9	3	f	1113_y_f_s_a.jpg	sad	incongruent	7	mix	h+s	120	160	9	18	195					0	1	1	1																	182.7297681	None	184.3836644	184.6729509	184.6729509	184.8223166	0.1493657	184.8223166	184.8628179	184.8628179	None	None	0	184.8628179	None	186.3630911	None	None		186.3630911	None								Emoconpilot039	2021_Dec_15_1153	BackwardMask	08.02.20	120.019059
2	f	1112_m_f_n_a.jpg	neutral	8	2	f	1112_m_f_n_a.jpg	neutral	congruent	8	match	n+n	140	170	9	18	134					0	2	2	2																	189.3631341	None	190.5380323	190.831456	190.831456	190.9809968	0.1495408	190.9809968	191.0211314	191.0211314	None	None	0	191.0211314	None	192.5217381	None	['8', '7']	[0.18356280000000424, 2.9674982000000227]	192.5217381	None								Emoconpilot039	2021_Dec_15_1153	BackwardMask	08.02.20	120.019059
	m	033_o_m_h_a.jpg	happy	9	30	f	030_o_f_n_a.jpg	neutral	incongruent	8	mismatch		120	170		18	238	block1_Pilot_2	33	h_n	h_n_strong					0	0	0	0	0	0	0	0									196.5674253	None	198.560753	198.855856	198.855856	199.0056432	0.1497872	199.0056432	199.0464277	199.0464277	None	9	0	199.0464277	None	200.5468684	None	['7']	[2.3743977000000314]	200.5468684	None	195.5212327	None	None	None	1.4587806			Emoconpilot039	2021_Dec_15_1153	BackwardMask	08.02.20	120.019059
	m	004_o_m_h_a.jpg	happy	9	12	f	012_o_f_h_a.jpg	happy	congruent	9	mismatch		120	150		2	218	block1_Pilot_2	4	h_h	h_h_weak					0	0	0	0	0	1	1	1									203.5471743	None	205.4119815	205.7068093	205.7068093	205.7226082	0.0157989	205.7226082	205.7634055	205.7634055	None	None	0	205.7634055	None	207.2633651	None	['9', '7']	[0.2579665999999179, 2.2258013999999093]	207.2633651	None								Emoconpilot039	2021_Dec_15_1153	BackwardMask	08.02.20	120.019059
	f	012_o_f_h_a.jpg	happy	9	33	m	033_o_m_h_a.jpg	happy	congruent	9	mismatch		120	150		2	140	block1_Pilot_2	12	h_h	h_h_weak					0	0	0	0	0	2	2	2									210.2640431	None	211.449	211.7393575	211.7393575	211.7558771	0.0165196	211.7558771	211.7966001	211.7966001	None	None	0	211.7966001	None	213.2967709	None	['9']	[1.832594800000038]	213.2967709	None								Emoconpilot039	2021_Dec_15_1153	BackwardMask	08.02.20	120.019059
	f	040_y_f_n_a.jpg	neutral	8	40	f	040_y_f_h_a.jpg	happy	incongruent	9	match		140	150		2	192	block1_Pilot_2	40	n_h	n_h_weak					0	0	0	0	0	3	3	3									216.2969179	None	217.9364483	218.2319422	218.2319422	218.2479247	0.0159825	218.2479247	218.2885429	218.2885429	None	None	0	218.2885429	None	219.7885043	None	['8', '8']	[0.03651999999999589, 2.4925849999999627]	219.7885043	None								Emoconpilot039	2021_Dec_15_1153	BackwardMask	08.02.20	120.019059
	m	013_y_m_s_a.jpg	sad	7	16	m	016_y_m_n_a.jpg	neutral	incongruent	8	match		130	170		3	155	block1_Pilot_2	13	s_n	s_n_weak					0	0	0	0	0	4	4	4									222.7899799	None	224.0961635	224.3896303	224.3896303	224.4144629	0.0248326	224.4144629	224.4552102	224.4552102	None	8	1	224.4552102	None	225.9553884	None	['8']	[2.6138650000000325]	225.9553884	None					1.065976			Emoconpilot039	2021_Dec_15_1153	BackwardMask	08.02.20	120.019059
	f	012_o_f_h_a.jpg	happy	9	21	f	021_o_f_h_a.jpg	happy	congruent	9	match		120	150		2	216	block1_Pilot_2	12	h_h	h_h_strong					0	0	0	0	0	5	5	5									228.9554691	None	230.7630443	231.0564689	231.0564689	231.0733278	0.0168589	231.0733278	231.1139377	231.1139377	None	None	0	231.1139377	None	232.6138336	None	['9']	[0.8914782000000514]	232.6138336	None								Emoconpilot039	2021_Dec_15_1153	BackwardMask	08.02.20	120.019059
	f	040_y_f_s_a.jpg	sad	7	40	f	040_y_f_h_a.jpg	happy	incongruent	9	match		130	150		1	238	block1_Pilot_2	40	s_h	s_h_weak					0	0	0	0	0	6	6	6									235.6143686	None	237.6114796	237.9067269	237.9067269	237.9147351	0.0080082	237.9147351	237.9555209	237.9555209	None	None	0	237.9555209	None	239.4555651	None	['9']	[0.7295637999999371]	239.4555651	None								Emoconpilot039	2021_Dec_15_1153	BackwardMask	08.02.20	120.019059
	m	033_o_m_n_a.jpg	neutral	8	27	m	027_o_m_n_a.jpg	neutral	congruent	8	match		140	170		18	238	block1_Pilot_2	33	n_n	n_n_weak					0	0	0	0	0	7	7	7									242.4557309	None	244.5208123	244.815461	244.815461	244.9650134	0.1495524	244.9650134	245.0056354	245.0056354	None	8	1	245.0056354	None	246.5068064	None	['7']	[1.0543605999999954]	246.5068064	None					0.6674657			Emoconpilot039	2021_Dec_15_1153	BackwardMask	08.02.20	120.019059
	f	040_y_f_h_a.jpg	happy	9	19	f	019_m_f_n_a.jpg	neutral	incongruent	8	match		120	170		1	238	block1_Pilot_2	40	h_n	h_n_strong					0	0	0	0	0	8	8	8									249.5064734	None	251.5023365	251.7901146	251.7901146	251.7982406	0.008126	251.7982406	251.8390245	251.8390245	None	None	0	251.8390245	None	253.3393749	None	['9']	[0.5817909999999529]	253.3393749	None								Emoconpilot039	2021_Dec_15_1153	BackwardMask	08.02.20	120.019059
	m	013_y_m_h_a.jpg	happy	9	12	f	012_o_f_s_a.jpg	sad	incongruent	7	mismatch		120	160		3	198	block1_Pilot_2	13	h_s	h_s_weak					0	0	0	0	0	9	9	9									256.3392826	None	258.0309626	258.3245017	258.3245017	258.3487901	0.0242884	258.3487901	258.3893008	258.3893008	None	7	1	258.3893008	None	259.8893649	None	['8']	[2.015741700000035]	259.8893649	None					0.8998629			Emoconpilot039	2021_Dec_15_1153	BackwardMask	08.02.20	120.019059
	m	008_y_m_h_a.jpg	happy	9	4	m	004_o_m_n_a.jpg	neutral	incongruent	8	match		120	170		18	150	block1_Pilot_2	8	h_n	h_n_strong					0	0	0	0	0	10	10	10									262.8895331	None	264.1542653	264.4488988	264.4488988	264.5993706	0.1504718	264.5993706	264.6397521	264.6397521	None	9	0	264.6397521	None	266.1394781	None	['7']	[1.03755799999999]	266.1394781	None					0.5533658			Emoconpilot039	2021_Dec_15_1153	BackwardMask	08.02.20	120.019059
	f	019_m_f_h_a.jpg	happy	9	27	m	027_o_m_s_a.jpg	sad	incongruent	7	mismatch		120	160		1	238	block1_Pilot_2	19	h_s	h_s_weak					0	0	0	0	0	11	11	11									269.1398916	None	271.1364049	271.4328501	271.4328501	271.4407647	0.0079146	271.4407647	271.4812659	271.4812659	None	None	0	271.4812659	None	272.9813825	None	['9']	[0.5398222000000032]	272.9813825	None								Emoconpilot039	2021_Dec_15_1153	BackwardMask	08.02.20	120.019059
	m	016_y_m_s_a.jpg	sad	7	4	m	004_o_m_s_a.jpg	sad	congruent	7	match		130	160		18	142	block1_Pilot_2	16	s_s	s_s_strong					0	0	0	0	0	12	12	12									275.9816189	None	277.1780936	277.4741386	277.4741386	277.6243989	0.1502603	277.6243989	277.6648306	277.6648306	None	7	1	277.6648306	None	279.1646456	None	['7']	[0.8123237999999446]	279.1646456	None					1.0082586			Emoconpilot039	2021_Dec_15_1153	BackwardMask	08.02.20	120.019059
	f	021_o_f_n_a.jpg	neutral	8	21	f	021_o_f_h_a.jpg	happy	incongruent	9	match		140	150		3	171	block1_Pilot_2	21	n_h	n_h_weak					0	0	0	0	0	13	13	13									282.1664586	None	283.6159702	283.9081676	283.9081676	283.9322735	0.0241059	283.9322735	283.9730199	283.9730199	None	8	0	283.9730199	None	285.4730609	None	['7']	[0.3759051999999201]	285.4730609	None					0.7481195			Emoconpilot039	2021_Dec_15_1153	BackwardMask	08.02.20	120.019059
	f	012_o_f_h_a.jpg	happy	9	13	m	013_y_m_h_a.jpg	happy	congruent	9	mismatch		120	150		3	213	block1_Pilot_2	12	h_h	h_h_weak					0	0	0	0	0	14	14	14									288.473293	None	290.2567797	290.5495808	290.5495808	290.5742382	0.0246574	290.5742382	290.6148298	290.6148298	None	9	1	290.6148298	None	292.1148698	None	['7']	[1.1662920999999642]	292.1148698	None					1.0662989			Emoconpilot039	2021_Dec_15_1153	BackwardMask	08.02.20	120.019059
	f	021_o_f_s_a.jpg	sad	7	27	m	027_o_m_n_a.jpg	neutral	incongruent	8	mismatch		130	170		3	174	block1_Pilot_2	21	s_n	s_n_weak					0	0	0	0	0	15	15	15									295.1153671	None	296.5786709	296.8749229	296.8749229	296.8993387	0.0244158	296.8993387	296.9399534	296.9399534	None	7	0	296.9399534	None	298.4407464	None	['8']	[1.008174199999985]	298.4407464	None					1.1731336			Emoconpilot039	2021_Dec_15_1153	BackwardMask	08.02.20	120.019059
	f	019_m_f_n_a.jpg	neutral	8	19	f	019_m_f_h_a.jpg	happy	incongruent	9	match		140	150		3	238	block1_Pilot_2	19	n_h	n_h_weak					0	0	0	0	0	16	16	16									301.4405139	None	303.5408952	303.8334844	303.8334844	303.8582979	0.0248135	303.8582979	303.8985789	303.8985789	None	8	0	303.8985789	None	305.3984985	None	['8']	[0.794459399999937]	305.3984985	None					0.7104258			Emoconpilot039	2021_Dec_15_1153	BackwardMask	08.02.20	120.019059
	f	028_y_f_n_a.jpg	neutral	8	30	f	030_o_f_s_a.jpg	sad	incongruent	7	match		140	160		18	219	block1_Pilot_2	28	n_s	n_s_weak					0	0	0	0	0	17	17	17									308.399325	None	310.249033	310.5417472	310.5417472	310.6911879	0.1494407	310.6911879	310.7318829	310.7318829	None	8	0	310.7318829	None	312.2320151	None	['7']	[0.4489939999999706]	312.2320151	None					0.7652214			Emoconpilot039	2021_Dec_15_1153	BackwardMask	08.02.20	120.019059
	m	008_y_m_h_a.jpg	happy	9	8	m	008_y_m_s_a.jpg	sad	incongruent	7	match		120	160		3	176	block1_Pilot_2	8	h_s	h_s_weak					0	0	0	0	0	18	18	18									315.2328017	None	316.7083064	317.0001827	317.0001827	317.0248564	0.0246737	317.0248564	317.0655607	317.0655607	None	9	0	317.0655607	None	318.5654651	None	['7']	[0.3794586999999865]	318.5654651	None					0.8155714			Emoconpilot039	2021_Dec_15_1153	BackwardMask	08.02.20	120.019059
	f	019_m_f_h_a.jpg	happy	9	33	m	033_o_m_n_a.jpg	neutral	incongruent	8	mismatch		120	170		18	136	block1_Pilot_2	19	h_n	h_n_weak					0	0	0	0	0	19	19	19									321.5655813	None	322.7082411	323.0002398	323.0002398	323.1499163	0.1496765	323.1499163	323.1905359	323.1905359	None	9	0	323.1905359	None	324.6909586	None	['7']	[0.7822589999999536]	324.6909586	None					0.7544436			Emoconpilot039	2021_Dec_15_1153	BackwardMask	08.02.20	120.019059
	m	013_y_m_n_a.jpg	neutral	8	12	f	012_o_f_s_a.jpg	sad	incongruent	7	mismatch		140	160		2	132	block1_Pilot_2	13	n_s	n_s_strong					0	0	0	0	0	20	20	20									327.691104	None	328.8760914	329.1673274	329.1673274	329.1834304	0.016103	329.1834304	329.2243995	329.2243995	None	8	0	329.2243995	None	330.7240424	None	['8']	[2.2128797000000304]	330.7240424	None					1.3846045			Emoconpilot039	2021_Dec_15_1153	BackwardMask	08.02.20	120.019059
	f	040_y_f_s_a.jpg	sad	7	8	m	008_y_m_h_a.jpg	happy	incongruent	9	mismatch		130	150		2	175	block1_Pilot_2	40	s_h	s_h_weak					0	0	0	0	0	21	21	21									333.7251205	None	335.1934718	335.483411	335.483411	335.5001398	0.0167288	335.5001398	335.5406445	335.5406445	None	None	0	335.5406445	None	337.0407516	None	['9']	[0.3923002000000224]	337.0407516	None								Emoconpilot039	2021_Dec_15_1153	BackwardMask	08.02.20	120.019059
	m	004_o_m_h_a.jpg	happy	9	40	f	040_y_f_s_a.jpg	sad	incongruent	7	mismatch		120	160		2	193	block1_Pilot_2	4	h_s	h_s_weak					0	0	0	0	0	22	22	22									340.0410865	None	341.693616	341.9845038	341.9845038	342.0003069	0.0158031	342.0003069	342.0409203	342.0409203	None	None	0	342.0409203	None	343.541283	None	['9', '8']	[0.043717500000070686, 1.139687800000047]	343.541283	None								Emoconpilot039	2021_Dec_15_1153	BackwardMask	08.02.20	120.019059
	f	028_y_f_s_a.jpg	sad	7	13	m	013_y_m_n_a.jpg	neutral	incongruent	8	mismatch		130	170		2	126	block1_Pilot_2	28	s_n	s_n_weak					0	0	0	0	0	23	23	23									346.5415628	None	347.6113455	347.9007084	347.9007084	347.9168506	0.0161422	347.9168506	347.9579408	347.9579408	None	7	0	347.9579408	None	349.4576487	None	['8']	[0.42340709999996307]	349.4576487	None					0.9870673			Emoconpilot039	2021_Dec_15_1153	BackwardMask	08.02.20	120.019059
	m	004_o_m_h_a.jpg	happy	9	40	f	040_y_f_n_a.jpg	neutral	incongruent	8	mismatch		120	170		3	146	block1_Pilot_2	4	h_n	h_n_strong					0	0	0	0	0	24	24	24									352.4578387	None	353.7275348	354.0176123	354.0176123	354.0424671	0.0248548	354.0424671	354.082719	354.082719	None	7	0	354.082719	None	355.5834223	None	['8']	[0.5294412999999167]	355.5834223	None					1.206235			Emoconpilot039	2021_Dec_15_1153	BackwardMask	08.02.20	120.019059
	m	008_y_m_s_a.jpg	sad	7	30	f	030_o_f_n_a.jpg	neutral	incongruent	8	mismatch		130	170		3	132	block1_Pilot_2	8	s_n	s_n_strong					0	0	0	0	0	25	25	25									358.5830428	None	361.0551251	361.3514707	361.3514707	361.3755637	0.024093	361.3755637	361.416114	361.416114	None	7	0	361.416114	None	362.916361	None	['8']	[1.0286363000000165]	362.916361	None					1.1127757			Emoconpilot039	2021_Dec_15_1153	BackwardMask	08.02.20	120.019059
	f	040_y_f_n_a.jpg	neutral	8	40	f	040_y_f_s_a.jpg	sad	incongruent	7	match		140	160		2	123	block1_Pilot_2	40	n_s	n_s_weak					0	0	0	0	0	26	26	26									365.9163782	None	366.9608205	367.251497	367.251497	367.2671931	0.0156961	367.2671931	367.3079342	367.3079342	None	8	0	367.3079342	None	368.807999	None	['8']	[0.3209587000000056]	368.807999	None					0.8129365			Emoconpilot039	2021_Dec_15_1153	BackwardMask	08.02.20	120.019059
	f	028_y_f_s_a.jpg	sad	7	27	m	027_o_m_s_a.jpg	sad	congruent	7	mismatch		130	160		3	159	block1_Pilot_2	28	s_s	s_s_weak					0	0	0	0	0	27	27	27									371.8081859	None	373.1542957	373.4426603	373.4426603	373.4672878	0.0246275	373.4672878	373.5080811	373.5080811	None	None	0	373.5080811	None	375.0084158	None	['7', '9']	[0.10443829999996979, 0.856530199999952]	375.0084158	None								Emoconpilot039	2021_Dec_15_1153	BackwardMask	08.02.20	120.019059
	f	012_o_f_s_a.jpg	sad	7	27	m	027_o_m_s_a.jpg	sad	congruent	7	mismatch		130	160		18	166	block1_Pilot_2	12	s_s	s_s_weak					0	0	0	0	0	28	28	28									378.0082493	None	379.4035923	379.6925689	379.6925689	379.8423214	0.1497525	379.8423214	379.8831923	379.8831923	None	7	1	379.8831923	None	381.383335	None	['7']	[0.4656221000000187]	381.383335	None					0.7978182			Emoconpilot039	2021_Dec_15_1153	BackwardMask	08.02.20	120.019059
	f	028_y_f_n_a.jpg	neutral	8	28	f	028_y_f_h_a.jpg	happy	incongruent	9	match		140	150		2	186	block1_Pilot_2	28	n_h	n_h_weak					0	0	0	0	0	29	29	29									384.3833898	None	385.9859405	386.2762972	386.2762972	386.2924779	0.0161807	386.2924779	386.3332344	386.3332344	None	8	0	386.3332344	None	387.8333288	None	['8']	[0.35965299999998024]	387.8333288	None					0.7956723			Emoconpilot039	2021_Dec_15_1153	BackwardMask	08.02.20	120.019059
	m	027_o_m_n_a.jpg	neutral	8	16	m	016_y_m_n_a.jpg	neutral	congruent	8	match		140	170		2	188	block1_Pilot_2	27	n_n	n_n_weak					0	0	0	0	0	30	30	30									390.8337104	None	392.4260118	392.7182915	392.7182915	392.7342528	0.0159613	392.7342528	392.77497	392.77497	None	None	0	392.77497	None	394.2751234	None	['9']	[0.8857079000000567]	394.2751234	None								Emoconpilot039	2021_Dec_15_1153	BackwardMask	08.02.20	120.019059
	f	012_o_f_s_a.jpg	sad	7	13	m	013_y_m_n_a.jpg	neutral	incongruent	8	mismatch		130	170		3	162	block1_Pilot_2	12	s_n	s_n_strong					0	0	0	0	0	31	31	31									397.2753651	None	398.6305556	398.9260967	398.9260967	398.9510271	0.0249304	398.9510271	398.9918341	398.9918341	None	7	0	398.9918341	None	400.4919356	None	['8']	[0.37294810000003054]	400.4919356	None					0.9450079			Emoconpilot039	2021_Dec_15_1153	BackwardMask	08.02.20	120.019059
	f	012_o_f_s_a.jpg	sad	7	16	m	016_y_m_h_a.jpg	happy	incongruent	9	mismatch		130	150		1	238	block1_Pilot_2	12	s_h	s_h_strong					0	0	0	0	0	32	32	32									403.4920964	None	405.4778504	405.7763786	405.7763786	405.7846177	0.0082391	405.7846177	405.8253249	405.8253249	None	None	0	405.8253249	None	407.3256878	None	['9']	[1.0591442000001052]	407.3256878	None								Emoconpilot039	2021_Dec_15_1153	BackwardMask	08.02.20	120.019059
	f	028_y_f_n_a.jpg	neutral	8	21	f	021_o_f_n_a.jpg	neutral	congruent	8	match		140	170		3	220	block1_Pilot_2	28	n_n	n_n_weak					0	0	0	0	0	33	33	33									410.3262445	None	412.2567736	412.551902	412.551902	412.5763394	0.0244374	412.5763394	412.6171421	412.6171421	None	None	0	412.6171421	None	414.1174703	None	['8']	[0.4354745999999068]	414.1174703	None								Emoconpilot039	2021_Dec_15_1153	BackwardMask	08.02.20	120.019059
	f	040_y_f_h_a.jpg	happy	9	33	m	033_o_m_s_a.jpg	sad	incongruent	7	mismatch		120	160		2	194	block1_Pilot_2	40	h_s	h_s_weak					0	0	0	0	0	34	34	34									417.1174176	None	418.7446642	419.0350204	419.0350204	419.0514794	0.016459	419.0514794	419.0922789	419.0922789	None	9	0	419.0922789	None	420.5924566	None	['8']	[0.7923540000000457]	420.5924566	None					1.2605426			Emoconpilot039	2021_Dec_15_1153	BackwardMask	08.02.20	120.019059
	f	028_y_f_h_a.jpg	happy	9	8	m	008_y_m_n_a.jpg	neutral	incongruent	8	mismatch		120	170		3	162	block1_Pilot_2	28	h_n	h_n_weak					0	0	0	0	0	35	35	35									423.5925384	None	424.9655321	425.2601581	425.2601581	425.2849122	0.0247541	425.2849122	425.3265635	425.3265635	None	9	0	425.3265635	None	426.8258982	None	['8']	[0.6951964999999518]	426.8258982	None					0.8903799			Emoconpilot039	2021_Dec_15_1153	BackwardMask	08.02.20	120.019059
	m	013_y_m_n_a.jpg	neutral	8	27	m	027_o_m_n_a.jpg	neutral	congruent	8	match		140	170		2	126	block1_Pilot_2	13	n_n	n_n_strong					0	0	0	0	0	36	36	36									429.8271851	None	430.9490516	431.244353	431.244353	431.2604668	0.0161138	431.2604668	431.3013447	431.3013447	None	None	0	431.3013447	None	432.8013509	None	['9']	[0.6235305000000153]	432.8013509	None								Emoconpilot039	2021_Dec_15_1153	BackwardMask	08.02.20	120.019059
	f	028_y_f_s_a.jpg	sad	7	19	f	019_m_f_n_a.jpg	neutral	incongruent	8	match		130	170		2	156	block1_Pilot_2	28	s_n	s_n_strong					0	0	0	0	0	37	37	37									435.8025329	None	437.1137387	437.4024666	437.4024666	437.4188281	0.0163615	437.4188281	437.4596769	437.4596769	None	None	0	437.4596769	None	438.9599429	None	['9']	[0.5529566999999815]	438.9599429	None								Emoconpilot039	2021_Dec_15_1153	BackwardMask	08.02.20	120.019059
	m	016_y_m_s_a.jpg	sad	7	19	f	019_m_f_n_a.jpg	neutral	incongruent	8	mismatch		130	170		3	138	block1_Pilot_2	16	s_n	s_n_weak					0	0	0	0	0	38	38	38									441.9603725	None	443.1212554	443.4108157	443.4108157	443.4356202	0.0248045	443.4356202	443.4764866	443.4764866	None	7	0	443.4764866	None	444.9764785	None	['7']	[0.8884435999999596]	444.9764785	None					0.9964247			Emoconpilot039	2021_Dec_15_1153	BackwardMask	08.02.20	120.019059
	m	033_o_m_s_a.jpg	sad	7	27	m	027_o_m_n_a.jpg	neutral	incongruent	8	match		130	170		3	120	block1_Pilot_2	33	s_n	s_n_strong					0	0	0	0	0	39	39	39									447.9767268	None	448.9910518	449.2860292	449.2860292	449.3107484	0.0247192	449.3107484	449.3515858	449.3515858	None	7	0	449.3515858	None	450.8519906	None	['8']	[0.3889499000000569]	450.8519906	None					1.1852093			Emoconpilot039	2021_Dec_15_1153	BackwardMask	08.02.20	120.019059
	f	040_y_f_s_a.jpg	sad	7	33	m	033_o_m_n_a.jpg	neutral	incongruent	8	mismatch		130	170		1	238	block1_Pilot_2	40	s_n	s_n_weak					0	0	0	0	0	40	40	40									453.8524133	None	455.8437702	456.1362649	456.1362649	456.1443615	0.0080966	456.1443615	456.185145	456.185145	None	None	0	456.185145	None	457.6851355	None	['9']	[0.43581300000005285]	457.6851355	None								Emoconpilot039	2021_Dec_15_1153	BackwardMask	08.02.20	120.019059
	f	021_o_f_n_a.jpg	neutral	8	19	f	019_m_f_s_a.jpg	sad	incongruent	7	match		140	160		1	238	block1_Pilot_2	21	n_s	n_s_strong					0	0	0	0	0	41	41	41									460.6860461	None	462.7671596	463.0617235	463.0617235	463.069327	0.0076035	463.069327	463.110187	463.110187	None	None	0	463.110187	None	464.6103087	None	['9']	[1.062482599999953]	464.6103087	None								Emoconpilot039	2021_Dec_15_1153	BackwardMask	08.02.20	120.019059
	m	033_o_m_h_a.jpg	happy	9	27	m	027_o_m_h_a.jpg	happy	congruent	9	match		120	150		3	134	block1_Pilot_2	33	h_h	h_h_weak					0	0	0	0	0	42	42	42									467.6112421	None	468.7345958	469.0281584	469.0281584	469.0527823	0.0246239	469.0527823	469.0937424	469.0937424	None	9	1	469.0937424	None	470.5939395	None	['7']	[0.3351846000000478]	470.5939395	None					0.9232097			Emoconpilot039	2021_Dec_15_1153	BackwardMask	08.02.20	120.019059
	f	040_y_f_s_a.jpg	sad	7	4	m	004_o_m_h_a.jpg	happy	incongruent	9	mismatch		130	150		2	225	block1_Pilot_2	40	s_h	s_h_strong					0	0	0	0	0	43	43	43									473.5952327	None	475.4770684	475.7698049	475.7698049	475.7862483	0.0164434	475.7862483	475.8270015	475.8270015	None	8	0	475.8270015	None	477.3276616	None	['8']	[0.30537759999992886]	477.3276616	None					0.7338145			Emoconpilot039	2021_Dec_15_1153	BackwardMask	08.02.20	120.019059
	m	027_o_m_s_a.jpg	sad	7	21	f	021_o_f_n_a.jpg	neutral	incongruent	8	mismatch		130	170		18	238	block1_Pilot_2	27	s_n	s_n_weak					0	0	0	0	0	44	44	44									480.3283026	None	482.3247777	482.6197905	482.6197905	482.7697368	0.1499463	482.7697368	482.8105522	482.8105522	None	7	0	482.8105522	None	484.3104376	None	['7']	[1.1144080999999915]	484.3104376	None					0.9264901			Emoconpilot039	2021_Dec_15_1153	BackwardMask	08.02.20	120.019059
	m	016_y_m_h_a.jpg	happy	9	16	m	016_y_m_n_a.jpg	neutral	incongruent	8	match		120	170		3	202	block1_Pilot_2	16	h_n	h_n_weak					0	0	0	0	0	45	45	45									487.311669	None	489.0105865	489.3032583	489.3032583	489.3281501	0.0248918	489.3281501	489.3687875	489.3687875	None	9	0	489.3687875	None	490.8695827	None	['7']	[0.36332919999995283]	490.8695827	None					0.8082345			Emoconpilot039	2021_Dec_15_1153	BackwardMask	08.02.20	120.019059
	m	033_o_m_h_a.jpg	happy	9	13	m	013_y_m_n_a.jpg	neutral	incongruent	8	match		120	170		2	150	block1_Pilot_2	33	h_n	h_n_weak					0	0	0	0	0	46	46	46									493.8698414	None	495.1270888	495.4201276	495.4201276	495.4366419	0.0165143	495.4366419	495.4776301	495.4776301	None	9	0	495.4776301	None	496.9774473	None	['7']	[0.6632603000000472]	496.9774473	None					0.8992381			Emoconpilot039	2021_Dec_15_1153	BackwardMask	08.02.20	120.019059
	f	012_o_f_n_a.jpg	neutral	8	16	m	016_y_m_n_a.jpg	neutral	congruent	8	mismatch		140	170		1	238	block1_Pilot_2	12	n_n	n_n_strong					0	0	0	0	0	47	47	47									499.9783329	None	501.9872233	502.2791748	502.2791748	502.2865644	0.0073896	502.2865644	502.3276232	502.3276232	None	None	0	502.3276232	None	503.8285458	None	['9']	[0.3962699999999586]	503.8285458	None								Emoconpilot039	2021_Dec_15_1153	BackwardMask	08.02.20	120.019059
	f	040_y_f_n_a.jpg	neutral	8	30	f	030_o_f_h_a.jpg	happy	incongruent	9	match		140	150		2	194	block1_Pilot_2	40	n_h	n_h_strong					0	0	0	0	0	48	48	48									506.8281465	None	508.4638411	508.75425	508.75425	508.7701635	0.0159135	508.7701635	508.8110717	508.8110717	None	8	0	508.8110717	None	510.3113256	None	['7']	[0.36150820000000294]	510.3113256	None					0.6376313			Emoconpilot039	2021_Dec_15_1153	BackwardMask	08.02.20	120.019059
	m	013_y_m_n_a.jpg	neutral	8	12	f	012_o_f_s_a.jpg	sad	incongruent	7	mismatch		140	160		18	238	block1_Pilot_2	13	n_s	n_s_weak					0	0	0	0	0	49	49	49									513.3125332	None	515.3138392	515.6041684	515.6041684	515.7536749	0.1495065	515.7536749	515.7945441	515.7945441	None	8	0	515.7945441	None	517.2943589	None	['7']	[0.49058209999998326]	517.2943589	None					0.5502837			Emoconpilot039	2021_Dec_15_1153	BackwardMask	08.02.20	120.019059
	f	012_o_f_h_a.jpg	happy	9	12	f	012_o_f_n_a.jpg	neutral	incongruent	8	match		120	170		2	125	block1_Pilot_2	12	h_n	h_n_strong					0	0	0	0	0	50	50	50									520.2943356	None	521.3440265	521.6372667	521.6372667	521.6537127	0.016446	521.6537127	521.6945804	521.6945804	None	9	0	521.6945804	None	523.1944854	None	['7']	[1.4863391999999749]	523.1944854	None					1.0262621			Emoconpilot039	2021_Dec_15_1153	BackwardMask	08.02.20	120.019059
	m	008_y_m_s_a.jpg	sad	7	19	f	019_m_f_s_a.jpg	sad	congruent	7	mismatch		130	160		2	202	block1_Pilot_2	8	s_s	s_s_strong					0	0	0	0	0	51	51	51									526.1947634	None	527.9001201	528.1960071	528.1960071	528.2123447	0.0163376	528.2123447	528.253099	528.253099	None	7	1	528.253099	None	529.7532573	None	['8']	[0.7357454999998936]	529.7532573	None					1.2117455			Emoconpilot039	2021_Dec_15_1153	BackwardMask	08.02.20	120.019059
	f	028_y_f_n_a.jpg	neutral	8	12	f	012_o_f_n_a.jpg	neutral	congruent	8	match		140	170		2	214	block1_Pilot_2	28	n_n	n_n_strong					0	0	0	0	0	52	52	52									532.7530317	None	534.5560656	534.8463774	534.8463774	534.8621495	0.0157721	534.8621495	534.9034395	534.9034395	None	8	1	534.9034395	None	536.4029387	None	['8']	[0.30202059999999165]	536.4029387	None					0.753249			Emoconpilot039	2021_Dec_15_1153	BackwardMask	08.02.20	120.019059
	m	027_o_m_h_a.jpg	happy	9	19	f	019_m_f_h_a.jpg	happy	congruent	9	mismatch		120	150		3	165	block1_Pilot_2	27	h_h	h_h_strong					0	0	0	0	0	53	53	53									539.4043488	None	540.804245	541.0964632	541.0964632	541.1210103	0.0245471	541.1210103	541.161603	541.161603	None	9	1	541.161603	None	542.6614883	None	['7']	[0.5793441000000712]	542.6614883	None					0.8551181			Emoconpilot039	2021_Dec_15_1153	BackwardMask	08.02.20	120.019059
	m	008_y_m_s_a.jpg	sad	7	13	m	013_y_m_h_a.jpg	happy	incongruent	9	match		130	150		18	200	block1_Pilot_2	8	s_h	s_h_strong					0	0	0	0	0	54	54	54									545.6621022	None	547.3482665	547.638215	547.638215	547.7876358	0.1494208	547.7876358	547.8282303	547.8282303	None	7	0	547.8282303	None	549.328255	None	['7']	[0.952657400000021]	549.328255	None					0.6764524			Emoconpilot039	2021_Dec_15_1153	BackwardMask	08.02.20	120.019059
	f	030_o_f_n_a.jpg	neutral	8	28	f	028_y_f_s_a.jpg	sad	incongruent	7	match		140	160		18	238	block1_Pilot_2	30	n_s	n_s_weak					0	0	0	0	0	55	55	55									552.3285531	None	554.3381767	554.6300664	554.6300664	554.7794355	0.1493691	554.7794355	554.8203203	554.8203203	None	7	1	554.8203203	None	556.3202678	None	['7']	[1.0486640000000307]	556.3202678	None					1.4285365			Emoconpilot039	2021_Dec_15_1153	BackwardMask	08.02.20	120.019059
	f	019_m_f_h_a.jpg	happy	9	27	m	027_o_m_h_a.jpg	happy	congruent	9	mismatch		120	150		1	238	block1_Pilot_2	19	h_h	h_h_strong					0	0	0	0	0	56	56	56									559.3204283	None	561.3117422	561.6047376	561.6047376	561.6125798	0.0078422	561.6125798	561.6533319	561.6533319	None	9	1	561.6533319	None	563.1537431	None	['8']	[0.4070236999999679]	563.1537431	None					1.1073695			Emoconpilot039	2021_Dec_15_1153	BackwardMask	08.02.20	120.019059
	m	004_o_m_s_a.jpg	sad	7	4	m	004_o_m_h_a.jpg	happy	incongruent	9	match		130	150		18	155	block1_Pilot_2	4	s_h	s_h_weak					0	0	0	0	0	57	57	57									566.1535752	None	567.4578315	567.7461651	567.7461651	567.8960598	0.1498947	567.8960598	567.9368354	567.9368354	None	7	0	567.9368354	None	569.4369003	None	['7']	[0.33178450000002613]	569.4369003	None					0.815851			Emoconpilot039	2021_Dec_15_1153	BackwardMask	08.02.20	120.019059
	f	021_o_f_s_a.jpg	sad	7	27	m	027_o_m_n_a.jpg	neutral	incongruent	8	mismatch		130	170		3	224	block1_Pilot_2	21	s_n	s_n_weak					0	0	0	0	0	58	58	58									572.4370601	None	574.3102561	574.6046265	574.6046265	574.6294083	0.0247818	574.6294083	574.6701807	574.6701807	None	7	0	574.6701807	None	576.1702962	None	['7']	[1.486204100000009]	576.1702962	None					1.0665856			Emoconpilot039	2021_Dec_15_1153	BackwardMask	08.02.20	120.019059
	f	021_o_f_h_a.jpg	happy	9	27	m	027_o_m_n_a.jpg	neutral	incongruent	8	mismatch		120	170		2	147	block1_Pilot_2	21	h_n	h_n_strong					0	0	0	0	0	59	59	59									579.170478	None	580.470385	580.7635921	580.7635921	580.7795665	0.0159744	580.7795665	580.8202958	580.8202958	None	9	0	580.8202958	None	582.3205067	None	['7']	[0.3841265000000931]	582.3205067	None					0.7484011			Emoconpilot039	2021_Dec_15_1153	BackwardMask	08.02.20	120.019059
	f	040_y_f_n_a.jpg	neutral	8	13	m	013_y_m_h_a.jpg	happy	incongruent	9	mismatch		140	150		3	237	block1_Pilot_2	40	n_h	n_h_strong					0	0	0	0	0	60	60	60									585.3205582	None	587.3150263	587.6056142	587.6056142	587.6300019	0.0243877	587.6300019	587.6706882	587.6706882	None	8	0	587.6706882	None	589.1705716	None	['8']	[1.718057399999907]	589.1705716	None					1.2419557			Emoconpilot039	2021_Dec_15_1153	BackwardMask	08.02.20	120.019059
	m	027_o_m_n_a.jpg	neutral	8	19	f	019_m_f_h_a.jpg	happy	incongruent	9	mismatch		140	150		3	199	block1_Pilot_2	27	n_h	n_h_strong					0	0	0	0	0	61	61	61									592.1721036	None	593.8495455	594.1391243	594.1391243	594.163354	0.0242297	594.163354	594.2040059	594.2040059	None	None	0	594.2040059	None	595.7047737	None	['9']	[1.095848100000012]	595.7047737	None								Emoconpilot039	2021_Dec_15_1153	BackwardMask	08.02.20	120.019059
	m	027_o_m_h_a.jpg	happy	9	21	f	021_o_f_s_a.jpg	sad	incongruent	7	mismatch		120	160		2	169	block1_Pilot_2	27	h_s	h_s_strong					0	0	0	0	0	62	62	62									598.7041171	None	600.1338856	600.4226679	600.4226679	600.4385948	0.0159269	600.4385948	600.4791445	600.4791445	None	9	0	600.4791445	None	601.9793109	None	['7']	[0.6132388999999421]	601.9793109	None					0.8095268			Emoconpilot039	2021_Dec_15_1153	BackwardMask	08.02.20	120.019059
	m	013_y_m_n_a.jpg	neutral	8	33	m	033_o_m_h_a.jpg	happy	incongruent	9	match		140	150		18	238	block1_Pilot_2	13	n_h	n_h_strong					0	0	0	0	0	63	63	63									604.979198	None	606.9824898	607.272199	607.272199	607.421719	0.14952	607.421719	607.462493	607.462493	None	8	0	607.462493	None	608.9626392	None	['7']	[0.8858758999999736]	608.9626392	None					0.6822122			Emoconpilot039	2021_Dec_15_1153	BackwardMask	08.02.20	120.019059
	m	033_o_m_n_a.jpg	neutral	8	30	f	030_o_f_s_a.jpg	sad	incongruent	7	mismatch		140	160		1	238	block1_Pilot_2	33	n_s	n_s_weak					0	0	0	0	0	64	64	64									611.9628282	None	613.983827	614.2724494	614.2724494	614.2802159	0.0077665	614.2802159	614.3209168	614.3209168	None	None	0	614.3209168	None	615.8211296	None	['9']	[0.6914684999999281]	615.8211296	None								Emoconpilot039	2021_Dec_15_1153	BackwardMask	08.02.20	120.019059
	m	033_o_m_s_a.jpg	sad	7	4	m	004_o_m_s_a.jpg	sad	congruent	7	match		130	160		18	146	block1_Pilot_2	33	s_s	s_s_weak					0	0	0	0	0	65	65	65									618.8214213	None	620.0465009	620.3391412	620.3391412	620.4888272	0.149686	620.4888272	620.5294066	620.5294066	None	8	0	620.5294066	None	622.0299601	None	['7']	[1.5467105000000174]	622.0299601	None					0.9033885			Emoconpilot039	2021_Dec_15_1153	BackwardMask	08.02.20	120.019059
	m	016_y_m_s_a.jpg	sad	7	28	f	028_y_f_h_a.jpg	happy	incongruent	9	mismatch		130	150		18	238	block1_Pilot_2	16	s_h	s_h_strong					0	0	0	0	0	66	66	66									625.0301791	None	627.0204737	627.3143876	627.3143876	627.4641174	0.1497298	627.4641174	627.5050863	627.5050863	None	8	0	627.5050863	None	629.0051901	None	['7']	[1.00336829999992]	629.0051901	None					1.0156774			Emoconpilot039	2021_Dec_15_1153	BackwardMask	08.02.20	120.019059
	f	030_o_f_h_a.jpg	happy	9	28	f	028_y_f_h_a.jpg	happy	congruent	9	match		120	150		3	234	block1_Pilot_2	30	h_h	h_h_weak					0	0	0	0	0	67	67	67									632.0061128	None	633.9860962	634.2814916	634.2814916	634.3059148	0.0244232	634.3059148	634.3468516	634.3468516	None	9	1	634.3468516	None	635.8468129	None	['7']	[1.2819160000001375]	635.8468129	None					1.333729			Emoconpilot039	2021_Dec_15_1153	BackwardMask	08.02.20	120.019059
	m	013_y_m_h_a.jpg	happy	9	4	m	004_o_m_h_a.jpg	happy	congruent	9	match		120	150		2	141	block1_Pilot_2	13	h_h	h_h_strong					0	0	0	0	0	68	68	68									638.8476308	None	640.0414478	640.3314615	640.3314615	640.3473736	0.0159121	640.3473736	640.3880624	640.3880624	None	None	0	640.3880624	None	641.8883454	None	['9']	[0.19213270000000193]	641.8883454	None								Emoconpilot039	2021_Dec_15_1153	BackwardMask	08.02.20	120.019059
	f	028_y_f_s_a.jpg	sad	7	8	m	008_y_m_s_a.jpg	sad	congruent	7	mismatch		130	160		1	238	block1_Pilot_2	28	s_s	s_s_strong					0	0	0	0	0	69	69	69									644.8891454	None	646.8840417	647.1731388	647.1731388	647.181159	0.0080202	647.181159	647.2219341	647.2219341	None	8	0	647.2219341	None	648.721988	None	['7']	[1.2465409999999792]	648.721988	None					1.1548547			Emoconpilot039	2021_Dec_15_1153	BackwardMask	08.02.20	120.019059
	f	028_y_f_s_a.jpg	sad	7	30	f	030_o_f_h_a.jpg	happy	incongruent	9	match		130	150		2	199	block1_Pilot_2	28	s_h	s_h_weak					0	0	0	0	0	70	70	70									651.7223931	None	653.390376	653.6815171	653.6815171	653.6979898	0.0164727	653.6979898	653.7388137	653.7388137	None	None	0	653.7388137	None	655.2391889	None	['9']	[1.0173228000001018]	655.2391889	None								Emoconpilot039	2021_Dec_15_1153	BackwardMask	08.02.20	120.019059
	m	008_y_m_h_a.jpg	happy	9	21	f	021_o_f_n_a.jpg	neutral	incongruent	8	mismatch		120	170		2	137	block1_Pilot_2	8	h_n	h_n_weak					0	0	0	0	0	71	71	71									658.2394624	None	659.389333	659.6815193	659.6815193	659.6982499	0.0167306	659.6982499	659.739061	659.739061	None	None	0	659.739061	None	661.2390586	None	['8', '9']	[0.041531100000156584, 0.8335688000001937]	661.2390586	None								Emoconpilot039	2021_Dec_15_1153	BackwardMask	08.02.20	120.019059
	f	012_o_f_n_a.jpg	neutral	8	8	m	008_y_m_s_a.jpg	sad	incongruent	7	mismatch		140	160		2	208	block1_Pilot_2	12	n_s	n_s_weak					0	0	0	0	0	72	72	72									664.2394806	None	666.0433616	666.3321209	666.3321209	666.3482309	0.01611	666.3482309	666.3891847	666.3891847	None	8	0	666.3891847	None	667.8890449	None	['7']	[1.2075902999999926]	667.8890449	None					0.7554456			Emoconpilot039	2021_Dec_15_1153	BackwardMask	08.02.20	120.019059
	m	016_y_m_n_a.jpg	neutral	8	8	m	008_y_m_n_a.jpg	neutral	congruent	8	match		140	170		3	211	block1_Pilot_2	16	n_n	n_n_strong					0	0	0	0	0	73	73	73									670.8906042	None	672.6738665	672.9655417	672.9655417	672.9899466	0.0244049	672.9899466	673.0308375	673.0308375	None	8	1	673.0308375	None	674.5310257	None	['7']	[0.8694516000000476]	674.5310257	None					0.6499092			Emoconpilot039	2021_Dec_15_1153	BackwardMask	08.02.20	120.019059
	m	016_y_m_h_a.jpg	happy	9	13	m	013_y_m_s_a.jpg	sad	incongruent	7	match		120	160		3	138	block1_Pilot_2	16	h_s	h_s_weak					0	0	0	0	0	74	74	74									677.5313166	None	678.6890348	678.981934	678.981934	679.0067712	0.0248372	679.0067712	679.0476703	679.0476703	None	7	1	679.0476703	None	680.5479211	None	['8']	[1.3805477999999312]	680.5479211	None					0.9689046			Emoconpilot039	2021_Dec_15_1153	BackwardMask	08.02.20	120.019059
	m	016_y_m_n_a.jpg	neutral	8	19	f	019_m_f_s_a.jpg	sad	incongruent	7	mismatch		140	160		2	185	block1_Pilot_2	16	n_s	n_s_strong					0	0	0	0	0	75	75	75									683.5485957	None	685.1114814	685.40749	685.40749	685.4233683	0.0158783	685.4233683	685.4640679	685.4640679	None	8	0	685.4640679	None	686.964306	None	['7']	[2.004234500000166]	686.964306	None					0.7446262			Emoconpilot039	2021_Dec_15_1153	BackwardMask	08.02.20	120.019059
	m	027_o_m_s_a.jpg	sad	7	8	m	008_y_m_s_a.jpg	sad	congruent	7	match		130	160		1	238	block1_Pilot_2	27	s_s	s_s_strong					0	0	0	0	0	76	76	76									689.9655184	None	691.9558574	692.2488185	692.2488185	692.2570862	0.0082677	692.2570862	692.2980062	692.2980062	None	None	0	692.2980062	None	693.7979707	None	None		693.7979707	None								Emoconpilot039	2021_Dec_15_1153	BackwardMask	08.02.20	120.019059
	f	019_m_f_n_a.jpg	neutral	8	27	m	027_o_m_n_a.jpg	neutral	congruent	8	mismatch		140	170		3	186	block1_Pilot_2	19	n_n	n_n_strong					0	0	0	0	0	77	77	77									696.7978556	None	698.3781981	698.6744819	698.6744819	698.6988753	0.0243934	698.6988753	698.7396785	698.7396785	None	8	1	698.7396785	None	700.2397743	None	['8']	[0.4488441999999395]	700.2397743	None					0.708683			Emoconpilot039	2021_Dec_15_1153	BackwardMask	08.02.20	120.019059
	m	004_o_m_s_a.jpg	sad	7	12	f	012_o_f_s_a.jpg	sad	congruent	7	mismatch		130	160		1	238	block1_Pilot_2	4	s_s	s_s_strong					0	0	0	0	0	78	78	78									703.2407251	None	705.2315503	705.5242041	705.5242041	705.5323138	0.0081097	705.5323138	705.5732555	705.5732555	None	None	0	705.5732555	None	707.0731208	None	['9']	[0.7274184000000332]	707.0731208	None								Emoconpilot039	2021_Dec_15_1153	BackwardMask	08.02.20	120.019059
	f	019_m_f_n_a.jpg	neutral	8	13	m	013_y_m_s_a.jpg	sad	incongruent	7	mismatch		140	160		3	207	block1_Pilot_2	19	n_s	n_s_strong					0	0	0	0	0	79	79	79									710.0740309	None	711.8191697	712.1080566	712.1080566	712.1324377	0.0243811	712.1324377	712.1732001	712.1732001	None	8	0	712.1732001	None	713.6731491	None	['8']	[0.6873644999998305]	713.6731491	None					0.6754578			Emoconpilot039	2021_Dec_15_1153	BackwardMask	08.02.20	120.019059
	m	027_o_m_h_a.jpg	happy	9	33	m	033_o_m_h_a.jpg	happy	congruent	9	match		120	150		1	238	block1_Pilot_2	27	h_h	h_h_strong					0	0	0	0	0	80	80	80									716.6731224	None	718.6761318	718.9663113	718.9663113	718.9742478	0.0079365	718.9742478	719.014961	719.014961	None	None	0	719.014961	None	720.5152464	None	['9']	[0.5652588000000378]	720.5152464	None								Emoconpilot039	2021_Dec_15_1153	BackwardMask	08.02.20	120.019059
	m	027_o_m_h_a.jpg	happy	9	21	f	021_o_f_s_a.jpg	sad	incongruent	7	mismatch		120	160		1	238	block1_Pilot_2	27	h_s	h_s_weak					0	0	0	0	0	81	81	81									723.5159051	None	725.5198978	725.8165828	725.8165828	725.8241834	0.0076006	725.8241834	725.8647876	725.8647876	None	None	0	725.8647876	None	727.3649484	None	['9']	[0.3634343999999601]	727.3649484	None								Emoconpilot039	2021_Dec_15_1153	BackwardMask	08.02.20	120.019059
	m	033_o_m_s_a.jpg	sad	7	40	f	040_y_f_n_a.jpg	neutral	incongruent	8	mismatch		130	170		3	146	block1_Pilot_2	33	s_n	s_n_weak					0	0	0	0	0	82	82	82									730.3650329	None	731.5906546	731.8828558	731.8828558	731.9079126	0.0250568	731.9079126	731.9481675	731.9481675	None	7	0	731.9481675	None	733.4484111	None	['7']	[0.39189349999992373]	733.4484111	None					1.1162098			Emoconpilot039	2021_Dec_15_1153	BackwardMask	08.02.20	120.019059
	m	008_y_m_h_a.jpg	happy	9	4	m	004_o_m_s_a.jpg	sad	incongruent	7	match		120	160		2	225	block1_Pilot_2	8	h_s	h_s_weak					0	0	0	0	0	83	83	83									736.4490687	None	738.3327964	738.6248679	738.6248679	738.6411501	0.0162822	738.6411501	738.681779	738.681779	None	9	0	738.681779	None	740.183087	None	['7']	[0.8011711999999989]	740.183087	None					1.0545184			Emoconpilot039	2021_Dec_15_1153	BackwardMask	08.02.20	120.019059
	f	012_o_f_n_a.jpg	neutral	8	4	m	004_o_m_s_a.jpg	sad	incongruent	7	mismatch		140	160		3	150	block1_Pilot_2	12	n_s	n_s_strong					0	0	0	0	0	84	84	84									743.1818705	None	744.4546152	744.7498297	744.7498297	744.7742693	0.0244396	744.7742693	744.815121	744.815121	None	8	0	744.815121	None	746.3164651	None	['8']	[0.26783350000005157]	746.3164651	None					0.6972844			Emoconpilot039	2021_Dec_15_1153	BackwardMask	08.02.20	120.019059
	f	021_o_f_s_a.jpg	sad	7	40	f	040_y_f_n_a.jpg	neutral	incongruent	8	match		130	170		2	156	block1_Pilot_2	21	s_n	s_n_strong					0	0	0	0	0	85	85	85									749.3154012	None	750.6218317	750.9162899	750.9162899	750.93275	0.0164601	750.93275	750.9738284	750.9738284	None	7	0	750.9738284	None	752.4737512	None	['7']	[1.0625324000000091]	752.4737512	None					1.0665287			Emoconpilot039	2021_Dec_15_1153	BackwardMask	08.02.20	120.019059
	m	004_o_m_n_a.jpg	neutral	8	13	m	013_y_m_n_a.jpg	neutral	congruent	8	match		140	170		2	225	block1_Pilot_2	4	n_n	n_n_strong					0	0	0	0	0	86	86	86									755.4738309	None	757.3773403	757.6667208	757.6667208	757.6828394	0.0161186	757.6828394	757.7236598	757.7236598	None	None	0	757.7236598	None	759.2237604	None	['9']	[1.288573499999984]	759.2237604	None								Emoconpilot039	2021_Dec_15_1153	BackwardMask	08.02.20	120.019059
	m	016_y_m_n_a.jpg	neutral	8	16	m	016_y_m_h_a.jpg	happy	incongruent	9	match		140	150		18	193	block1_Pilot_2	16	n_h	n_h_strong					0	0	0	0	0	87	87	87									762.2239984	None	763.8556237	764.1501717	764.1501717	764.2996723	0.1495006	764.2996723	764.3404378	764.3404378	None	8	0	764.3404378	None	765.8406103	None	['7']	[2.0158010000000104]	765.8406103	None					1.1399811			Emoconpilot039	2021_Dec_15_1153	BackwardMask	08.02.20	120.019059
	m	033_o_m_h_a.jpg	happy	9	4	m	004_o_m_h_a.jpg	happy	congruent	9	match		120	150		2	195	block1_Pilot_2	33	h_h	h_h_strong					0	0	0	0	0	88	88	88									768.8407189	None	770.4735814	770.7666793	770.7666793	770.7830779	0.0163986	770.7830779	770.823967	770.823967	None	9	1	770.823967	None	772.3240375	None	['7']	[1.1803248999999596]	772.3240375	None					1.0803489			Emoconpilot039	2021_Dec_15_1153	BackwardMask	08.02.20	120.019059
	m	027_o_m_h_a.jpg	happy	9	16	m	016_y_m_h_a.jpg	happy	congruent	9	match		120	150		3	209	block1_Pilot_2	27	h_h	h_h_weak					0	0	0	0	0	89	89	89									775.3241855	None	777.0874372	777.3841771	777.3841771	777.4083313	0.0241542	777.4083313	777.449133	777.449133	None	9	1	777.449133	None	778.9491422	None	['7']	[0.8512390999999297]	778.9491422	None					1.2072304			Emoconpilot039	2021_Dec_15_1153	BackwardMask	08.02.20	120.019059
	m	033_o_m_s_a.jpg	sad	7	16	m	016_y_m_s_a.jpg	sad	congruent	7	match		130	160		3	128	block1_Pilot_2	33	s_s	s_s_strong					0	0	0	0	0	90	90	90									781.9495109	None	783.0245053	783.3168934	783.3168934	783.3418707	0.0249773	783.3418707	783.3825429	783.3825429	None	7	1	783.3825429	None	784.882672	None	['7']	[2.077558700000054]	784.882672	None					1.2418059			Emoconpilot039	2021_Dec_15_1153	BackwardMask	08.02.20	120.019059
	f	021_o_f_s_a.jpg	sad	7	30	f	030_o_f_s_a.jpg	sad	congruent	7	match		130	160		1	238	block1_Pilot_2	21	s_s	s_s_strong					0	0	0	0	0	91	91	91									787.8849095	None	789.8735573	790.1667892	790.1667892	790.1752492	0.00846	790.1752492	790.2160065	790.2160065	None	None	0	790.2160065	None	791.7160842	None	['9']	[0.5882736999999452]	791.7160842	None								Emoconpilot039	2021_Dec_15_1153	BackwardMask	08.02.20	120.019059
	m	033_o_m_n_a.jpg	neutral	8	28	f	028_y_f_s_a.jpg	sad	incongruent	7	mismatch		140	160		18	166	block1_Pilot_2	33	n_s	n_s_strong					0	0	0	0	0	92	92	92									794.7171793	None	796.1209713	796.4098015	796.4098015	796.5588729	0.1490714	796.5588729	796.5999288	796.5999288	None	8	0	796.5999288	None	798.1004681	None	['7']	[0.5400098000000071]	798.1004681	None					0.9045493			Emoconpilot039	2021_Dec_15_1153	BackwardMask	08.02.20	120.019059
	f	019_m_f_n_a.jpg	neutral	8	30	f	030_o_f_n_a.jpg	neutral	congruent	8	match		140	170		18	228	block1_Pilot_2	19	n_n	n_n_weak					0	0	0	0	0	93	93	93									801.1008945	None	803.028455	803.3181618	803.3181618	803.4677159	0.1495541	803.4677159	803.5079668	803.5079668	None	8	1	803.5079668	None	805.009073	None	['7']	[1.5912140000000363]	805.009073	None					0.8362359			Emoconpilot039	2021_Dec_15_1153	BackwardMask	08.02.20	120.019059
	m	008_y_m_s_a.jpg	sad	7	12	f	012_o_f_h_a.jpg	happy	incongruent	9	mismatch		130	150		3	130	block1_Pilot_2	8	s_h	s_h_weak					0	0	0	0	0	94	94	94									808.0091543	None	809.1151008	809.4098738	809.4098738	809.434289	0.0244152	809.434289	809.4752178	809.4752178	None	None	0	809.4752178	None	810.9753244	None	['7', '7']	[0.01710570000000189, 0.8170592999999826]	810.9753244	None								Emoconpilot039	2021_Dec_15_1153	BackwardMask	08.02.20	120.019059
	m	016_y_m_n_a.jpg	neutral	8	28	f	028_y_f_n_a.jpg	neutral	congruent	8	mismatch		140	170		18	189	block1_Pilot_2	16	n_n	n_n_strong					0	0	0	0	0	95	95	95									813.9759897	None	815.5709828	815.8598048	815.8598048	816.0096435	0.1498387	816.0096435	816.0499844	816.0499844	None	8	1	816.0499844	None	817.5502537	None	['7']	[0.3939594999999372]	817.5502537	None					0.6622394			Emoconpilot039	2021_Dec_15_1153	BackwardMask	08.02.20	120.019059
	f	012_o_f_s_a.jpg	sad	7	16	m	016_y_m_h_a.jpg	happy	incongruent	9	mismatch		130	150		3	238	block1_Pilot_2	12	s_h	s_h_strong					0	0	0	0	0	96	96	96									820.552114	None	822.5362356	822.8344968	822.8344968	822.8595568	0.02506	822.8595568	822.8998887	822.8998887	None	None	0	822.8998887	None	824.3999884	None	['7', '8']	[0.03226649999987785, 0.6802086999998664]	824.3999884	None								Emoconpilot039	2021_Dec_15_1153	BackwardMask	08.02.20	120.019059
	m	013_y_m_h_a.jpg	happy	9	27	m	027_o_m_h_a.jpg	happy	congruent	9	match		120	150		18	238	block1_Pilot_2	13	h_h	h_h_strong					0	0	0	0	0	97	97	97									827.4000961	None	829.4447704	829.7346732	829.7346732	829.8841639	0.1494907	829.8841639	829.9249901	829.9249901	None	9	1	829.9249901	None	831.4250806	None	None		831.4250806	None					0.7712936			Emoconpilot039	2021_Dec_15_1153	BackwardMask	08.02.20	120.019059
	m	016_y_m_s_a.jpg	sad	7	33	m	033_o_m_n_a.jpg	neutral	incongruent	8	match		130	170		1	238	block1_Pilot_2	16	s_n	s_n_weak					0	0	0	0	0	98	98	98									834.4252249	None	836.4172282	836.7095985	836.7095985	836.7176712	0.0080727	836.7176712	836.7584277	836.7584277	None	None	0	836.7584277	None	838.2589917	None	['9']	[0.2932227999999668]	838.2589917	None								Emoconpilot039	2021_Dec_15_1153	BackwardMask	08.02.20	120.019059
	m	008_y_m_n_a.jpg	neutral	8	30	f	030_o_f_n_a.jpg	neutral	congruent	8	mismatch		140	170		1	238	block1_Pilot_2	8	n_n	n_n_weak					0	0	0	0	0	99	99	99									841.2599216	None	843.3121048	843.6015868	843.6015868	843.6094481	0.0078613	843.6094481	843.6502242	843.6502242	None	None	0	843.6502242	None	845.1503351	None	['9']	[0.3218446999999287]	845.1503351	None								Emoconpilot039	2021_Dec_15_1153	BackwardMask	08.02.20	120.019059
	m	008_y_m_s_a.jpg	sad	7	30	f	030_o_f_s_a.jpg	sad	congruent	7	mismatch		130	160		2	133	block1_Pilot_2	8	s_s	s_s_weak					0	0	0	0	0	100	100	100									848.1508028	None	849.282236	849.5768073	849.5768073	849.5931545	0.0163472	849.5931545	849.6337124	849.6337124	None	7	1	849.6337124	None	851.1338053	None	['8']	[1.3703746000001047]	851.1338053	None					1.4145967			Emoconpilot039	2021_Dec_15_1153	BackwardMask	08.02.20	120.019059
	f	040_y_f_n_a.jpg	neutral	8	30	f	030_o_f_s_a.jpg	sad	incongruent	7	match		140	160		3	197	block1_Pilot_2	40	n_s	n_s_strong					0	0	0	0	0	101	101	101									854.1340109	None	855.8281312	856.1185193	856.1185193	856.1430621	0.0245428	856.1430621	856.1838307	856.1838307	None	8	0	856.1838307	None	857.6839691	None	['7']	[1.212259000000131]	857.6839691	None					0.6484794			Emoconpilot039	2021_Dec_15_1153	BackwardMask	08.02.20	120.019059
	m	004_o_m_h_a.jpg	happy	9	30	f	030_o_f_s_a.jpg	sad	incongruent	7	mismatch		120	160		3	121	block1_Pilot_2	4	h_s	h_s_strong					0	0	0	0	0	102	102	102									860.6841111	None	861.7127355	862.002021	862.002021	862.0264183	0.0243973	862.0264183	862.0676665	862.0676665	None	9	0	862.0676665	None	863.567376	None	['7']	[0.8090304999998352]	863.567376	None					0.7085264			Emoconpilot039	2021_Dec_15_1153	BackwardMask	08.02.20	120.019059
	f	040_y_f_h_a.jpg	happy	9	8	m	008_y_m_h_a.jpg	happy	congruent	9	mismatch		120	150		18	211	block1_Pilot_2	40	h_h	h_h_weak					0	0	0	0	0	103	103	103									866.5678581	None	868.3356426	868.6266939	868.6266939	868.7767572	0.1500633	868.7767572	868.8174129	868.8174129	None	9	1	868.8174129	None	870.3180634	None	['7']	[0.37810880000006364]	870.3180634	None					0.8707883			Emoconpilot039	2021_Dec_15_1153	BackwardMask	08.02.20	120.019059
	f	019_m_f_s_a.jpg	sad	7	16	m	016_y_m_n_a.jpg	neutral	incongruent	8	mismatch		130	170		2	198	block1_Pilot_2	19	s_n	s_n_strong					0	0	0	0	0	104	104	104									873.3188074	None	875.0349989	875.3276856	875.3276856	875.3439031	0.0162175	875.3439031	875.384693	875.384693	None	8	1	875.384693	None	876.884351	None	['8']	[0.32399980000013784]	876.884351	None					1.0474342			Emoconpilot039	2021_Dec_15_1153	BackwardMask	08.02.20	120.019059
	f	040_y_f_s_a.jpg	sad	7	12	f	012_o_f_s_a.jpg	sad	congruent	7	match		130	160		18	240	block1_Pilot_2	40	s_s	s_s_strong					0	0	0	0	0	105	105	105									879.8849184	None	881.8924653	882.1858689	882.1858689	882.3359313	0.1500624	882.3359313	882.3763201	882.3763201	None	7	1	882.3763201	None	883.876203	None	['7']	[0.835904199999959]	883.876203	None					1.0399329			Emoconpilot039	2021_Dec_15_1153	BackwardMask	08.02.20	120.019059
	f	040_y_f_n_a.jpg	neutral	8	33	m	033_o_m_s_a.jpg	sad	incongruent	7	mismatch		140	160		3	188	block1_Pilot_2	40	n_s	n_s_weak					0	0	0	0	0	106	106	106									886.8767689	None	888.4928557	888.7862579	888.7862579	888.8105879	0.02433	888.8105879	888.851153	888.851153	None	8	0	888.851153	None	890.3513008	None	['8']	[0.6568024999999125]	890.3513008	None					0.8208947			Emoconpilot039	2021_Dec_15_1153	BackwardMask	08.02.20	120.019059
	f	028_y_f_h_a.jpg	happy	9	21	f	021_o_f_s_a.jpg	sad	incongruent	7	match		120	160		3	193	block1_Pilot_2	28	h_s	h_s_strong					0	0	0	0	0	107	107	107									893.3525954	None	894.9700929	895.2606251	895.2606251	895.2854504	0.0248253	895.2854504	895.3263489	895.3263489	None	9	0	895.3263489	None	896.8264558	None	['7']	[0.357676900000115]	896.8264558	None					1.0096661			Emoconpilot039	2021_Dec_15_1153	BackwardMask	08.02.20	120.019059
	f	040_y_f_s_a.jpg	sad	7	13	m	013_y_m_n_a.jpg	neutral	incongruent	8	mismatch		130	170		2	198	block1_Pilot_2	40	s_n	s_n_strong					0	0	0	0	0	108	108	108									899.8265344	None	901.4837516	901.7774561	901.7774561	901.7941211	0.016665	901.7941211	901.8348674	901.8348674	None	None	0	901.8348674	None	903.3349475	None	['7', '9']	[0.1292981999999938, 0.7372261999998955]	903.3349475	None								Emoconpilot039	2021_Dec_15_1153	BackwardMask	08.02.20	120.019059
	f	030_o_f_n_a.jpg	neutral	8	33	m	033_o_m_s_a.jpg	sad	incongruent	7	mismatch		140	160		1	238	block1_Pilot_2	30	n_s	n_s_strong					0	0	0	0	0	109	109	109									906.3353171	None	908.34202	908.6362879	908.6362879	908.6440562	0.0077683	908.6440562	908.6849	908.6849	None	None	0	908.6849	None	910.1851319	None	['9']	[0.4550054999999702]	910.1851319	None								Emoconpilot039	2021_Dec_15_1153	BackwardMask	08.02.20	120.019059
	f	021_o_f_h_a.jpg	happy	9	40	f	040_y_f_n_a.jpg	neutral	incongruent	8	match		120	170		2	125	block1_Pilot_2	21	h_n	h_n_weak					0	0	0	0	0	110	110	110									913.186044	None	914.2495777	914.5449971	914.5449971	914.5609112	0.0159141	914.5609112	914.6017367	914.6017367	None	9	0	914.6017367	None	916.1017521	None	['7']	[0.4184888000002047]	916.1017521	None					1.2145234			Emoconpilot039	2021_Dec_15_1153	BackwardMask	08.02.20	120.019059
	f	021_o_f_h_a.jpg	happy	9	16	m	016_y_m_s_a.jpg	sad	incongruent	7	mismatch		120	160		1	238	block1_Pilot_2	21	h_s	h_s_strong					0	0	0	0	0	111	111	111									919.102393	None	921.1064102	921.3950245	921.3950245	921.4027519	0.0077274	921.4027519	921.4434455	921.4434455	None	None	0	921.4434455	None	922.9435399	None	['9']	[0.32049819999997453]	922.9435399	None								Emoconpilot039	2021_Dec_15_1153	BackwardMask	08.02.20	120.019059
	f	012_o_f_h_a.jpg	happy	9	8	m	008_y_m_s_a.jpg	sad	incongruent	7	mismatch		120	160		1	238	block1_Pilot_2	12	h_s	h_s_weak					0	0	0	0	0	112	112	112									925.9437519	None	927.9357973	928.2280776	928.2280776	928.2361921	0.0081145	928.2361921	928.2791338	928.2791338	None	None	0	928.2791338	None	929.775453	None	['9']	[0.2965747000000647]	929.775453	None								Emoconpilot039	2021_Dec_15_1153	BackwardMask	08.02.20	120.019059
	m	013_y_m_h_a.jpg	happy	9	16	m	016_y_m_s_a.jpg	sad	incongruent	7	match		120	160		3	202	block1_Pilot_2	13	h_s	h_s_weak					0	0	0	0	0	113	113	113									932.7754115	None	934.5420184	934.8356668	934.8356668	934.8600343	0.0243675	934.8600343	934.9003327	934.9003327	None	9	0	934.9003327	None	936.4006779	None	['7']	[0.37542129999997087]	936.4006779	None					0.8919426			Emoconpilot039	2021_Dec_15_1153	BackwardMask	08.02.20	120.019059
	f	019_m_f_s_a.jpg	sad	7	4	m	004_o_m_n_a.jpg	neutral	incongruent	8	mismatch		130	170		1	238	block1_Pilot_2	19	s_n	s_n_strong					0	0	0	0	0	114	114	114									939.4006904	None	941.4072521	941.6941464	941.6941464	941.7016614	0.007515	941.7016614	941.742264	941.742264	None	None	0	941.742264	None	943.2431092	None	['9']	[0.41294360000006236]	943.2431092	None								Emoconpilot039	2021_Dec_15_1153	BackwardMask	08.02.20	120.019059
	f	028_y_f_n_a.jpg	neutral	8	27	m	027_o_m_s_a.jpg	sad	incongruent	7	mismatch		140	160		18	238	block1_Pilot_2	28	n_s	n_s_strong					0	0	0	0	0	115	115	115									946.2424314	None	948.2467534	948.535852	948.535852	948.6847877	0.1489357	948.6847877	948.7258356	948.7258356	None	8	0	948.7258356	None	950.2258751	None	['7']	[0.3341531000000941]	950.2258751	None					0.6343086			Emoconpilot039	2021_Dec_15_1153	BackwardMask	08.02.20	120.019059
	m	013_y_m_s_a.jpg	sad	7	12	f	012_o_f_h_a.jpg	happy	incongruent	9	mismatch		130	150		1	238	block1_Pilot_2	13	s_h	s_h_strong					0	0	0	0	0	116	116	116									953.2256634	None	955.2175954	955.510513	955.510513	955.5185361	0.0080231	955.5185361	955.5592421	955.5592421	None	None	0	955.5592421	None	957.059328	None	['9']	[0.36473030000001927]	957.059328	None								Emoconpilot039	2021_Dec_15_1153	BackwardMask	08.02.20	120.019059
	m	016_y_m_s_a.jpg	sad	7	19	f	019_m_f_h_a.jpg	happy	incongruent	9	mismatch		130	150		1	238	block1_Pilot_2	16	s_h	s_h_strong					0	0	0	0	0	117	117	117									960.0597767	None	962.0491283	962.3437567	962.3437567	962.3522893	0.0085326	962.3522893	962.3928643	962.3928643	None	None	0	962.3928643	None	963.8927725	None	['9']	[0.4512431000000561]	963.8927725	None								Emoconpilot039	2021_Dec_15_1153	BackwardMask	08.02.20	120.019059
	m	013_y_m_s_a.jpg	sad	7	21	f	021_o_f_h_a.jpg	happy	incongruent	9	mismatch		130	150		18	238	block1_Pilot_2	13	s_h	s_h_strong					0	0	0	0	0	118	118	118									966.8926033	None	968.8823075	969.177549	969.177549	969.3270166	0.1494676	969.3270166	969.3676783	969.3676783	None	7	0	969.3676783	None	970.8677502	None	['7']	[0.34051479999993717]	970.8677502	None					0.8251623			Emoconpilot039	2021_Dec_15_1153	BackwardMask	08.02.20	120.019059
	f	012_o_f_s_a.jpg	sad	7	13	m	013_y_m_h_a.jpg	happy	incongruent	9	mismatch		130	150		3	235	block1_Pilot_2	12	s_h	s_h_weak					0	0	0	0	0	119	119	119									973.868116	None	975.8341229	976.1270358	976.1270358	976.1521429	0.0251071	976.1521429	976.192934	976.192934	None	7	0	976.192934	None	977.6932292	None	['8']	[0.3548396999999568]	977.6932292	None					1.0151797			Emoconpilot039	2021_Dec_15_1153	BackwardMask	08.02.20	120.019059
	f	019_m_f_s_a.jpg	sad	7	30	f	030_o_f_h_a.jpg	happy	incongruent	9	match		130	150		3	235	block2_Pilot_2	19	s_h	s_h_strong					0	1	1	1	0	0	0	0									1000.731283	None	1002.79434	1003.087056	1003.087056	1003.111149	0.0240935	1003.111149	1003.151822	1003.151822	None	None	0	1003.151822	None	1004.65217	None	['8']	[0.4757282000000487]	1004.65217	None			980.6929684	None				Emoconpilot039	2021_Dec_15_1153	BackwardMask	08.02.20	120.019059
	m	008_y_m_n_a.jpg	neutral	8	40	f	040_y_f_h_a.jpg	happy	incongruent	9	mismatch		140	150		2	121	block2_Pilot_2	8	n_h	n_h_strong					0	1	1	1	0	1	1	1									1007.652163	None	1008.678882	1008.970007	1008.970007	1008.986094	0.0160865	1008.986094	1009.026685	1009.026685	None	8	0	1009.026685	None	1010.527073	None	['8']	[0.28090419999989535]	1010.527073	None					0.7573464			Emoconpilot039	2021_Dec_15_1153	BackwardMask	08.02.20	120.019059
	f	012_o_f_h_a.jpg	happy	9	27	m	027_o_m_n_a.jpg	neutral	incongruent	8	mismatch		120	170		2	240	block2_Pilot_2	12	h_n	h_n_weak					0	1	1	1	0	2	2	2									1013.527263	None	1015.534073	1015.828096	1015.828096	1015.844589	0.0164933	1015.844589	1015.885366	1015.885366	None	None	0	1015.885366	None	1017.38547	None	['8']	[0.6224741999999424]	1017.38547	None								Emoconpilot039	2021_Dec_15_1153	BackwardMask	08.02.20	120.019059
	m	008_y_m_h_a.jpg	happy	9	40	f	040_y_f_h_a.jpg	happy	congruent	9	mismatch		120	150		18	195	block2_Pilot_2	8	h_h	h_h_strong					0	1	1	1	0	3	3	3									1020.385647	None	1022.015752	1022.311372	1022.311372	1022.461427	0.1500551	1022.461427	1022.502282	1022.502282	None	9	1	1022.502282	None	1024.002454	None	['7']	[0.605397000000039]	1024.002454	None					0.8816059			Emoconpilot039	2021_Dec_15_1153	BackwardMask	08.02.20	120.019059
	m	004_o_m_n_a.jpg	neutral	8	33	m	033_o_m_s_a.jpg	sad	incongruent	7	match		140	160		18	126	block2_Pilot_2	4	n_s	n_s_weak					0	1	1	1	0	4	4	4									1027.002234	None	1028.154274	1028.445654	1028.445654	1028.594841	0.1491872	1028.594841	1028.635622	1028.635622	None	8	0	1028.635622	None	1030.135664	None	['7']	[1.0169084000001476]	1030.135664	None					0.9403676			Emoconpilot039	2021_Dec_15_1153	BackwardMask	08.02.20	120.019059
	f	028_y_f_s_a.jpg	sad	7	27	m	027_o_m_n_a.jpg	neutral	incongruent	8	mismatch		130	170		18	225	block2_Pilot_2	28	s_n	s_n_strong					0	1	1	1	0	5	5	5									1033.13593	None	1035.019839	1035.312044	1035.312044	1035.461946	0.1499023	1035.461946	1035.502354	1035.502354	None	7	0	1035.502354	None	1037.002418	None	['7']	[0.3255346999999347]	1037.002418	None					0.9216427			Emoconpilot039	2021_Dec_15_1153	BackwardMask	08.02.20	120.019059
	m	027_o_m_s_a.jpg	sad	7	30	f	030_o_f_h_a.jpg	happy	incongruent	9	mismatch		130	150		18	238	block2_Pilot_2	27	s_h	s_h_weak					0	1	1	1	0	6	6	6									1040.002417	None	1041.992666	1042.286924	1042.286924	1042.436773	0.1498489	1042.436773	1042.477501	1042.477501	None	7	0	1042.477501	None	1043.977627	None	['7']	[0.454278800000111]	1043.977627	None					1.1064627			Emoconpilot039	2021_Dec_15_1153	BackwardMask	08.02.20	120.019059
	m	033_o_m_h_a.jpg	happy	9	40	f	040_y_f_s_a.jpg	sad	incongruent	7	mismatch		120	160		1	238	block2_Pilot_2	33	h_s	h_s_strong					0	1	1	1	0	7	7	7									1046.977462	None	1048.966898	1049.262367	1049.262367	1049.270135	0.0077672	1049.270135	1049.310967	1049.310967	None	None	0	1049.310967	None	1050.811072	None	['9']	[0.396831599999814]	1050.811072	None								Emoconpilot039	2021_Dec_15_1153	BackwardMask	08.02.20	120.019059
	f	012_o_f_n_a.jpg	neutral	8	12	f	012_o_f_h_a.jpg	happy	incongruent	9	match		140	150		2	200	block2_Pilot_2	12	n_h	n_h_weak					0	1	1	1	0	8	8	8									1053.811413	None	1055.575132	1055.862874	1055.862874	1055.878955	0.0160803	1055.878955	1055.919336	1055.919336	None	8	0	1055.919336	None	1057.419487	None	['8']	[0.3484627999998793]	1057.419487	None					1.0725888			Emoconpilot039	2021_Dec_15_1153	BackwardMask	08.02.20	120.019059
	f	030_o_f_n_a.jpg	neutral	8	19	f	019_m_f_n_a.jpg	neutral	congruent	8	match		140	170		1	238	block2_Pilot_2	30	n_n	n_n_weak					0	1	1	1	0	9	9	9									1060.420084	None	1062.425418	1062.713667	1062.713667	1062.721418	0.0077512	1062.721418	1062.762131	1062.762131	None	None	0	1062.762131	None	1064.262987	None	['9']	[0.28898449999996956]	1064.262987	None								Emoconpilot039	2021_Dec_15_1153	BackwardMask	08.02.20	120.019059
	m	013_y_m_h_a.jpg	happy	9	8	m	008_y_m_n_a.jpg	neutral	incongruent	8	match		120	170		1	238	block2_Pilot_2	13	h_n	h_n_strong					0	1	1	1	0	10	10	10									1067.263114	None	1069.29758	1069.589514	1069.589514	1069.597266	0.0077518	1069.597266	1069.637956	1069.637956	None	None	0	1069.637956	None	1071.138154	None	['9']	[0.30962560000011763]	1071.138154	None								Emoconpilot039	2021_Dec_15_1153	BackwardMask	08.02.20	120.019059
	f	040_y_f_h_a.jpg	happy	9	19	f	019_m_f_s_a.jpg	sad	incongruent	7	match		120	160		3	133	block2_Pilot_2	40	h_s	h_s_strong					0	1	1	1	0	11	11	11									1074.138278	None	1075.257092	1075.54784	1075.54784	1075.572524	0.0246833	1075.572524	1075.613073	1075.613073	None	9	0	1075.613073	None	1077.113242	None	['7']	[0.502527099999952]	1077.113242	None					1.0828274			Emoconpilot039	2021_Dec_15_1153	BackwardMask	08.02.20	120.019059
	f	040_y_f_h_a.jpg	happy	9	13	m	013_y_m_s_a.jpg	sad	incongruent	7	mismatch		120	160		3	226	block2_Pilot_2	40	h_s	h_s_strong					0	1	1	1	0	12	12	12									1080.114217	None	1082.006153	1082.297964	1082.297964	1082.322673	0.0247087	1082.322673	1082.363156	1082.363156	None	9	0	1082.363156	None	1083.863358	None	['7']	[0.46466019999979835]	1083.863358	None					1.2446228			Emoconpilot039	2021_Dec_15_1153	BackwardMask	08.02.20	120.019059
	f	030_o_f_s_a.jpg	sad	7	27	m	027_o_m_h_a.jpg	happy	incongruent	9	mismatch		130	150		1	238	block2_Pilot_2	30	s_h	s_h_strong					0	1	1	1	0	13	13	13									1086.864315	None	1088.958792	1089.248407	1089.248407	1089.256048	0.0076413	1089.256048	1089.296743	1089.296743	None	None	0	1089.296743	None	1090.796845	None	['9']	[0.347014000000172]	1090.796845	None								Emoconpilot039	2021_Dec_15_1153	BackwardMask	08.02.20	120.019059
	m	033_o_m_h_a.jpg	happy	9	30	f	030_o_f_s_a.jpg	sad	incongruent	7	mismatch		120	160		1	238	block2_Pilot_2	33	h_s	h_s_weak					0	1	1	1	0	14	14	14									1093.797639	None	1095.79117	1096.081441	1096.081441	1096.08967	0.0082289	1096.08967	1096.130134	1096.130134	None	None	0	1096.130134	None	1097.63039	None	['9']	[0.45748460000004343]	1097.63039	None								Emoconpilot039	2021_Dec_15_1153	BackwardMask	08.02.20	120.019059
	f	030_o_f_s_a.jpg	sad	7	28	f	028_y_f_n_a.jpg	neutral	incongruent	8	match		130	170		3	198	block2_Pilot_2	30	s_n	s_n_weak					0	1	1	1	0	15	15	15									1100.63167	None	1102.35107	1102.64055	1102.64055	1102.664749	0.0241994	1102.664749	1102.705234	1102.705234	None	8	1	1102.705234	None	1104.206216	None	['8']	[0.29769360000000233]	1104.206216	None					0.8385709			Emoconpilot039	2021_Dec_15_1153	BackwardMask	08.02.20	120.019059
	f	030_o_f_s_a.jpg	sad	7	33	m	033_o_m_h_a.jpg	happy	incongruent	9	mismatch		130	150		3	175	block2_Pilot_2	30	s_h	s_h_weak					0	1	1	1	0	16	16	16									1107.206175	None	1108.687047	1108.982273	1108.982273	1109.006551	0.0242781	1109.006551	1109.047041	1109.047041	None	7	0	1109.047041	None	1110.548168	None	['8']	[0.36370719999990797]	1110.548168	None					1.2808667			Emoconpilot039	2021_Dec_15_1153	BackwardMask	08.02.20	120.019059
	f	021_o_f_h_a.jpg	happy	9	30	f	030_o_f_h_a.jpg	happy	congruent	9	match		120	150		2	194	block2_Pilot_2	21	h_h	h_h_strong					0	1	1	1	0	17	17	17									1113.548432	None	1115.188629	1115.483051	1115.483051	1115.498322	0.0152708	1115.498322	1115.538866	1115.538866	None	9	1	1115.538866	None	1117.038999	None	['7']	[0.9127985000000081]	1117.038999	None					0.8208869			Emoconpilot039	2021_Dec_15_1153	BackwardMask	08.02.20	120.019059
	f	019_m_f_n_a.jpg	neutral	8	16	m	016_y_m_s_a.jpg	sad	incongruent	7	mismatch		140	160		18	163	block2_Pilot_2	19	n_s	n_s_weak					0	1	1	1	0	18	18	18									1120.039448	None	1121.422059	1121.715698	1121.715698	1121.865193	0.1494942	1121.865193	1121.905931	1121.905931	None	8	0	1121.905931	None	1123.406549	None	['7']	[0.35318069999993895]	1123.406549	None					0.5097877			Emoconpilot039	2021_Dec_15_1153	BackwardMask	08.02.20	120.019059
	m	033_o_m_n_a.jpg	neutral	8	13	m	013_y_m_n_a.jpg	neutral	congruent	8	match		140	170		2	217	block2_Pilot_2	33	n_n	n_n_strong					0	1	1	1	0	19	19	19									1126.407501	None	1128.239404	1128.532635	1128.532635	1128.54852	0.0158854	1128.54852	1128.589078	1128.589078	None	8	1	1128.589078	None	1130.089899	None	['8']	[0.6697838999998567]	1130.089899	None					0.7866527			Emoconpilot039	2021_Dec_15_1153	BackwardMask	08.02.20	120.019059
	m	033_o_m_h_a.jpg	happy	9	13	m	013_y_m_n_a.jpg	neutral	incongruent	8	match		120	170		2	227	block2_Pilot_2	33	h_n	h_n_weak					0	1	1	1	0	20	20	20									1133.089715	None	1135.005373	1135.298972	1135.298972	1135.315367	0.0163955	1135.315367	1135.355861	1135.355861	None	9	0	1135.355861	None	1136.856037	None	['7']	[0.6398360999999113]	1136.856037	None					0.9400413			Emoconpilot039	2021_Dec_15_1153	BackwardMask	08.02.20	120.019059
	f	012_o_f_s_a.jpg	sad	7	16	m	016_y_m_n_a.jpg	neutral	incongruent	8	mismatch		130	170		1	238	block2_Pilot_2	12	s_n	s_n_weak					0	1	1	1	0	21	21	21									1139.864721	None	1141.852079	1142.149076	1142.149076	1142.157168	0.0080913	1142.157168	1142.197666	1142.197666	None	None	0	1142.197666	None	1143.697818	None	['9']	[0.4938466999999491]	1143.697818	None								Emoconpilot039	2021_Dec_15_1153	BackwardMask	08.02.20	120.019059
	f	028_y_f_n_a.jpg	neutral	8	21	f	021_o_f_h_a.jpg	happy	incongruent	9	match		140	150		18	202	block2_Pilot_2	28	n_h	n_h_strong					0	1	1	1	0	22	22	22									1146.698335	None	1148.473847	1148.766324	1148.766324	1148.915601	0.1492769	1148.915601	1148.956126	1148.956126	None	8	0	1148.956126	None	1150.456298	None	['7']	[0.4153632000000016]	1150.456298	None					0.5956059			Emoconpilot039	2021_Dec_15_1153	BackwardMask	08.02.20	120.019059
	f	028_y_f_s_a.jpg	sad	7	30	f	030_o_f_n_a.jpg	neutral	incongruent	8	match		130	170		2	127	block2_Pilot_2	28	s_n	s_n_weak					0	1	1	1	0	23	23	23									1153.45749	None	1154.543227	1154.832593	1154.832593	1154.849087	0.0164946	1154.849087	1154.890307	1154.890307	None	7	0	1154.890307	None	1156.389735	None	['7']	[0.46610169999985374]	1156.389735	None					1.0373536			Emoconpilot039	2021_Dec_15_1153	BackwardMask	08.02.20	120.019059
	m	004_o_m_n_a.jpg	neutral	8	40	f	040_y_f_n_a.jpg	neutral	congruent	8	mismatch		140	170		1	238	block2_Pilot_2	4	n_n	n_n_weak					0	1	1	1	0	24	24	24									1159.389924	None	1161.430643	1161.724513	1161.724513	1161.732303	0.0077901	1161.732303	1161.773072	1161.773072	None	None	0	1161.773072	None	1163.273553	None	['9']	[0.3663285000000087]	1163.273553	None								Emoconpilot039	2021_Dec_15_1153	BackwardMask	08.02.20	120.019059
	m	016_y_m_n_a.jpg	neutral	8	16	m	016_y_m_h_a.jpg	happy	incongruent	9	match		140	150		18	239	block2_Pilot_2	16	n_h	n_h_weak					0	1	1	1	0	25	25	25									1166.273373	None	1168.290532	1168.583011	1168.583011	1168.733093	0.1500824	1168.733093	1168.773309	1168.773309	None	8	0	1168.773309	None	1170.273773	None	['7']	[0.3259837000000516]	1170.273773	None					0.6104348			Emoconpilot039	2021_Dec_15_1153	BackwardMask	08.02.20	120.019059
	f	012_o_f_n_a.jpg	neutral	8	33	m	033_o_m_n_a.jpg	neutral	congruent	8	mismatch		140	170		3	134	block2_Pilot_2	12	n_n	n_n_weak					0	1	1	1	0	26	26	26									1173.273466	None	1174.413913	1174.708434	1174.708434	1174.7326	0.0241662	1174.7326	1174.773331	1174.773331	None	8	1	1174.773331	None	1176.273523	None	['8']	[0.3261605000000145]	1176.273523	None					1.146358			Emoconpilot039	2021_Dec_15_1153	BackwardMask	08.02.20	120.019059
	m	013_y_m_h_a.jpg	happy	9	27	m	027_o_m_s_a.jpg	sad	incongruent	7	match		120	160		2	194	block2_Pilot_2	13	h_s	h_s_strong					0	1	1	1	0	27	27	27									1179.274071	None	1180.911194	1181.199907	1181.199907	1181.216154	0.0162474	1181.216154	1181.256802	1181.256802	None	9	0	1181.256802	None	1182.757091	None	['7']	[0.5626061000000391]	1182.757091	None					1.0629062			Emoconpilot039	2021_Dec_15_1153	BackwardMask	08.02.20	120.019059
	m	013_y_m_n_a.jpg	neutral	8	28	f	028_y_f_n_a.jpg	neutral	congruent	8	mismatch		140	170		1	238	block2_Pilot_2	13	n_n	n_n_weak					0	1	1	1	0	28	28	28									1185.757793	None	1187.763755	1188.058323	1188.058323	1188.066134	0.0078105	1188.066134	1188.106891	1188.106891	None	None	0	1188.106891	None	1189.607147	None	['9']	[0.36061689999996815]	1189.607147	None								Emoconpilot039	2021_Dec_15_1153	BackwardMask	08.02.20	120.019059
	f	030_o_f_s_a.jpg	sad	7	33	m	033_o_m_h_a.jpg	happy	incongruent	9	mismatch		130	150		3	168	block2_Pilot_2	30	s_h	s_h_weak					0	1	1	1	0	29	29	29									1192.607184	None	1194.029317	1194.325389	1194.325389	1194.349754	0.0243649	1194.349754	1194.390387	1194.390387	None	7	0	1194.390387	None	1195.890437	None	['8']	[0.3734011000001374]	1195.890437	None					1.0413384			Emoconpilot039	2021_Dec_15_1153	BackwardMask	08.02.20	120.019059
	m	008_y_m_n_a.jpg	neutral	8	12	f	012_o_f_n_a.jpg	neutral	congruent	8	mismatch		140	170		18	208	block2_Pilot_2	8	n_n	n_n_weak					0	1	1	1	0	30	30	30									1198.891258	None	1200.645812	1200.942018	1200.942018	1201.091405	0.1493868	1201.091405	1201.132164	1201.132164	None	8	1	1201.132164	None	1202.632336	None	['7']	[0.3353920999998081]	1202.632336	None					0.515554			Emoconpilot039	2021_Dec_15_1153	BackwardMask	08.02.20	120.019059
	m	008_y_m_s_a.jpg	sad	7	4	m	004_o_m_n_a.jpg	neutral	incongruent	8	match		130	170		2	231	block2_Pilot_2	8	s_n	s_n_weak					0	1	1	1	0	31	31	31									1205.632426	None	1207.585307	1207.875376	1207.875376	1207.891593	0.0162167	1207.891593	1207.932274	1207.932274	None	7	0	1207.932274	None	1209.432445	None	['8']	[0.335205999999971]	1209.432445	None					0.9634108			Emoconpilot039	2021_Dec_15_1153	BackwardMask	08.02.20	120.019059
	m	016_y_m_n_a.jpg	neutral	8	28	f	028_y_f_n_a.jpg	neutral	congruent	8	mismatch		140	170		2	218	block2_Pilot_2	16	n_n	n_n_weak					0	1	1	1	0	32	32	32									1212.433066	None	1214.272508	1214.567444	1214.567444	1214.583602	0.0161579	1214.583602	1214.624249	1214.624249	None	8	1	1214.624249	None	1216.124502	None	['8']	[0.3072210999998788]	1216.124502	None					0.8874114			Emoconpilot039	2021_Dec_15_1153	BackwardMask	08.02.20	120.019059
	m	033_o_m_n_a.jpg	neutral	8	33	m	033_o_m_s_a.jpg	sad	incongruent	7	match		140	160		3	141	block2_Pilot_2	33	n_s	n_s_weak					0	1	1	1	0	33	33	33									1219.124435	None	1220.321233	1220.617367	1220.617367	1220.641826	0.0244595	1220.641826	1220.682564	1220.682564	None	8	0	1220.682564	None	1222.182672	None	['8']	[0.2810841000000437]	1222.182672	None					0.6931762			Emoconpilot039	2021_Dec_15_1153	BackwardMask	08.02.20	120.019059
	m	016_y_m_n_a.jpg	neutral	8	13	m	013_y_m_s_a.jpg	sad	incongruent	7	match		140	160		1	238	block2_Pilot_2	16	n_s	n_s_weak					0	1	1	1	0	34	34	34									1225.182822	None	1227.217885	1227.509169	1227.509169	1227.517054	0.0078855	1227.517054	1227.557679	1227.557679	None	None	0	1227.557679	None	1229.05782	None	['9']	[0.3098413000000164]	1229.05782	None								Emoconpilot039	2021_Dec_15_1153	BackwardMask	08.02.20	120.019059
	f	030_o_f_h_a.jpg	happy	9	12	f	012_o_f_n_a.jpg	neutral	incongruent	8	match		120	170		3	190	block2_Pilot_2	30	h_n	h_n_weak					0	1	1	1	0	35	35	35									1232.057944	None	1233.666333	1233.959467	1233.959467	1233.98412	0.0246533	1233.98412	1234.024342	1234.024342	None	9	0	1234.024342	None	1235.524478	None	['7']	[0.34719170000016675]	1235.524478	None					0.7353038			Emoconpilot039	2021_Dec_15_1153	BackwardMask	08.02.20	120.019059
	f	030_o_f_s_a.jpg	sad	7	12	f	012_o_f_n_a.jpg	neutral	incongruent	8	match		130	170		3	197	block2_Pilot_2	30	s_n	s_n_strong					0	1	1	1	0	36	36	36									1238.525312	None	1240.189112	1240.484617	1240.484617	1240.508869	0.0242522	1240.508869	1240.549691	1240.549691	None	None	0	1240.549691	None	1242.049873	None	['9']	[0.6696650999999747]	1242.049873	None								Emoconpilot039	2021_Dec_15_1153	BackwardMask	08.02.20	120.019059
	m	004_o_m_s_a.jpg	sad	7	8	m	008_y_m_h_a.jpg	happy	incongruent	9	match		130	150		3	201	block2_Pilot_2	4	s_h	s_h_strong					0	1	1	1	0	37	37	37									1245.049876	None	1246.73594	1247.025978	1247.025978	1247.050544	0.0245663	1247.050544	1247.091544	1247.091544	None	7	0	1247.091544	None	1248.592259	None	['7']	[0.34327669999993304]	1248.592259	None					0.8040623			Emoconpilot039	2021_Dec_15_1153	BackwardMask	08.02.20	120.019059
	f	040_y_f_n_a.jpg	neutral	8	16	m	016_y_m_n_a.jpg	neutral	congruent	8	mismatch		140	170		3	198	block2_Pilot_2	40	n_n	n_n_strong					0	1	1	1	0	38	38	38									1251.591621	None	1253.294315	1253.585084	1253.585084	1253.609371	0.0242862	1253.609371	1253.649825	1253.649825	None	8	1	1253.649825	None	1255.149912	None	['7']	[0.3537103000001025]	1255.149912	None					0.7739012			Emoconpilot039	2021_Dec_15_1153	BackwardMask	08.02.20	120.019059
	m	027_o_m_n_a.jpg	neutral	8	16	m	016_y_m_s_a.jpg	sad	incongruent	7	match		140	160		1	238	block2_Pilot_2	27	n_s	n_s_strong					0	1	1	1	0	39	39	39									1258.150581	None	1260.155733	1260.451616	1260.451616	1260.459219	0.0076032	1260.459219	1260.500001	1260.500001	None	None	0	1260.500001	None	1262.000018	None	['9']	[0.32761439999990216]	1262.000018	None								Emoconpilot039	2021_Dec_15_1153	BackwardMask	08.02.20	120.019059
	m	033_o_m_n_a.jpg	neutral	8	40	f	040_y_f_h_a.jpg	happy	incongruent	9	mismatch		140	150		2	137	block2_Pilot_2	33	n_h	n_h_strong					0	1	1	1	0	40	40	40									1265.000776	None	1266.16068	1266.45186	1266.45186	1266.467635	0.0157755	1266.467635	1266.508603	1266.508603	None	8	0	1266.508603	None	1268.008555	None	['7']	[0.31891719999998713]	1268.008555	None					0.5950014			Emoconpilot039	2021_Dec_15_1153	BackwardMask	08.02.20	120.019059
	m	004_o_m_s_a.jpg	sad	7	8	m	008_y_m_h_a.jpg	happy	incongruent	9	match		130	150		18	193	block2_Pilot_2	4	s_h	s_h_strong					0	1	1	1	0	41	41	41									1271.009415	None	1272.62741	1272.917995	1272.917995	1273.067802	0.1498072	1273.067802	1273.108572	1273.108572	None	7	0	1273.108572	None	1274.609387	None	['7']	[0.34215740000013284]	1274.609387	None					0.6430905			Emoconpilot039	2021_Dec_15_1153	BackwardMask	08.02.20	120.019059
	f	012_o_f_h_a.jpg	happy	9	4	m	004_o_m_s_a.jpg	sad	incongruent	7	mismatch		120	160		3	198	block2_Pilot_2	12	h_s	h_s_weak					0	1	1	1	0	42	42	42									1277.609272	None	1279.266722	1279.559933	1279.559933	1279.584594	0.0246606	1279.584594	1279.625335	1279.625335	None	9	0	1279.625335	None	1281.125779	None	['7']	[0.35373090000007323]	1281.125779	None					0.7101536			Emoconpilot039	2021_Dec_15_1153	BackwardMask	08.02.20	120.019059
	f	012_o_f_n_a.jpg	neutral	8	8	m	008_y_m_s_a.jpg	sad	incongruent	7	mismatch		140	160		1	238	block2_Pilot_2	12	n_s	n_s_strong					0	1	1	1	0	43	43	43									1284.12562	None	1286.22967	1286.518866	1286.518866	1286.526524	0.0076579	1286.526524	1286.56732	1286.56732	None	None	0	1286.56732	None	1288.067461	None	['9']	[0.39615299999991294]	1288.067461	None								Emoconpilot039	2021_Dec_15_1153	BackwardMask	08.02.20	120.019059
	f	040_y_f_n_a.jpg	neutral	8	8	m	008_y_m_n_a.jpg	neutral	congruent	8	mismatch		140	170		3	165	block2_Pilot_2	40	n_n	n_n_weak					0	1	1	1	0	44	44	44									1291.067354	None	1292.46569	1292.760411	1292.760411	1292.784918	0.0245064	1292.784918	1292.825708	1292.825708	None	8	1	1292.825708	None	1294.325757	None	['7']	[0.32182609999995293]	1294.325757	None					0.693759			Emoconpilot039	2021_Dec_15_1153	BackwardMask	08.02.20	120.019059
	f	028_y_f_h_a.jpg	happy	9	33	m	033_o_m_n_a.jpg	neutral	incongruent	8	mismatch		120	170		1	238	block2_Pilot_2	28	h_n	h_n_strong					0	1	1	1	0	45	45	45									1297.326075	None	1299.324003	1299.618781	1299.618781	1299.626858	0.0080762	1299.626858	1299.667597	1299.667597	None	None	0	1299.667597	None	1301.167659	None	['9']	[0.5838818000001993]	1301.167659	None								Emoconpilot039	2021_Dec_15_1153	BackwardMask	08.02.20	120.019059
	m	027_o_m_s_a.jpg	sad	7	19	f	019_m_f_n_a.jpg	neutral	incongruent	8	mismatch		130	170		2	236	block2_Pilot_2	27	s_n	s_n_weak					0	1	1	1	0	46	46	46									1304.167815	None	1306.144374	1306.435638	1306.435638	1306.451828	0.0161897	1306.451828	1306.492747	1306.492747	None	7	0	1306.492747	None	1307.993528	None	['8']	[0.40639900000019225]	1307.993528	None					0.9708737			Emoconpilot039	2021_Dec_15_1153	BackwardMask	08.02.20	120.019059
	m	027_o_m_h_a.jpg	happy	9	19	f	019_m_f_s_a.jpg	sad	incongruent	7	mismatch		120	160		1	238	block2_Pilot_2	27	h_s	h_s_strong					0	1	1	1	0	47	47	47									1310.992798	None	1313.088837	1313.378556	1313.378556	1313.38551	0.0069542	1313.38551	1313.426098	1313.426098	None	None	0	1313.426098	None	1314.926075	None	['9']	[0.529371799999808]	1314.926075	None								Emoconpilot039	2021_Dec_15_1153	BackwardMask	08.02.20	120.019059
	m	016_y_m_h_a.jpg	happy	9	4	m	004_o_m_s_a.jpg	sad	incongruent	7	match		120	160		3	227	block2_Pilot_2	16	h_s	h_s_strong					0	1	1	1	0	48	48	48									1317.926256	None	1319.830912	1320.119808	1320.119808	1320.144286	0.0244781	1320.144286	1320.18456	1320.18456	None	9	0	1320.18456	None	1321.684516	None	['7']	[0.34697719999985566]	1321.684516	None					0.854928			Emoconpilot039	2021_Dec_15_1153	BackwardMask	08.02.20	120.019059
	f	040_y_f_h_a.jpg	happy	9	13	m	013_y_m_h_a.jpg	happy	congruent	9	mismatch		120	150		3	165	block2_Pilot_2	40	h_h	h_h_strong					0	1	1	1	0	49	49	49									1324.684627	None	1326.067261	1326.360684	1326.360684	1326.385504	0.0248201	1326.385504	1326.42627	1326.42627	None	9	1	1326.42627	None	1327.926221	None	['7']	[0.4572347999999238]	1327.926221	None					1.1732885			Emoconpilot039	2021_Dec_15_1153	BackwardMask	08.02.20	120.019059
	m	033_o_m_s_a.jpg	sad	7	28	f	028_y_f_n_a.jpg	neutral	incongruent	8	mismatch		130	170		2	227	block2_Pilot_2	33	s_n	s_n_weak					0	1	1	1	0	50	50	50									1330.926776	None	1332.827392	1333.119493	1333.119493	1333.135867	0.0163739	1333.135867	1333.176343	1333.176343	None	7	0	1333.176343	None	1334.676454	None	['8']	[0.35506690000011076]	1334.676454	None					1.0152246			Emoconpilot039	2021_Dec_15_1153	BackwardMask	08.02.20	120.019059
	f	019_m_f_s_a.jpg	sad	7	27	m	027_o_m_h_a.jpg	happy	incongruent	9	mismatch		130	150		1	238	block2_Pilot_2	19	s_h	s_h_weak					0	1	1	1	0	51	51	51									1337.676649	None	1339.764417	1340.053236	1340.053236	1340.061082	0.0078458	1340.061082	1340.101441	1340.101441	None	None	0	1340.101441	None	1341.601623	None	['9']	[0.4937852999998995]	1341.601623	None								Emoconpilot039	2021_Dec_15_1153	BackwardMask	08.02.20	120.019059
	m	016_y_m_h_a.jpg	happy	9	19	f	019_m_f_n_a.jpg	neutral	incongruent	8	mismatch		120	170		18	238	block2_Pilot_2	16	h_n	h_n_strong					0	1	1	1	0	52	52	52									1344.602142	None	1346.593128	1346.886129	1346.886129	1347.035852	0.1497227	1347.035852	1347.076734	1347.076734	None	9	0	1347.076734	None	1348.576725	None	['7']	[0.32672649999994974]	1348.576725	None					0.6666893			Emoconpilot039	2021_Dec_15_1153	BackwardMask	08.02.20	120.019059
	f	021_o_f_s_a.jpg	sad	7	8	m	008_y_m_n_a.jpg	neutral	incongruent	8	mismatch		130	170		1	238	block2_Pilot_2	21	s_n	s_n_strong					0	1	1	1	0	53	53	53									1351.576995	None	1353.567581	1353.861438	1353.861438	1353.869674	0.0082363	1353.869674	1353.910237	1353.910237	None	None	0	1353.910237	None	1355.410165	None	['9']	[0.5893885999998929]	1355.410165	None								Emoconpilot039	2021_Dec_15_1153	BackwardMask	08.02.20	120.019059
	f	012_o_f_s_a.jpg	sad	7	33	m	033_o_m_s_a.jpg	sad	congruent	7	mismatch		130	160		2	148	block2_Pilot_2	12	s_s	s_s_weak					0	1	1	1	0	54	54	54									1358.411074	None	1359.647399	1359.944789	1359.944789	1359.961245	0.0164559	1359.961245	1360.002041	1360.002041	None	None	0	1360.002041	None	1361.501947	None	['9']	[0.3056017999999767]	1361.501947	None								Emoconpilot039	2021_Dec_15_1153	BackwardMask	08.02.20	120.019059
	f	030_o_f_s_a.jpg	sad	7	40	f	040_y_f_s_a.jpg	sad	congruent	7	match		130	160		3	136	block2_Pilot_2	30	s_s	s_s_strong					0	1	1	1	0	55	55	55									1364.501958	None	1365.656875	1365.945179	1365.945179	1365.969418	0.0242392	1365.969418	1366.010332	1366.010332	None	8	0	1366.010332	None	1367.510465	None	['8']	[0.665011899999854]	1367.510465	None					0.853133			Emoconpilot039	2021_Dec_15_1153	BackwardMask	08.02.20	120.019059
	m	027_o_m_s_a.jpg	sad	7	28	f	028_y_f_h_a.jpg	happy	incongruent	9	mismatch		130	150		1	238	block2_Pilot_2	27	s_h	s_h_weak					0	1	1	1	0	56	56	56									1370.5105	None	1372.502474	1372.794991	1372.794991	1372.803041	0.0080499	1372.803041	1372.843858	1372.843858	None	None	0	1372.843858	None	1374.343852	None	['9']	[0.3275613999999223]	1374.343852	None								Emoconpilot039	2021_Dec_15_1153	BackwardMask	08.02.20	120.019059
	m	004_o_m_n_a.jpg	neutral	8	8	m	008_y_m_s_a.jpg	sad	incongruent	7	match		140	160		3	225	block2_Pilot_2	4	n_s	n_s_strong					0	1	1	1	0	57	57	57									1377.344029	None	1379.273952	1379.570325	1379.570325	1379.594677	0.0243524	1379.594677	1379.635608	1379.635608	None	8	0	1379.635608	None	1381.135648	None	['8']	[0.2958309000000554]	1381.135648	None					0.7558938			Emoconpilot039	2021_Dec_15_1153	BackwardMask	08.02.20	120.019059
	f	012_o_f_s_a.jpg	sad	7	40	f	040_y_f_s_a.jpg	sad	congruent	7	match		130	160		1	238	block2_Pilot_2	12	s_s	s_s_strong					0	1	1	1	0	58	58	58									1384.135879	None	1386.122104	1386.419886	1386.419886	1386.428183	0.0082971	1386.428183	1386.469044	1386.469044	None	None	0	1386.469044	None	1387.969087	None	['9']	[0.29436789999999746]	1387.969087	None								Emoconpilot039	2021_Dec_15_1153	BackwardMask	08.02.20	120.019059
	f	021_o_f_h_a.jpg	happy	9	4	m	004_o_m_n_a.jpg	neutral	incongruent	8	mismatch		120	170		1	238	block2_Pilot_2	21	h_n	h_n_weak					0	1	1	1	0	59	59	59									1390.969371	None	1392.974524	1393.270671	1393.270671	1393.278434	0.0077637	1393.278434	1393.319132	1393.319132	None	None	0	1393.319132	None	1394.819587	None	['9']	[0.26783610000006774]	1394.819587	None								Emoconpilot039	2021_Dec_15_1153	BackwardMask	08.02.20	120.019059
	f	040_y_f_h_a.jpg	happy	9	16	m	016_y_m_n_a.jpg	neutral	incongruent	8	mismatch		120	170		2	154	block2_Pilot_2	40	h_n	h_n_weak					0	1	1	1	0	60	60	60									1397.81939	None	1399.110797	1399.40354	1399.40354	1399.420143	0.0166033	1399.420143	1399.460998	1399.460998	None	9	0	1399.460998	None	1400.96144	None	['7']	[0.28602200000000266]	1400.96144	None					0.6984195			Emoconpilot039	2021_Dec_15_1153	BackwardMask	08.02.20	120.019059
	m	008_y_m_n_a.jpg	neutral	8	4	m	004_o_m_s_a.jpg	sad	incongruent	7	match		140	160		18	145	block2_Pilot_2	8	n_s	n_s_strong					0	1	1	1	0	61	61	61									1403.961203	None	1405.223862	1405.512493	1405.512493	1405.661944	0.1494513	1405.661944	1405.703175	1405.703175	None	8	0	1405.703175	None	1407.202817	None	['7']	[0.2925893999999971]	1407.202817	None					0.6162688			Emoconpilot039	2021_Dec_15_1153	BackwardMask	08.02.20	120.019059
	f	021_o_f_s_a.jpg	sad	7	33	m	033_o_m_h_a.jpg	happy	incongruent	9	mismatch		130	150		1	238	block2_Pilot_2	21	s_h	s_h_strong					0	1	1	1	0	62	62	62									1410.211348	None	1412.200806	1412.495623	1412.495623	1412.503779	0.0081569	1412.503779	1412.544526	1412.544526	None	None	0	1412.544526	None	1414.04463	None	['9']	[0.29071380000004865]	1414.04463	None								Emoconpilot039	2021_Dec_15_1153	BackwardMask	08.02.20	120.019059
	m	033_o_m_n_a.jpg	neutral	8	30	f	030_o_f_h_a.jpg	happy	incongruent	9	mismatch		140	150		18	171	block2_Pilot_2	33	n_h	n_h_weak					0	1	1	1	0	63	63	63									1417.045701	None	1418.491813	1418.787797	1418.787797	1418.93719	0.1493928	1418.93719	1418.978046	1418.978046	None	8	0	1418.978046	None	1420.478237	None	['7']	[0.38512280000009014]	1420.478237	None					0.5572673			Emoconpilot039	2021_Dec_15_1153	BackwardMask	08.02.20	120.019059
	m	027_o_m_n_a.jpg	neutral	8	27	m	027_o_m_h_a.jpg	happy	incongruent	9	match		140	150		2	164	block2_Pilot_2	27	n_h	n_h_weak					0	1	1	1	0	64	64	64									1423.47831	None	1424.867947	1425.163208	1425.163208	1425.179204	0.0159959	1425.179204	1425.219756	1425.219756	None	None	0	1425.219756	None	1426.721228	None	['9']	[0.32633869999995113]	1426.721228	None								Emoconpilot039	2021_Dec_15_1153	BackwardMask	08.02.20	120.019059
	m	008_y_m_n_a.jpg	neutral	8	40	f	040_y_f_n_a.jpg	neutral	congruent	8	mismatch		140	170		1	238	block2_Pilot_2	8	n_n	n_n_strong					0	1	1	1	0	65	65	65									1429.72005	None	1431.722131	1432.013021	1432.013021	1432.020838	0.0078168	1432.020838	1432.061638	1432.061638	None	None	0	1432.061638	None	1433.561637	None	['9']	[0.2936931999997796]	1433.561637	None								Emoconpilot039	2021_Dec_15_1153	BackwardMask	08.02.20	120.019059
	f	040_y_f_h_a.jpg	happy	9	21	f	021_o_f_n_a.jpg	neutral	incongruent	8	match		120	170		18	239	block2_Pilot_2	40	h_n	h_n_strong					0	1	1	1	0	66	66	66									1436.561897	None	1438.572744	1438.862729	1438.862729	1439.012576	0.149847	1439.012576	1439.053403	1439.053403	None	9	0	1439.053403	None	1440.553541	None	['7']	[0.293783799999801]	1440.553541	None					0.4979471			Emoconpilot039	2021_Dec_15_1153	BackwardMask	08.02.20	120.019059
	f	021_o_f_s_a.jpg	sad	7	28	f	028_y_f_h_a.jpg	happy	incongruent	9	match		130	150		1	238	block2_Pilot_2	21	s_h	s_h_weak					0	1	1	1	0	67	67	67									1443.553997	None	1445.545158	1445.838329	1445.838329	1445.846149	0.0078193	1445.846149	1445.886957	1445.886957	None	None	0	1445.886957	None	1447.386963	None	['9']	[0.3404135999999198]	1447.386963	None								Emoconpilot039	2021_Dec_15_1153	BackwardMask	08.02.20	120.019059
	f	021_o_f_n_a.jpg	neutral	8	30	f	030_o_f_n_a.jpg	neutral	congruent	8	match		140	170		2	209	block2_Pilot_2	21	n_n	n_n_strong					0	1	1	1	0	68	68	68									1450.387824	None	1452.217244	1452.514049	1452.514049	1452.529831	0.0157824	1452.529831	1452.570247	1452.570247	None	None	0	1452.570247	None	1454.070332	None	['9']	[0.305092299999842]	1454.070332	None								Emoconpilot039	2021_Dec_15_1153	BackwardMask	08.02.20	120.019059
	f	040_y_f_s_a.jpg	sad	7	13	m	013_y_m_s_a.jpg	sad	congruent	7	mismatch		130	160		3	147	block2_Pilot_2	40	s_s	s_s_strong					0	1	1	1	0	69	69	69									1457.069386	None	1458.31137	1458.603396	1458.603396	1458.628235	0.0248393	1458.628235	1458.669025	1458.669025	None	8	0	1458.669025	None	1460.169247	None	['7']	[0.334036800000149]	1460.169247	None					0.6907846			Emoconpilot039	2021_Dec_15_1153	BackwardMask	08.02.20	120.019059
	f	040_y_f_s_a.jpg	sad	7	21	f	021_o_f_h_a.jpg	happy	incongruent	9	match		130	150		3	172	block2_Pilot_2	40	s_h	s_h_strong					0	1	1	1	0	70	70	70									1463.169494	None	1464.609502	1464.903767	1464.903767	1464.928589	0.0248219	1464.928589	1464.969463	1464.969463	None	None	0	1464.969463	None	1466.469894	None	['8']	[0.12169369999992341]	1466.469894	None								Emoconpilot039	2021_Dec_15_1153	BackwardMask	08.02.20	120.019059
	m	013_y_m_s_a.jpg	sad	7	16	m	016_y_m_n_a.jpg	neutral	incongruent	8	match		130	170		1	238	block2_Pilot_2	13	s_n	s_n_strong					0	1	1	1	0	71	71	71									1469.472002	None	1471.468257	1471.763484	1471.763484	1471.77173	0.0082452	1471.77173	1471.812358	1471.812358	None	None	0	1471.812358	None	1473.31275	None	['9']	[0.3027446000000964]	1473.31275	None								Emoconpilot039	2021_Dec_15_1153	BackwardMask	08.02.20	120.019059
	m	008_y_m_s_a.jpg	sad	7	12	f	012_o_f_h_a.jpg	happy	incongruent	9	mismatch		130	150		18	238	block2_Pilot_2	8	s_h	s_h_weak					0	1	1	1	0	72	72	72									1476.312941	None	1478.395073	1478.688957	1478.688957	1478.838798	0.1498411	1478.838798	1478.879688	1478.879688	None	7	0	1478.879688	None	1480.379627	None	['7']	[1.0037307000000055]	1480.379627	None					0.9758218			Emoconpilot039	2021_Dec_15_1153	BackwardMask	08.02.20	120.019059
	m	013_y_m_s_a.jpg	sad	7	21	f	021_o_f_n_a.jpg	neutral	incongruent	8	mismatch		130	170		1	238	block2_Pilot_2	13	s_n	s_n_weak					0	1	1	1	0	73	73	73									1483.380643	None	1485.37213	1485.664007	1485.664007	1485.672335	0.008328	1485.672335	1485.713163	1485.713163	None	None	0	1485.713163	None	1487.213161	None	['9']	[0.30636289999984]	1487.213161	None								Emoconpilot039	2021_Dec_15_1153	BackwardMask	08.02.20	120.019059
	f	019_m_f_s_a.jpg	sad	7	12	f	012_o_f_n_a.jpg	neutral	incongruent	8	match		130	170		2	208	block2_Pilot_2	19	s_n	s_n_weak					0	1	1	1	0	74	74	74									1490.213094	None	1491.982527	1492.272937	1492.272937	1492.289192	0.0162551	1492.289192	1492.329831	1492.329831	None	7	0	1492.329831	None	1493.83004	None	['8']	[0.4813864999998714]	1493.83004	None					1.2696101			Emoconpilot039	2021_Dec_15_1153	BackwardMask	08.02.20	120.019059
	m	016_y_m_s_a.jpg	sad	7	19	f	019_m_f_n_a.jpg	neutral	incongruent	8	mismatch		130	170		18	238	block2_Pilot_2	16	s_n	s_n_strong					0	1	1	1	0	75	75	75									1496.829922	None	1498.827221	1499.122456	1499.122456	1499.272296	0.1498399	1499.272296	1499.313302	1499.313302	None	7	0	1499.313302	None	1500.813353	None	['7']	[0.40215200000011464]	1500.813353	None					0.5741448			Emoconpilot039	2021_Dec_15_1153	BackwardMask	08.02.20	120.019059
	f	040_y_f_n_a.jpg	neutral	8	27	m	027_o_m_s_a.jpg	sad	incongruent	7	mismatch		140	160		1	238	block2_Pilot_2	40	n_s	n_s_weak					0	1	1	1	0	76	76	76									1503.81468	None	1505.846886	1506.139811	1506.139811	1506.147365	0.0075542	1506.147365	1506.188381	1506.188381	None	None	0	1506.188381	None	1507.68864	None	['9']	[0.7268993000000137]	1507.68864	None								Emoconpilot039	2021_Dec_15_1153	BackwardMask	08.02.20	120.019059
	m	016_y_m_h_a.jpg	happy	9	30	f	030_o_f_n_a.jpg	neutral	incongruent	8	mismatch		120	170		2	215	block2_Pilot_2	16	h_n	h_n_weak					0	1	1	1	0	77	77	77									1510.689434	None	1512.491915	1512.7812	1512.7812	1512.797806	0.0166056	1512.797806	1512.838576	1512.838576	None	9	0	1512.838576	None	1514.338642	None	['7']	[0.7328492000001461]	1514.338642	None					0.856898			Emoconpilot039	2021_Dec_15_1153	BackwardMask	08.02.20	120.019059
	m	013_y_m_h_a.jpg	happy	9	28	f	028_y_f_n_a.jpg	neutral	incongruent	8	mismatch		120	170		18	191	block2_Pilot_2	13	h_n	h_n_weak					0	1	1	1	0	78	78	78									1517.339085	None	1518.969564	1519.265071	1519.265071	1519.414467	0.1493951	1519.414467	1519.45546	1519.45546	None	9	0	1519.45546	None	1520.95533	None	['7']	[0.8840350999998918]	1520.95533	None					0.7760088			Emoconpilot039	2021_Dec_15_1153	BackwardMask	08.02.20	120.019059
	m	008_y_m_n_a.jpg	neutral	8	8	m	008_y_m_h_a.jpg	happy	incongruent	9	match		140	150		3	228	block2_Pilot_2	8	n_h	n_h_weak					0	1	1	1	0	79	79	79									1523.955534	None	1525.878745	1526.173438	1526.173438	1526.197937	0.0244993	1526.197937	1526.23878	1526.23878	None	8	0	1526.23878	None	1527.739575	None	['8']	[0.323838300000034]	1527.739575	None					0.8886543			Emoconpilot039	2021_Dec_15_1153	BackwardMask	08.02.20	120.019059
	m	016_y_m_h_a.jpg	happy	9	13	m	013_y_m_s_a.jpg	sad	incongruent	7	match		120	160		1	238	block2_Pilot_2	16	h_s	h_s_weak					0	1	1	1	0	80	80	80									1530.739991	None	1532.730486	1533.023319	1533.023319	1533.031406	0.008087	1533.031406	1533.072242	1533.072242	None	None	0	1533.072242	None	1534.572309	None	['9']	[0.8352664999999888]	1534.572309	None								Emoconpilot039	2021_Dec_15_1153	BackwardMask	08.02.20	120.019059
	m	027_o_m_s_a.jpg	sad	7	40	f	040_y_f_h_a.jpg	happy	incongruent	9	mismatch		130	150		18	238	block2_Pilot_2	27	s_h	s_h_strong					0	1	1	1	0	81	81	81									1537.572412	None	1539.568937	1539.865012	1539.865012	1540.014928	0.1499159	1540.014928	1540.055733	1540.055733	None	7	0	1540.055733	None	1541.555882	None	['7']	[0.33946530000002895]	1541.555882	None					0.7755406			Emoconpilot039	2021_Dec_15_1153	BackwardMask	08.02.20	120.019059
	f	019_m_f_n_a.jpg	neutral	8	28	f	028_y_f_h_a.jpg	happy	incongruent	9	match		140	150		18	159	block2_Pilot_2	19	n_h	n_h_strong					0	1	1	1	0	82	82	82									1544.556642	None	1545.909208	1546.199043	1546.199043	1546.348324	0.1492813	1546.348324	1546.389231	1546.389231	None	8	0	1546.389231	None	1547.889354	None	['7']	[0.35002910000002885]	1547.889354	None					0.6022527			Emoconpilot039	2021_Dec_15_1153	BackwardMask	08.02.20	120.019059
	m	013_y_m_n_a.jpg	neutral	8	4	m	004_o_m_n_a.jpg	neutral	congruent	8	match		140	170		1	238	block2_Pilot_2	13	n_n	n_n_strong					0	1	1	1	0	83	83	83									1550.89006	None	1552.895637	1553.190678	1553.190678	1553.198507	0.0078296	1553.198507	1553.239219	1553.239219	None	None	0	1553.239219	None	1554.739463	None	['9']	[0.2838455999999496]	1554.739463	None								Emoconpilot039	2021_Dec_15_1153	BackwardMask	08.02.20	120.019059
	f	040_y_f_s_a.jpg	sad	7	33	m	033_o_m_s_a.jpg	sad	congruent	7	mismatch		130	160		2	130	block2_Pilot_2	40	s_s	s_s_weak					0	1	1	1	0	84	84	84									1557.740456	None	1558.831198	1559.123656	1559.123656	1559.140261	0.0166058	1559.140261	1559.18107	1559.18107	None	None	0	1559.18107	None	1560.681056	None	['9']	[0.2784088000000793]	1560.681056	None								Emoconpilot039	2021_Dec_15_1153	BackwardMask	08.02.20	120.019059
	m	013_y_m_s_a.jpg	sad	7	16	m	016_y_m_h_a.jpg	happy	incongruent	9	match		130	150		1	238	block2_Pilot_2	13	s_h	s_h_weak					0	1	1	1	0	85	85	85									1563.682689	None	1565.671486	1565.965511	1565.965511	1565.973739	0.0082284	1565.973739	1566.014577	1566.014577	None	None	0	1566.014577	None	1567.514495	None	['9']	[0.25294770000004974]	1567.514495	None								Emoconpilot039	2021_Dec_15_1153	BackwardMask	08.02.20	120.019059
	m	016_y_m_n_a.jpg	neutral	8	8	m	008_y_m_h_a.jpg	happy	incongruent	9	match		140	150		3	164	block2_Pilot_2	16	n_h	n_h_strong					0	1	1	1	0	86	86	86									1570.515689	None	1571.916424	1572.207764	1572.207764	1572.23205	0.0242855	1572.23205	1572.272989	1572.272989	None	8	0	1572.272989	None	1573.773324	None	['8']	[0.4820991999999933]	1573.773324	None					0.8462989			Emoconpilot039	2021_Dec_15_1153	BackwardMask	08.02.20	120.019059
	m	016_y_m_h_a.jpg	happy	9	13	m	013_y_m_s_a.jpg	sad	incongruent	7	match		120	160		3	149	block2_Pilot_2	16	h_s	h_s_strong					0	1	1	1	0	87	87	87									1576.773744	None	1578.023026	1578.315668	1578.315668	1578.340577	0.0249088	1578.340577	1578.381578	1578.381578	None	9	0	1578.381578	None	1579.882195	None	['7']	[0.32508659999984957]	1579.882195	None					0.8178575			Emoconpilot039	2021_Dec_15_1153	BackwardMask	08.02.20	120.019059
	m	008_y_m_n_a.jpg	neutral	8	21	f	021_o_f_h_a.jpg	happy	incongruent	9	mismatch		140	150		3	131	block2_Pilot_2	8	n_h	n_h_weak					0	1	1	1	0	88	88	88									1582.882312	None	1583.992835	1584.282825	1584.282825	1584.307459	0.0246335	1584.307459	1584.34835	1584.34835	None	8	0	1584.34835	None	1585.849038	None	['8']	[0.26237769999988814]	1585.849038	None					0.6909571			Emoconpilot039	2021_Dec_15_1153	BackwardMask	08.02.20	120.019059
	f	021_o_f_n_a.jpg	neutral	8	4	m	004_o_m_n_a.jpg	neutral	congruent	8	mismatch		140	170		1	238	block2_Pilot_2	21	n_n	n_n_strong					0	1	1	1	0	89	89	89									1588.849358	None	1590.855472	1591.149716	1591.149716	1591.157468	0.0077518	1591.157468	1591.198345	1591.198345	None	None	0	1591.198345	None	1592.6985	None	['9']	[0.29283090000012635]	1592.6985	None								Emoconpilot039	2021_Dec_15_1153	BackwardMask	08.02.20	120.019059
	m	033_o_m_h_a.jpg	happy	9	13	m	013_y_m_h_a.jpg	happy	congruent	9	match		120	150		1	238	block2_Pilot_2	33	h_h	h_h_weak					0	1	1	1	0	90	90	90									1595.698519	None	1597.694151	1597.98273	1597.98273	1597.990921	0.0081917	1597.990921	1598.031993	1598.031993	None	None	0	1598.031993	None	1599.532027	None	['9']	[0.29132319999985157]	1599.532027	None								Emoconpilot039	2021_Dec_15_1153	BackwardMask	08.02.20	120.019059
	m	033_o_m_s_a.jpg	sad	7	4	m	004_o_m_h_a.jpg	happy	incongruent	9	match		130	150		18	148	block2_Pilot_2	33	s_h	s_h_weak					0	1	1	1	0	91	91	91									1602.533176	None	1603.776342	1604.066162	1604.066162	1604.216184	0.1500221	1604.216184	1604.256979	1604.256979	None	7	0	1604.256979	None	1605.757277	None	['7']	[0.6740203999997902]	1605.757277	None					0.8942963			Emoconpilot039	2021_Dec_15_1153	BackwardMask	08.02.20	120.019059
	m	013_y_m_n_a.jpg	neutral	8	16	m	016_y_m_h_a.jpg	happy	incongruent	9	match		140	150		3	198	block2_Pilot_2	13	n_h	n_h_weak					0	1	1	1	0	92	92	92									1608.757638	None	1610.436564	1610.725068	1610.725068	1610.749599	0.0245307	1610.749599	1610.790398	1610.790398	None	8	0	1610.790398	None	1612.290991	None	['7']	[0.4282655000001796]	1612.290991	None					0.7446682			Emoconpilot039	2021_Dec_15_1153	BackwardMask	08.02.20	120.019059
	m	016_y_m_s_a.jpg	sad	7	28	f	028_y_f_s_a.jpg	sad	congruent	7	mismatch		130	160		1	238	block2_Pilot_2	16	s_s	s_s_weak					0	1	1	1	0	93	93	93									1615.290667	None	1617.282017	1617.574824	1617.574824	1617.583065	0.0082404	1617.583065	1617.624058	1617.624058	None	None	0	1617.624058	None	1619.123854	None	['9']	[0.5234568000000763]	1619.123854	None								Emoconpilot039	2021_Dec_15_1153	BackwardMask	08.02.20	120.019059
	f	030_o_f_n_a.jpg	neutral	8	28	f	028_y_f_n_a.jpg	neutral	congruent	8	match		140	170		3	177	block2_Pilot_2	30	n_n	n_n_weak					0	1	1	1	0	94	94	94									1622.124698	None	1623.632287	1623.925414	1623.925414	1623.94984	0.0244264	1623.94984	1623.990633	1623.990633	None	8	1	1623.990633	None	1625.49081	None	['8']	[0.2524486000002071]	1625.49081	None					0.7366651			Emoconpilot039	2021_Dec_15_1153	BackwardMask	08.02.20	120.019059
	m	033_o_m_n_a.jpg	neutral	8	13	m	013_y_m_n_a.jpg	neutral	congruent	8	match		140	170		2	220	block2_Pilot_2	33	n_n	n_n_weak					0	1	1	1	0	95	95	95									1628.491743	None	1630.347839	1630.64217	1630.64217	1630.65812	0.0159503	1630.65812	1630.699157	1630.699157	None	8	1	1630.699157	None	1632.199223	None	['7']	[0.4958658000000469]	1632.199223	None					0.7641756			Emoconpilot039	2021_Dec_15_1153	BackwardMask	08.02.20	120.019059
	f	012_o_f_s_a.jpg	sad	7	21	f	021_o_f_s_a.jpg	sad	congruent	7	match		130	160		1	238	block2_Pilot_2	12	s_s	s_s_strong					0	1	1	1	0	96	96	96									1635.200143	None	1637.18911	1637.483428	1637.483428	1637.4917	0.0082716	1637.4917	1637.532716	1637.532716	None	None	0	1637.532716	None	1639.032578	None	['9']	[0.3108188999999584]	1639.032578	None								Emoconpilot039	2021_Dec_15_1153	BackwardMask	08.02.20	120.019059
	m	033_o_m_h_a.jpg	happy	9	30	f	030_o_f_s_a.jpg	sad	incongruent	7	mismatch		120	160		3	204	block2_Pilot_2	33	h_s	h_s_strong					0	1	1	1	0	97	97	97									1642.032679	None	1643.741017	1644.033797	1644.033797	1644.058609	0.0248118	1644.058609	1644.099442	1644.099442	None	9	0	1644.099442	None	1645.599528	None	['7']	[0.32777790000000095]	1645.599528	None					0.8677338			Emoconpilot039	2021_Dec_15_1153	BackwardMask	08.02.20	120.019059
	f	030_o_f_s_a.jpg	sad	7	30	f	030_o_f_n_a.jpg	neutral	incongruent	8	match		130	170		1	238	block2_Pilot_2	30	s_n	s_n_weak					0	1	1	1	0	98	98	98									1648.600417	None	1650.625289	1650.91771	1650.91771	1650.925187	0.0074766	1650.925187	1650.966229	1650.966229	None	None	0	1650.966229	None	1652.467274	None	['9']	[0.37194659999977375]	1652.467274	None								Emoconpilot039	2021_Dec_15_1153	BackwardMask	08.02.20	120.019059
	f	030_o_f_h_a.jpg	happy	9	12	f	012_o_f_n_a.jpg	neutral	incongruent	8	match		120	170		1	238	block2_Pilot_2	30	h_n	h_n_weak					0	1	1	1	0	99	99	99									1655.467243	None	1657.473448	1657.767857	1657.767857	1657.775423	0.0075659	1657.775423	1657.816324	1657.816324	None	None	0	1657.816324	None	1659.316813	None	['9']	[0.32239449999997305]	1659.316813	None								Emoconpilot039	2021_Dec_15_1153	BackwardMask	08.02.20	120.019059
	m	033_o_m_n_a.jpg	neutral	8	30	f	030_o_f_h_a.jpg	happy	incongruent	9	mismatch		140	150		3	151	block2_Pilot_2	33	n_h	n_h_strong					0	1	1	1	0	100	100	100									1662.317239	None	1663.593794	1663.884584	1663.884584	1663.908992	0.0244077	1663.908992	1663.949652	1663.949652	None	8	0	1663.949652	None	1665.449883	None	['7']	[0.3492625999997472]	1665.449883	None					0.7694796			Emoconpilot039	2021_Dec_15_1153	BackwardMask	08.02.20	120.019059
	f	019_m_f_s_a.jpg	sad	7	40	f	040_y_f_n_a.jpg	neutral	incongruent	8	match		130	170		18	156	block2_Pilot_2	19	s_n	s_n_weak					0	1	1	1	0	101	101	101									1668.45067	None	1669.768832	1670.059579	1670.059579	1670.209085	0.1495054	1670.209085	1670.249839	1670.249839	None	7	0	1670.249839	None	1671.749904	None	['7']	[0.3212330999999722]	1671.749904	None					0.7493014			Emoconpilot039	2021_Dec_15_1153	BackwardMask	08.02.20	120.019059
	m	004_o_m_n_a.jpg	neutral	8	13	m	013_y_m_h_a.jpg	happy	incongruent	9	match		140	150		18	238	block2_Pilot_2	4	n_h	n_h_weak					0	1	1	1	0	102	102	102									1674.750977	None	1676.755267	1677.051204	1677.051204	1677.200831	0.1496268	1677.200831	1677.24183	1677.24183	None	8	0	1677.24183	None	1678.742572	None	['7']	[0.5124445999999807]	1678.742572	None					0.8533867			Emoconpilot039	2021_Dec_15_1153	BackwardMask	08.02.20	120.019059
	f	012_o_f_n_a.jpg	neutral	8	21	f	021_o_f_n_a.jpg	neutral	congruent	8	match		140	170		2	164	block2_Pilot_2	12	n_n	n_n_strong					0	1	1	1	0	103	103	103									1681.742046	None	1683.130685	1683.426547	1683.426547	1683.44278	0.0162324	1683.44278	1683.483546	1683.483546	None	8	1	1683.483546	None	1684.983496	None	['7']	[0.31967649999978676]	1684.983496	None					0.6276255			Emoconpilot039	2021_Dec_15_1153	BackwardMask	08.02.20	120.019059
	m	004_o_m_n_a.jpg	neutral	8	4	m	004_o_m_h_a.jpg	happy	incongruent	9	match		140	150		1	238	block2_Pilot_2	4	n_h	n_h_weak					0	1	1	1	0	104	104	104									1687.983754	None	1689.98608	1690.276517	1690.276517	1690.284411	0.0078943	1690.284411	1690.32528	1690.32528	None	None	0	1690.32528	None	1691.826236	None	['9']	[0.32499619999998686]	1691.826236	None								Emoconpilot039	2021_Dec_15_1153	BackwardMask	08.02.20	120.019059
